cue_,stimulus_,cue_fichier,stimulus_fichier,block_name,block_trials_file,block_n_reps,block_ntrials,block_prob_highP_highT,block_prob_highP_lowT,block_pause_after,Bloc_essai.thisRepN,Bloc_essai.thisTrialN,Bloc_essai.thisN,Bloc_essai.thisIndex,blocks.thisRepN,blocks.thisTrialN,blocks.thisN,blocks.thisIndex,trials.thisRepN,trials.thisTrialN,trials.thisN,trials.thisIndex,pause_loop.thisRepN,pause_loop.thisTrialN,pause_loop.thisN,pause_loop.thisIndex,key_resp_5.started,start_calib.started,key_resp_2.started,ISI_duration,pause.started,pause.stopped,cue.started,ISI.started,choice_pain.started,Choice.started,choice_pain.keys,choice_pain.rt,main_text.started,confirm_text.started,ratingScale.response,ratingScale.rt,key_resp_3.started,key_resp_6.started,participant,low_ma,high_ma,failsafe_ma,block_file,date,expName,psychopyVersion,frameRate,
grave,forte,stimuli/330Hz,stimuli/forte,,,,,,,,0,0,0,1,,,,,,,,,,,,,28.200463299999683,29.735956700000315,31.3127628000002,3.6,33.88954989999911,37.49482309999985,37.494004589999896,0.30560830000104033,37.939262699999745,37.939262699999745,m,0.6682837000007567,40.14886780000052,40.14886780000052,63,1.474,,,sub-065,30,55,700,bloc_loop.csv,2023-11-02_13h15.21.667,PainUncertainty,2022.2.5,143.4302491527439,
aigu,forte,stimuli/660Hz,stimuli/forte,,,,,,,,0,1,1,3,,,,,,,,,,,,,,,,3.6,40.14886780000052,43.75176869999996,43.75180478999901,0.3048570999999356,44.19620819999909,44.19620819999909,m,2.0983137999992323,49.775926599999366,49.775926599999366,52,3.399,,,sub-065,30,55,700,bloc_loop.csv,2023-11-02_13h15.21.667,PainUncertainty,2022.2.5,143.4302491527439,
aigu,moderee,stimuli/660Hz,stimuli/moderee,,,,,,,,0,2,2,2,,,,,,,,,,,,,,,,4.3,49.775926599999366,54.07944060000045,54.079496689999,0.304780499998742,54.523542999999336,54.523542999999336,n,0.8930949999994482,57.945500199999515,57.945500199999515,17,2.462,,,sub-065,30,55,700,bloc_loop.csv,2023-11-02_13h15.21.667,PainUncertainty,2022.2.5,143.4302491527439,
grave,moderee,stimuli/330Hz,stimuli/moderee,,,,,,,,0,3,3,0,,,,,,,,,,,,,,,,4.6,57.945500199999515,62.54602039999918,62.54613978999951,0.305137499999546,62.99245510000037,62.99245510000037,n,1.2478623999995762,66.3148657999991,66.3148657999991,15,2.051,,,sub-065,30,55,700,bloc_loop.csv,2023-11-02_13h15.21.667,PainUncertainty,2022.2.5,143.4302491527439,
aigu,moderee,stimuli/660Hz,stimuli/moderee,bloc_1,prob20hthp_12trials.xlsx,4,48,20,80,0,,,,,0,0,0,0,0,0,0,6,,,,,,,,4.5,105.75188329999946,110.25303100000019,110.25278319000026,0.30511850000038976,110.69699620000029,110.69699620000029,n,0.6328417000004265,113.91979340000034,113.91979340000034,13,2.532,,,sub-065,30,55,700,bloc_loop.csv,2023-11-02_13h15.21.667,PainUncertainty,2022.2.5,143.4302491527439,
aigu,moderee,stimuli/660Hz,stimuli/moderee,bloc_1,prob20hthp_12trials.xlsx,4,48,20,80,0,,,,,0,0,0,0,0,1,1,8,,,,,,,,3.4,113.91979340000034,117.32348459999957,117.32343078999983,0.3048885000007431,117.76735980000012,117.76735980000012,n,0.45382749999953376,119.35969300000033,119.35969300000033,17,1.052,,,sub-065,30,55,700,bloc_loop.csv,2023-11-02_13h15.21.667,PainUncertainty,2022.2.5,143.4302491527439,
grave,forte,stimuli/330Hz,stimuli/forte,bloc_1,prob20hthp_12trials.xlsx,4,48,20,80,0,,,,,0,0,0,0,0,2,2,1,,,,,,,,3.6,119.35969300000033,122.96356600000036,122.96354828999901,0.299452499999461,123.41031169999951,123.41031169999951,m,0.4104462999985117,125.48210629999994,125.48210629999994,55,1.586,,,sub-065,30,55,700,bloc_loop.csv,2023-11-02_13h15.21.667,PainUncertainty,2022.2.5,143.4302491527439,
aigu,moderee,stimuli/660Hz,stimuli/moderee,bloc_1,prob20hthp_12trials.xlsx,4,48,20,80,0,,,,,0,0,0,0,0,3,3,7,,,,,,,,4.3,125.48210629999994,129.7832712999989,129.78316009000045,0.3048060999990412,130.22958010000002,130.22958010000002,n,0.3923565000004601,134.05210249999982,134.05210249999982,11,3.367,,,sub-065,30,55,700,bloc_loop.csv,2023-11-02_13h15.21.667,PainUncertainty,2022.2.5,143.4302491527439,
aigu,moderee,stimuli/660Hz,stimuli/moderee,bloc_1,prob20hthp_12trials.xlsx,4,48,20,80,0,,,,,0,0,0,0,0,4,4,10,,,,,,,,3.6,134.05210249999982,137.65226959999927,137.65214969000007,0.3048091000000568,138.09617330000037,138.09617330000037,n,0.6162531999998464,139.8070076999993,139.8070076999993,16,1.032,,,sub-065,30,55,700,bloc_loop.csv,2023-11-02_13h15.21.667,PainUncertainty,2022.2.5,143.4302491527439,
aigu,moderee,stimuli/660Hz,stimuli/moderee,bloc_1,prob20hthp_12trials.xlsx,4,48,20,80,0,,,,,0,0,0,0,0,5,5,9,,,,,,,,3.9,139.8070076999993,143.70869139999922,143.70876549000022,0.30497599999944214,144.1565329999994,144.1565329999994,n,0.4222005999999965,145.9297093999994,145.9297093999994,12,1.28,,,sub-065,30,55,700,bloc_loop.csv,2023-11-02_13h15.21.667,PainUncertainty,2022.2.5,143.4302491527439,
grave,forte,stimuli/330Hz,stimuli/forte,bloc_1,prob20hthp_12trials.xlsx,4,48,20,80,0,,,,,0,0,0,0,0,6,6,4,,,,,,,,5,145.9297093999994,150.93137729999944,150.931406289999,0.300111200000174,151.3762655999999,151.3762655999999,m,0.45406399999956193,153.07604059999903,153.07604059999903,61,1.192,,,sub-065,30,55,700,bloc_loop.csv,2023-11-02_13h15.21.667,PainUncertainty,2022.2.5,143.4302491527439,
grave,forte,stimuli/330Hz,stimuli/forte,bloc_1,prob20hthp_12trials.xlsx,4,48,20,80,0,,,,,0,0,0,0,0,7,7,0,,,,,,,,3.6,153.07604059999903,156.67516389999946,156.67516439000028,0.30507009999928414,157.11938980000014,157.11938980000014,m,0.30512329999874055,158.7368719999995,158.7368719999995,60,1.261,,,sub-065,30,55,700,bloc_loop.csv,2023-11-02_13h15.21.667,PainUncertainty,2022.2.5,143.4302491527439,
grave,forte,stimuli/330Hz,stimuli/forte,bloc_1,prob20hthp_12trials.xlsx,4,48,20,80,0,,,,,0,0,0,0,0,8,8,2,,,,,,,,4.8,158.7368719999995,163.53710709999905,163.5371102900004,0.29900589999851945,163.97490259999904,163.97490259999904,m,0.4940136999994138,165.73892419999902,165.73892419999902,62,1.212,,,sub-065,30,55,700,bloc_loop.csv,2023-11-02_13h15.21.667,PainUncertainty,2022.2.5,143.4302491527439,
aigu,forte,stimuli/660Hz,stimuli/forte,bloc_1,prob20hthp_12trials.xlsx,4,48,20,80,0,,,,,0,0,0,0,0,9,9,11,,,,,,,,3.4,165.73892419999902,169.14187870000023,169.14204129000026,0.30508820000068226,169.59333639999932,169.59333639999932,m,0.5590035000004718,173.3526278999998,173.3526278999998,64,3.122,,,sub-065,30,55,700,bloc_loop.csv,2023-11-02_13h15.21.667,PainUncertainty,2022.2.5,143.4302491527439,
grave,moderee,stimuli/330Hz,stimuli/moderee,bloc_1,prob20hthp_12trials.xlsx,4,48,20,80,0,,,,,0,0,0,0,0,10,10,5,,,,,,,,4.8,173.3526278999998,178.15688779999982,178.15691918999946,0.3052752000003238,178.60135640000044,178.60135640000044,n,0.4940552000007301,182.06382080000003,182.06382080000003,13,2.893,,,sub-065,30,55,700,bloc_loop.csv,2023-11-02_13h15.21.667,PainUncertainty,2022.2.5,143.4302491527439,
grave,forte,stimuli/330Hz,stimuli/forte,bloc_1,prob20hthp_12trials.xlsx,4,48,20,80,0,,,,,0,0,0,0,0,11,11,3,,,,,,,,4.8,182.06382080000003,186.86669619999884,186.86668008999877,0.3052782999984629,187.3106800000005,187.3106800000005,m,0.5431505999986257,189.5804178999988,189.5804178999988,66,1.65,,,sub-065,30,55,700,bloc_loop.csv,2023-11-02_13h15.21.667,PainUncertainty,2022.2.5,143.4302491527439,
grave,moderee,stimuli/330Hz,stimuli/moderee,bloc_1,prob20hthp_12trials.xlsx,4,48,20,80,0,,,,,0,0,0,0,1,0,12,5,,,,,,,,3.4,189.5804178999988,192.98758839999937,192.9860713899994,0.3041737000003195,193.42979419999938,193.42979419999938,n,0.529479299999366,196.35906199999954,196.35906199999954,13,2.329,,,sub-065,30,55,700,bloc_loop.csv,2023-11-02_13h15.21.667,PainUncertainty,2022.2.5,143.4302491527439,
grave,forte,stimuli/330Hz,stimuli/forte,bloc_1,prob20hthp_12trials.xlsx,4,48,20,80,0,,,,,0,0,0,0,1,1,13,3,,,,,,,,3.3,196.35906199999954,199.65955889999896,199.6595128900004,0.3016973000012513,200.1043754000002,200.1043754000002,m,0.6388321999984328,203.12373259999913,203.12373259999913,69,2.303,,,sub-065,30,55,700,bloc_loop.csv,2023-11-02_13h15.21.667,PainUncertainty,2022.2.5,143.4302491527439,
aigu,moderee,stimuli/660Hz,stimuli/moderee,bloc_1,prob20hthp_12trials.xlsx,4,48,20,80,0,,,,,0,0,0,0,1,2,14,6,,,,,,,,4.2,203.12373259999913,207.32711740000013,207.32727198999928,0.3048725000007835,207.77121929999885,207.77121929999885,n,0.5132646000001841,210.1261496999996,210.1261496999996,17,1.76,,,sub-065,30,55,700,bloc_loop.csv,2023-11-02_13h15.21.667,PainUncertainty,2022.2.5,143.4302491527439,
grave,forte,stimuli/330Hz,stimuli/forte,bloc_1,prob20hthp_12trials.xlsx,4,48,20,80,0,,,,,0,0,0,0,1,3,15,2,,,,,,,,4.3,210.1261496999996,214.42561009999918,214.42560308999927,0.3053646000007575,214.87334360000023,214.87334360000023,m,0.5264972999993915,217.75188619999972,217.75188619999972,70,2.289,,,sub-065,30,55,700,bloc_loop.csv,2023-11-02_13h15.21.667,PainUncertainty,2022.2.5,143.4302491527439,
aigu,forte,stimuli/660Hz,stimuli/forte,bloc_1,prob20hthp_12trials.xlsx,4,48,20,80,0,,,,,0,0,0,0,1,4,16,11,,,,,,,,3.2,217.75188619999972,220.95389599999908,220.95384028999942,0.30499280000003637,221.4022686999997,221.4022686999997,m,0.9467438999981823,223.63489479999953,223.63489479999953,71,1.226,,,sub-065,30,55,700,bloc_loop.csv,2023-11-02_13h15.21.667,PainUncertainty,2022.2.5,143.4302491527439,
grave,forte,stimuli/330Hz,stimuli/forte,bloc_1,prob20hthp_12trials.xlsx,4,48,20,80,0,,,,,0,0,0,0,1,5,17,4,,,,,,,,5,223.63489479999953,228.63527160000012,228.63529528999933,0.3052568999992218,229.07980099999986,229.07980099999986,m,0.5722781999993458,231.03687419999915,231.03687419999915,75,1.309,,,sub-065,30,55,700,bloc_loop.csv,2023-11-02_13h15.21.667,PainUncertainty,2022.2.5,143.4302491527439,
aigu,moderee,stimuli/660Hz,stimuli/moderee,bloc_1,prob20hthp_12trials.xlsx,4,48,20,80,0,,,,,0,0,0,0,1,6,18,8,,,,,,,,3.8,231.03687419999915,234.83729929999936,234.83731178999878,0.2993274000000383,235.27806369999962,235.27806369999962,n,0.5896491000003152,237.73698890000014,237.73698890000014,2,1.796,,,sub-065,30,55,700,bloc_loop.csv,2023-11-02_13h15.21.667,PainUncertainty,2022.2.5,143.4302491527439,
grave,forte,stimuli/330Hz,stimuli/forte,bloc_1,prob20hthp_12trials.xlsx,4,48,20,80,0,,,,,0,0,0,0,1,7,19,0,,,,,,,,5,237.73698890000014,242.74186539999937,242.74203719000033,0.30005059999894,243.18592700000045,243.18592700000045,m,0.4723593999988225,247.79469719999906,247.79469719999906,80,4.059,,,sub-065,30,55,700,bloc_loop.csv,2023-11-02_13h15.21.667,PainUncertainty,2022.2.5,143.4302491527439,
aigu,moderee,stimuli/660Hz,stimuli/moderee,bloc_1,prob20hthp_12trials.xlsx,4,48,20,80,0,,,,,0,0,0,0,1,8,20,7,,,,,,,,3.1,247.79469719999906,250.89556730000004,250.89555178999908,0.30480229999920994,251.34382650000043,251.34382650000043,n,0.6532130999985384,255.33968079999977,255.33968079999977,14,3.281,,,sub-065,30,55,700,bloc_loop.csv,2023-11-02_13h15.21.667,PainUncertainty,2022.2.5,143.4302491527439,
aigu,moderee,stimuli/660Hz,stimuli/moderee,bloc_1,prob20hthp_12trials.xlsx,4,48,20,80,0,,,,,0,0,0,0,1,9,21,9,,,,,,,,3,255.33968079999977,258.34088770000017,258.3409995899998,0.3010448000004544,258.7855500000005,258.7855500000005,n,0.8005825999989611,261.2085193999992,261.2085193999992,15,1.553,,,sub-065,30,55,700,bloc_loop.csv,2023-11-02_13h15.21.667,PainUncertainty,2022.2.5,143.4302491527439,
grave,forte,stimuli/330Hz,stimuli/forte,bloc_1,prob20hthp_12trials.xlsx,4,48,20,80,0,,,,,0,0,0,0,1,10,22,1,,,,,,,,3.8,261.2085193999992,265.00811950000025,265.01026328999944,0.2994101000003866,265.4533094999988,265.4533094999988,m,0.3898047000002407,268.4362665999997,268.4362665999997,82,2.512,,,sub-065,30,55,700,bloc_loop.csv,2023-11-02_13h15.21.667,PainUncertainty,2022.2.5,143.4302491527439,
aigu,moderee,stimuli/660Hz,stimuli/moderee,bloc_1,prob20hthp_12trials.xlsx,4,48,20,80,0,,,,,0,0,0,0,1,11,23,10,,,,,,,,3.6,268.4362665999997,272.0363232999989,272.0364060899989,0.30078340000000026,272.48071549999986,272.48071549999986,n,0.8023759000006976,275.2935911000004,275.2935911000004,12,1.948,,,sub-065,30,55,700,bloc_loop.csv,2023-11-02_13h15.21.667,PainUncertainty,2022.2.5,143.4302491527439,
aigu,moderee,stimuli/660Hz,stimuli/moderee,bloc_1,prob20hthp_12trials.xlsx,4,48,20,80,0,,,,,0,0,0,0,2,0,24,9,,,,,,,,3.3,275.2935911000004,278.5925974999991,278.59278208999933,0.30031029999918246,279.03773,279.03773,n,0.4208749999997963,280.63543729999947,280.63543729999947,15,1.102,,,sub-065,30,55,700,bloc_loop.csv,2023-11-02_13h15.21.667,PainUncertainty,2022.2.5,143.4302491527439,
grave,forte,stimuli/330Hz,stimuli/forte,bloc_1,prob20hthp_12trials.xlsx,4,48,20,80,0,,,,,0,0,0,0,2,1,25,3,,,,,,,,5,280.63543729999947,285.6352184999996,285.635305989999,0.3051826000009896,286.07943929999965,286.07943929999965,m,0.53881039999942,288.9001425999995,288.9001425999995,70,2.224,,,sub-065,30,55,700,bloc_loop.csv,2023-11-02_13h15.21.667,PainUncertainty,2022.2.5,143.4302491527439,
aigu,forte,stimuli/660Hz,stimuli/forte,bloc_1,prob20hthp_12trials.xlsx,4,48,20,80,0,,,,,0,0,0,0,2,2,26,11,,,,,,,,3.3,288.9001425999995,292.2053916999994,292.2054803899988,0.3052236000003177,292.64965739999934,292.64965739999934,m,0.6767434999983379,295.5533885999994,295.5533885999994,63,2.141,,,sub-065,30,55,700,bloc_loop.csv,2023-11-02_13h15.21.667,PainUncertainty,2022.2.5,143.4302491527439,
aigu,moderee,stimuli/660Hz,stimuli/moderee,bloc_1,prob20hthp_12trials.xlsx,4,48,20,80,0,,,,,0,0,0,0,2,3,27,6,,,,,,,,4.5,295.5533885999994,300.0537841999994,300.05356249,0.29916570000023057,300.49597989999893,300.49597989999893,n,0.4376437999999325,304.13897329999963,304.13897329999963,21,3.143,,,sub-065,30,55,700,bloc_loop.csv,2023-11-02_13h15.21.667,PainUncertainty,2022.2.5,143.4302491527439,
aigu,moderee,stimuli/660Hz,stimuli/moderee,bloc_1,prob20hthp_12trials.xlsx,4,48,20,80,0,,,,,0,0,0,0,2,4,28,7,,,,,,,,5,304.13897329999963,309.13800379999884,309.1381403899992,0.30496579999999085,309.5894757999995,309.5894757999995,n,0.6924373999991076,313.1090156999999,313.1090156999999,20,2.747,,,sub-065,30,55,700,bloc_loop.csv,2023-11-02_13h15.21.667,PainUncertainty,2022.2.5,143.4302491527439,
grave,forte,stimuli/330Hz,stimuli/forte,bloc_1,prob20hthp_12trials.xlsx,4,48,20,80,0,,,,,0,0,0,0,2,5,29,4,,,,,,,,3.2,313.1090156999999,316.3128842999995,316.31393308999907,0.3042745999991894,316.76380509999944,316.76380509999944,m,0.5647318999999698,319.2633096999998,319.2633096999998,73,1.865,,,sub-065,30,55,700,bloc_loop.csv,2023-11-02_13h15.21.667,PainUncertainty,2022.2.5,143.4302491527439,
aigu,moderee,stimuli/660Hz,stimuli/moderee,bloc_1,prob20hthp_12trials.xlsx,4,48,20,80,0,,,,,0,0,0,0,2,6,30,10,,,,,,,,4.5,319.2633096999998,323.7651033000002,323.76530538999907,0.3051388000003499,324.21187629999986,324.21187629999986,n,0.4145788000005268,328.10548109999945,328.10548109999945,7,3.374,,,sub-065,30,55,700,bloc_loop.csv,2023-11-02_13h15.21.667,PainUncertainty,2022.2.5,143.4302491527439,
grave,moderee,stimuli/330Hz,stimuli/moderee,bloc_1,prob20hthp_12trials.xlsx,4,48,20,80,0,,,,,0,0,0,0,2,7,31,5,,,,,,,,4.7,328.10548109999945,332.8080262000003,332.80857228999923,0.3044022000012774,333.25170830000025,333.25170830000025,n,0.5834722999989026,335.94021129999965,335.94021129999965,23,2.032,,,sub-065,30,55,700,bloc_loop.csv,2023-11-02_13h15.21.667,PainUncertainty,2022.2.5,143.4302491527439,
grave,forte,stimuli/330Hz,stimuli/forte,bloc_1,prob20hthp_12trials.xlsx,4,48,20,80,0,,,,,0,0,0,0,2,8,32,1,,,,,,,,4,335.94021129999965,339.9408451999989,339.94095528999935,0.3048329000012018,340.3845485999991,340.3845485999991,m,0.46553899999889836,343.15123549999953,343.15123549999953,73,2.225,,,sub-065,30,55,700,bloc_loop.csv,2023-11-02_13h15.21.667,PainUncertainty,2022.2.5,143.4302491527439,
aigu,moderee,stimuli/660Hz,stimuli/moderee,bloc_1,prob20hthp_12trials.xlsx,4,48,20,80,0,,,,,0,0,0,0,2,9,33,8,,,,,,,,3.1,343.15123549999953,346.25369669999964,346.2537715899995,0.2992021999998542,346.6961135999991,346.6961135999991,n,0.4682541999991372,350.01060959999995,350.01060959999995,7,2.762,,,sub-065,30,55,700,bloc_loop.csv,2023-11-02_13h15.21.667,PainUncertainty,2022.2.5,143.4302491527439,
grave,forte,stimuli/330Hz,stimuli/forte,bloc_1,prob20hthp_12trials.xlsx,4,48,20,80,0,,,,,0,0,0,0,2,10,34,2,,,,,,,,4.3,350.01060959999995,354.31020179999905,354.3103486899996,0.3049214000002394,354.754406,354.754406,m,0.44284159999915573,358.7073330000003,358.7073330000003,80,3.448,,,sub-065,30,55,700,bloc_loop.csv,2023-11-02_13h15.21.667,PainUncertainty,2022.2.5,143.4302491527439,
grave,forte,stimuli/330Hz,stimuli/forte,bloc_1,prob20hthp_12trials.xlsx,4,48,20,80,0,,,,,0,0,0,0,2,11,35,0,,,,,,,,3.5,358.7073330000003,362.2070107999989,362.20708329000047,0.29907009999988077,362.6452098999998,362.6452098999998,m,0.5304870999989362,366.31688740000027,366.31688740000027,80,3.067,,,sub-065,30,55,700,bloc_loop.csv,2023-11-02_13h15.21.667,PainUncertainty,2022.2.5,143.4302491527439,
aigu,moderee,stimuli/660Hz,stimuli/moderee,bloc_1,prob20hthp_12trials.xlsx,4,48,20,80,0,,,,,0,0,0,0,3,0,36,7,,,,,,,,3.3,366.31688740000027,369.61769339999955,369.6178101900001,0.30486870000095223,370.0618708999991,370.0618708999991,n,0.5894908000009309,376.05425449999893,376.05425449999893,8,5.338,,,sub-065,30,55,700,bloc_loop.csv,2023-11-02_13h15.21.667,PainUncertainty,2022.2.5,143.4302491527439,
grave,forte,stimuli/330Hz,stimuli/forte,bloc_1,prob20hthp_12trials.xlsx,4,48,20,80,0,,,,,0,0,0,0,3,1,37,3,,,,,,,,3.3,376.05425449999893,379.35485679999874,379.3549935899988,0.304958999999144,379.7995059999994,379.7995059999994,m,0.9179973999998765,382.7525539999988,382.7525539999988,56,1.976,,,sub-065,30,55,700,bloc_loop.csv,2023-11-02_13h15.21.667,PainUncertainty,2022.2.5,143.4302491527439,
grave,forte,stimuli/330Hz,stimuli/forte,bloc_1,prob20hthp_12trials.xlsx,4,48,20,80,0,,,,,0,0,0,0,3,2,38,2,,,,,,,,4.5,382.7525539999988,387.25167639999927,387.2517704899998,0.3019177000005584,387.6968627999995,387.6968627999995,m,0.6725445999982185,391.3229983000001,391.3229983000001,67,2.878,,,sub-065,30,55,700,bloc_loop.csv,2023-11-02_13h15.21.667,PainUncertainty,2022.2.5,143.4302491527439,
aigu,moderee,stimuli/660Hz,stimuli/moderee,bloc_1,prob20hthp_12trials.xlsx,4,48,20,80,0,,,,,0,0,0,0,3,3,39,10,,,,,,,,3.5,391.3229983000001,394.8220509999992,394.8221059900003,0.3047390000010637,395.2663425999999,395.2663425999999,n,0.8841347999987192,398.7733386,398.7733386,16,2.56,,,sub-065,30,55,700,bloc_loop.csv,2023-11-02_13h15.21.667,PainUncertainty,2022.2.5,143.4302491527439,
aigu,moderee,stimuli/660Hz,stimuli/moderee,bloc_1,prob20hthp_12trials.xlsx,4,48,20,80,0,,,,,0,0,0,0,3,4,40,6,,,,,,,,3.2,398.7733386,401.97573159999956,401.97575088999986,0.30513539999992645,402.4201238000005,402.4201238000005,n,0.7111253999992186,407.2001922999989,407.2001922999989,6,3.997,,,sub-065,30,55,700,bloc_loop.csv,2023-11-02_13h15.21.667,PainUncertainty,2022.2.5,143.4302491527439,
grave,forte,stimuli/330Hz,stimuli/forte,bloc_1,prob20hthp_12trials.xlsx,4,48,20,80,0,,,,,0,0,0,0,3,5,41,1,,,,,,,,4.2,407.2001922999989,411.40049050000016,411.40044198999897,0.3017857999984699,411.84489659999963,411.84489659999963,m,0.6542369999988296,415.6742231999997,415.6742231999997,83,3.102,,,sub-065,30,55,700,bloc_loop.csv,2023-11-02_13h15.21.667,PainUncertainty,2022.2.5,143.4302491527439,
aigu,moderee,stimuli/660Hz,stimuli/moderee,bloc_1,prob20hthp_12trials.xlsx,4,48,20,80,0,,,,,0,0,0,0,3,6,42,8,,,,,,,,4,415.6742231999997,419.67950910000036,419.6800329899994,0.30456319999939296,420.1234937999998,420.1234937999998,n,0.6690637000010611,424.2121427999991,424.2121427999991,13,3.361,,,sub-065,30,55,700,bloc_loop.csv,2023-11-02_13h15.21.667,PainUncertainty,2022.2.5,143.4302491527439,
aigu,moderee,stimuli/660Hz,stimuli/moderee,bloc_1,prob20hthp_12trials.xlsx,4,48,20,80,0,,,,,0,0,0,0,3,7,43,9,,,,,,,,3.8,424.2121427999991,428.0138413000004,428.01381578999974,0.3049996999998257,428.45763760000045,428.45763760000045,n,0.9061779999992723,433.0703797999995,433.0703797999995,10,3.627,,,sub-065,30,55,700,bloc_loop.csv,2023-11-02_13h15.21.667,PainUncertainty,2022.2.5,143.4302491527439,
grave,forte,stimuli/330Hz,stimuli/forte,bloc_1,prob20hthp_12trials.xlsx,4,48,20,80,0,,,,,0,0,0,0,3,8,44,4,,,,,,,,3.2,433.0703797999995,436.2714935999993,436.2716877899999,0.30491110000002664,436.7156928000004,436.7156928000004,m,0.2851275999983045,442.0553908999991,442.0553908999991,67,4.996,,,sub-065,30,55,700,bloc_loop.csv,2023-11-02_13h15.21.667,PainUncertainty,2022.2.5,143.4302491527439,
aigu,forte,stimuli/660Hz,stimuli/forte,bloc_1,prob20hthp_12trials.xlsx,4,48,20,80,0,,,,,0,0,0,0,3,9,45,11,,,,,,,,3.3,442.0553908999991,445.3561596999989,445.35603199000036,0.3050100999989809,445.8042167000003,445.8042167000003,m,0.4177293999982794,452.2092754000005,452.2092754000005,68,5.915,,,sub-065,30,55,700,bloc_loop.csv,2023-11-02_13h15.21.667,PainUncertainty,2022.2.5,143.4302491527439,
grave,moderee,stimuli/330Hz,stimuli/moderee,bloc_1,prob20hthp_12trials.xlsx,4,48,20,80,0,,,,,0,0,0,0,3,10,46,5,,,,,,,,4.9,452.2092754000005,457.1141442999997,457.1142587899991,0.3051089000000502,457.5606776000004,457.5606776000004,n,0.547619200000554,461.4983264000002,461.4983264000002,3,3.318,,,sub-065,30,55,700,bloc_loop.csv,2023-11-02_13h15.21.667,PainUncertainty,2022.2.5,143.4302491527439,
grave,forte,stimuli/330Hz,stimuli/forte,bloc_1,prob20hthp_12trials.xlsx,4,48,20,80,0,,,,,0,0,0,0,3,11,47,0,,,,,,,,3,461.4983264000002,464.50400719999925,464.50405398999976,0.30520459999934246,464.94846529999995,464.94846529999995,m,0.36428329999944253,469.4274996999993,469.4274996999993,73,4.032,,,sub-065,30,55,700,bloc_loop.csv,2023-11-02_13h15.21.667,PainUncertainty,2022.2.5,143.4302491527439,
grave,moderee,stimuli/330Hz,stimuli/moderee,bloc_2,prob50_50_4trials.xlsx,2,8,50,50,1,,,,,0,1,1,1,0,0,0,0,,,,,,,,3.9,469.4274996999993,473.33156919999965,473.3315418899998,0.30490280000049097,473.7759449999994,473.7759449999994,n,0.3553433999986737,476.1121934999992,476.1121934999992,4,1.9,,,sub-065,30,55,700,bloc_loop.csv,2023-11-02_13h15.21.667,PainUncertainty,2022.2.5,143.4302491527439,
grave,forte,stimuli/330Hz,stimuli/forte,bloc_2,prob50_50_4trials.xlsx,2,8,50,50,1,,,,,0,1,1,1,0,1,1,1,,,,,,,,4.6,476.1121934999992,480.7144401000005,480.7144391899998,0.30521460000090883,481.163429799999,481.163429799999,m,0.24290620000101626,482.7779835000001,482.7779835000001,83,1.302,,,sub-065,30,55,700,bloc_loop.csv,2023-11-02_13h15.21.667,PainUncertainty,2022.2.5,143.4302491527439,
aigu,moderee,stimuli/660Hz,stimuli/moderee,bloc_2,prob50_50_4trials.xlsx,2,8,50,50,1,,,,,0,1,1,1,0,2,2,2,,,,,,,,3.7,482.7779835000001,486.4789528000001,486.4789955899993,0.3049941999997827,486.92312519999905,486.92312519999905,n,0.411120499999015,490.0864547000001,490.0864547000001,11,2.67,,,sub-065,30,55,700,bloc_loop.csv,2023-11-02_13h15.21.667,PainUncertainty,2022.2.5,143.4302491527439,
aigu,forte,stimuli/660Hz,stimuli/forte,bloc_2,prob50_50_4trials.xlsx,2,8,50,50,1,,,,,0,1,1,1,0,3,3,3,,,,,,,,4,490.0864547000001,494.09094509999886,494.09104618999993,0.30538960000012594,494.5392766999994,494.5392766999994,m,0.3087746999990486,496.5744777,496.5744777,78,1.671,,,sub-065,30,55,700,bloc_loop.csv,2023-11-02_13h15.21.667,PainUncertainty,2022.2.5,143.4302491527439,
grave,forte,stimuli/330Hz,stimuli/forte,bloc_2,prob50_50_4trials.xlsx,2,8,50,50,1,,,,,0,1,1,1,1,0,4,1,,,,,,,,4.5,496.5744777,501.0777754999999,501.07797369,0.30532879999918805,501.52490899999975,501.52490899999975,m,0.34920559999955003,503.94668759999877,503.94668759999877,52,1.989,,,sub-065,30,55,700,bloc_loop.csv,2023-11-02_13h15.21.667,PainUncertainty,2022.2.5,143.4302491527439,
aigu,moderee,stimuli/660Hz,stimuli/moderee,bloc_2,prob50_50_4trials.xlsx,2,8,50,50,1,,,,,0,1,1,1,1,1,5,2,,,,,,,,3.2,503.94668759999877,507.1480484999993,507.14829668999994,0.30490459999964514,507.59268019999945,507.59268019999945,n,0.40860669999892707,510.05543679999937,510.05543679999937,15,1.976,,,sub-065,30,55,700,bloc_loop.csv,2023-11-02_13h15.21.667,PainUncertainty,2022.2.5,143.4302491527439,
aigu,forte,stimuli/660Hz,stimuli/forte,bloc_2,prob50_50_4trials.xlsx,2,8,50,50,1,,,,,0,1,1,1,1,2,6,3,,,,,,,,4.6,510.05543679999937,514.6561779999993,514.6562144899996,0.3049427999994805,515.1002924000004,515.1002924000004,m,0.3124038999994809,517.9694577999999,517.9694577999999,75,2.474,,,sub-065,30,55,700,bloc_loop.csv,2023-11-02_13h15.21.667,PainUncertainty,2022.2.5,143.4302491527439,
grave,moderee,stimuli/330Hz,stimuli/moderee,bloc_2,prob50_50_4trials.xlsx,2,8,50,50,1,,,,,0,1,1,1,1,3,7,0,,,,,,,,4.1,517.9694577999999,522.0734066999994,522.073548689999,0.3050621999991563,522.5176484000003,522.5176484000003,n,0.4616223999983049,527.9759685999998,527.9759685999998,19,2.962,,,sub-065,30,55,700,bloc_loop.csv,2023-11-02_13h15.21.667,PainUncertainty,2022.2.5,143.4302491527439,
,,,,bloc_2,prob50_50_4trials.xlsx,2,8,50,50,1,,,,,0,1,1,1,,,,,0,0,0,0,,,,,,,,,,,,,,,,,527.9759685999998,699.983267399999,sub-065,30,55,700,bloc_loop.csv,2023-11-02_13h15.21.667,PainUncertainty,2022.2.5,143.4302491527439,
grave,moderee,stimuli/330Hz,stimuli/moderee,bloc_3,prob80hthp_12trials.xlsx,2,24,80,20,0,,,,,0,2,2,2,0,0,0,0,,,,,,,,4.3,701.1491829999995,705.4491794000005,705.4492710899991,0.299154999998791,705.8914625999987,705.8914625999987,n,0.4816415999994206,708.5034479999995,708.5034479999995,7,2.052,,,sub-065,30,55,700,bloc_loop.csv,2023-11-02_13h15.21.667,PainUncertainty,2022.2.5,143.4302491527439,
aigu,forte,stimuli/660Hz,stimuli/forte,bloc_3,prob80hthp_12trials.xlsx,2,24,80,20,0,,,,,0,2,2,2,0,1,1,9,,,,,,,,3.6,708.5034479999995,712.1033545999999,712.1036278899988,0.30502309999974386,712.5511432000003,712.5511432000003,m,0.26948649999940244,714.4338499999994,714.4338499999994,66,1.546,,,sub-065,30,55,700,bloc_loop.csv,2023-11-02_13h15.21.667,PainUncertainty,2022.2.5,143.4302491527439,
aigu,forte,stimuli/660Hz,stimuli/forte,bloc_3,prob80hthp_12trials.xlsx,2,24,80,20,0,,,,,0,2,2,2,0,2,2,8,,,,,,,,3.1,714.4338499999994,717.5339418999993,717.5341166899995,0.30547980000119423,717.9826042999994,717.9826042999994,m,0.31677529999979015,719.6932626999987,719.6932626999987,64,1.331,,,sub-065,30,55,700,bloc_loop.csv,2023-11-02_13h15.21.667,PainUncertainty,2022.2.5,143.4302491527439,
aigu,forte,stimuli/660Hz,stimuli/forte,bloc_3,prob80hthp_12trials.xlsx,2,24,80,20,0,,,,,0,2,2,2,0,3,3,10,,,,,,,,4.9,719.6932626999987,724.5977351999991,724.5979239900004,0.3047731000006024,725.0419036999992,725.0419036999992,m,0.41013980000025185,728.8564128999988,728.8564128999988,67,3.33,,,sub-065,30,55,700,bloc_loop.csv,2023-11-02_13h15.21.667,PainUncertainty,2022.2.5,143.4302491527439,
grave,moderee,stimuli/330Hz,stimuli/moderee,bloc_3,prob80hthp_12trials.xlsx,2,24,80,20,0,,,,,0,2,2,2,0,4,4,1,,,,,,,,3.8,728.8564128999988,732.660816399999,732.6610386899989,0.3043708000004699,733.1089799999991,733.1089799999991,n,0.40510729999914474,734.8984368999991,734.8984368999991,13,1.324,,,sub-065,30,55,700,bloc_loop.csv,2023-11-02_13h15.21.667,PainUncertainty,2022.2.5,143.4302491527439,
grave,moderee,stimuli/330Hz,stimuli/moderee,bloc_3,prob80hthp_12trials.xlsx,2,24,80,20,0,,,,,0,2,2,2,0,5,5,2,,,,,,,,4.5,734.8984368999991,739.3977952000005,739.3978739899991,0.3051462999992509,739.8418803999994,739.8418803999994,n,0.623175299999275,743.7249775,743.7249775,17,3.19,,,sub-065,30,55,700,bloc_loop.csv,2023-11-02_13h15.21.667,PainUncertainty,2022.2.5,143.4302491527439,
aigu,forte,stimuli/660Hz,stimuli/forte,bloc_3,prob80hthp_12trials.xlsx,2,24,80,20,0,,,,,0,2,2,2,0,6,6,7,,,,,,,,3.5,743.7249775,747.2249744000001,747.2251076899989,0.30522889999883773,747.6737453999995,747.6737453999995,m,0.3887734999989334,749.3034217000004,749.3034217000004,85,1.191,,,sub-065,30,55,700,bloc_loop.csv,2023-11-02_13h15.21.667,PainUncertainty,2022.2.5,143.4302491527439,
aigu,forte,stimuli/660Hz,stimuli/forte,bloc_3,prob80hthp_12trials.xlsx,2,24,80,20,0,,,,,0,2,2,2,0,7,7,6,,,,,,,,3.6,749.3034217000004,752.9062644000005,752.9064056900003,0.304993599998852,753.3504553999992,753.3504553999992,m,0.43953030000011495,754.7717531999988,754.7717531999988,80,0.913,,,sub-065,30,55,700,bloc_loop.csv,2023-11-02_13h15.21.667,PainUncertainty,2022.2.5,143.4302491527439,
grave,moderee,stimuli/330Hz,stimuli/moderee,bloc_3,prob80hthp_12trials.xlsx,2,24,80,20,0,,,,,0,2,2,2,0,8,8,3,,,,,,,,5,754.7717531999988,759.7751360999991,759.7752297900003,0.30506729999979143,760.2192512000001,760.2192512000001,n,0.7980231999990792,766.0604043999992,766.0604043999992,14,4.988,,,sub-065,30,55,700,bloc_loop.csv,2023-11-02_13h15.21.667,PainUncertainty,2022.2.5,143.4302491527439,
grave,moderee,stimuli/330Hz,stimuli/moderee,bloc_3,prob80hthp_12trials.xlsx,2,24,80,20,0,,,,,0,2,2,2,0,9,9,4,,,,,,,,3.2,766.0604043999992,769.2628655999997,769.2626561899993,0.3047718000016175,769.7065856999998,769.7065856999998,n,0.7079795000008744,772.0707824000001,772.0707824000001,15,1.607,,,sub-065,30,55,700,bloc_loop.csv,2023-11-02_13h15.21.667,PainUncertainty,2022.2.5,143.4302491527439,
aigu,moderee,stimuli/660Hz,stimuli/moderee,bloc_3,prob80hthp_12trials.xlsx,2,24,80,20,0,,,,,0,2,2,2,0,10,10,11,,,,,,,,3.7,772.0707824000001,775.7699909000003,775.7700867899999,0.299291399998765,776.2124722999997,776.2124722999997,n,0.9020539999983157,780.0670614999999,780.0670614999999,28,2.872,,,sub-065,30,55,700,bloc_loop.csv,2023-11-02_13h15.21.667,PainUncertainty,2022.2.5,143.4302491527439,
grave,forte,stimuli/330Hz,stimuli/forte,bloc_3,prob80hthp_12trials.xlsx,2,24,80,20,0,,,,,0,2,2,2,0,11,11,5,,,,,,,,3.5,780.0670614999999,783.5696035000001,783.5696483899989,0.3051570999996329,784.0175947999996,784.0175947999996,m,0.5719873999987612,787.3081313000002,787.3081313000002,76,2.62,,,sub-065,30,55,700,bloc_loop.csv,2023-11-02_13h15.21.667,PainUncertainty,2022.2.5,143.4302491527439,
aigu,forte,stimuli/660Hz,stimuli/forte,bloc_3,prob80hthp_12trials.xlsx,2,24,80,20,0,,,,,0,2,2,2,1,0,12,9,,,,,,,,4.8,787.3081313000002,792.1125715999988,792.1125041899992,0.3052966000013839,792.5605945999996,792.5605945999996,m,0.570834999998624,795.8643164000005,795.8643164000005,75,2.65,,,sub-065,30,55,700,bloc_loop.csv,2023-11-02_13h15.21.667,PainUncertainty,2022.2.5,143.4302491527439,
grave,moderee,stimuli/330Hz,stimuli/moderee,bloc_3,prob80hthp_12trials.xlsx,2,24,80,20,0,,,,,0,2,2,2,1,1,13,3,,,,,,,,3.9,795.8643164000005,799.7663823999992,799.766266889999,0.30533529999956954,800.2144960000005,800.2144960000005,n,0.421095100000457,802.4999501000002,802.4999501000002,18,1.781,,,sub-065,30,55,700,bloc_loop.csv,2023-11-02_13h15.21.667,PainUncertainty,2022.2.5,143.4302491527439,
aigu,forte,stimuli/660Hz,stimuli/forte,bloc_3,prob80hthp_12trials.xlsx,2,24,80,20,0,,,,,0,2,2,2,1,2,14,10,,,,,,,,3.4,802.4999501000002,805.8989881999987,805.898989089999,0.3050663000012719,806.3469117000004,806.3469117000004,m,0.501575899999807,810.4450935000004,810.4450935000004,80,3.517,,,sub-065,30,55,700,bloc_loop.csv,2023-11-02_13h15.21.667,PainUncertainty,2022.2.5,143.4302491527439,
grave,moderee,stimuli/330Hz,stimuli/moderee,bloc_3,prob80hthp_12trials.xlsx,2,24,80,20,0,,,,,0,2,2,2,1,3,15,1,,,,,,,,3.8,810.4450935000004,814.2467993999999,814.2469364900004,0.30500600000050326,814.6912245999993,814.6912245999993,n,0.5138364000013098,819.0303528000004,819.0303528000004,18,3.754,,,sub-065,30,55,700,bloc_loop.csv,2023-11-02_13h15.21.667,PainUncertainty,2022.2.5,143.4302491527439,
aigu,forte,stimuli/660Hz,stimuli/forte,bloc_3,prob80hthp_12trials.xlsx,2,24,80,20,0,,,,,0,2,2,2,1,4,16,8,,,,,,,,4.2,819.0303528000004,823.2339637999994,823.23396569,0.30538720000004105,823.6782444,823.6782444,m,0.6152941000000283,826.0973068000003,826.0973068000003,78,1.726,,,sub-065,30,55,700,bloc_loop.csv,2023-11-02_13h15.21.667,PainUncertainty,2022.2.5,143.4302491527439,
aigu,moderee,stimuli/660Hz,stimuli/moderee,bloc_3,prob80hthp_12trials.xlsx,2,24,80,20,0,,,,,0,2,2,2,1,5,17,11,,,,,,,,3.9,826.0973068000003,829.9987581000005,829.998735589999,0.3050149999999121,830.4431308000003,830.4431308000003,n,0.6138881000006222,833.932651699999,833.932651699999,1,2.803,,,sub-065,30,55,700,bloc_loop.csv,2023-11-02_13h15.21.667,PainUncertainty,2022.2.5,143.4302491527439,
aigu,forte,stimuli/660Hz,stimuli/forte,bloc_3,prob80hthp_12trials.xlsx,2,24,80,20,0,,,,,0,2,2,2,1,6,18,7,,,,,,,,3.7,833.932651699999,837.6317949000004,837.6318344899988,0.2995694999990519,838.0748081999991,838.0748081999991,m,0.8649261999998998,842.7245516000003,842.7245516000003,73,3.727,,,sub-065,30,55,700,bloc_loop.csv,2023-11-02_13h15.21.667,PainUncertainty,2022.2.5,143.4302491527439,
grave,forte,stimuli/330Hz,stimuli/forte,bloc_3,prob80hthp_12trials.xlsx,2,24,80,20,0,,,,,0,2,2,2,1,7,19,5,,,,,,,,3.2,842.7245516000003,845.9242505999991,845.9243343899994,0.3048202999998466,846.3723869000005,846.3723869000005,m,0.4788810999998532,848.5764973000005,848.5764973000005,73,1.657,,,sub-065,30,55,700,bloc_loop.csv,2023-11-02_13h15.21.667,PainUncertainty,2022.2.5,143.4302491527439,
grave,moderee,stimuli/330Hz,stimuli/moderee,bloc_3,prob80hthp_12trials.xlsx,2,24,80,20,0,,,,,0,2,2,2,1,8,20,4,,,,,,,,3.9,848.5764973000005,852.4806021000004,852.4807636900001,0.30103109999981825,852.9251973999999,852.9251973999999,n,0.4254393999981403,856.6329047999989,856.6329047999989,7,3.225,,,sub-065,30,55,700,bloc_loop.csv,2023-11-02_13h15.21.667,PainUncertainty,2022.2.5,143.4302491527439,
grave,moderee,stimuli/330Hz,stimuli/moderee,bloc_3,prob80hthp_12trials.xlsx,2,24,80,20,0,,,,,0,2,2,2,1,9,21,2,,,,,,,,3.5,856.6329047999989,860.1343017999989,860.1343929899991,0.3050920000005135,860.5856739999999,860.5856739999999,n,0.4374864000001253,862.9004133999988,862.9004133999988,7,1.83,,,sub-065,30,55,700,bloc_loop.csv,2023-11-02_13h15.21.667,PainUncertainty,2022.2.5,143.4302491527439,
grave,moderee,stimuli/330Hz,stimuli/moderee,bloc_3,prob80hthp_12trials.xlsx,2,24,80,20,0,,,,,0,2,2,2,1,10,22,0,,,,,,,,4,862.9004133999988,866.8995233000005,866.8995788899989,0.3017060999991372,867.344111299999,867.344111299999,n,0.6720270000005257,869.6018043999993,869.6018043999993,14,1.504,,,sub-065,30,55,700,bloc_loop.csv,2023-11-02_13h15.21.667,PainUncertainty,2022.2.5,143.4302491527439,
aigu,forte,stimuli/660Hz,stimuli/forte,bloc_3,prob80hthp_12trials.xlsx,2,24,80,20,0,,,,,0,2,2,2,1,11,23,6,,,,,,,,3.2,869.6018043999993,872.8028345000002,872.8027272899996,0.2994888000011997,873.2453609999993,873.2453609999993,m,0.4014860999996017,876.1255567999997,876.1255567999997,65,2.4,,,sub-065,30,55,700,bloc_loop.csv,2023-11-02_13h15.21.667,PainUncertainty,2022.2.5,143.4302491527439,
grave,moderee,stimuli/330Hz,stimuli/moderee,bloc_4,prob50_50_4trials.xlsx,2,8,50,50,1,,,,,0,3,3,3,0,0,0,0,,,,,,,,4.7,876.1255567999997,880.8311314000002,880.8310513899993,0.305290000000241,881.2751372999992,881.2751372999992,n,0.5611859999989974,883.2223966999991,883.2223966999991,20,1.315,,,sub-065,30,55,700,bloc_loop.csv,2023-11-02_13h15.21.667,PainUncertainty,2022.2.5,143.4302491527439,
aigu,forte,stimuli/660Hz,stimuli/forte,bloc_4,prob50_50_4trials.xlsx,2,8,50,50,1,,,,,0,3,3,3,0,1,1,3,,,,,,,,3.1,883.2223966999991,886.3247453000004,886.32484429,0.30511660000047414,886.7691087999992,886.7691087999992,m,0.6782026999990194,890.0836543999994,890.0836543999994,71,2.567,,,sub-065,30,55,700,bloc_loop.csv,2023-11-02_13h15.21.667,PainUncertainty,2022.2.5,143.4302491527439,
aigu,moderee,stimuli/660Hz,stimuli/moderee,bloc_4,prob50_50_4trials.xlsx,2,8,50,50,1,,,,,0,3,3,3,0,2,2,2,,,,,,,,4.1,890.0836543999994,894.1870719999988,894.1871902899999,0.30504060000021127,894.6351954999991,894.6351954999991,n,0.5884896999996272,896.636376299999,896.636376299999,20,1.344,,,sub-065,30,55,700,bloc_loop.csv,2023-11-02_13h15.21.667,PainUncertainty,2022.2.5,143.4302491527439,
grave,forte,stimuli/330Hz,stimuli/forte,bloc_4,prob50_50_4trials.xlsx,2,8,50,50,1,,,,,0,3,3,3,0,3,3,1,,,,,,,,4.7,896.636376299999,901.3409211999988,901.3409518900004,0.30042499999944994,901.7852029000005,901.7852029000005,m,0.5608100999997987,906.245596499999,906.245596499999,67,3.838,,,sub-065,30,55,700,bloc_loop.csv,2023-11-02_13h15.21.667,PainUncertainty,2022.2.5,143.4302491527439,
grave,forte,stimuli/330Hz,stimuli/forte,bloc_4,prob50_50_4trials.xlsx,2,8,50,50,1,,,,,0,3,3,3,1,0,4,1,,,,,,,,4.3,906.245596499999,910.5496607000005,910.5497471899995,0.3053288999999495,910.9939956999988,910.9939956999988,m,0.550675799999226,913.5690166000004,913.5690166000004,68,1.949,,,sub-065,30,55,700,bloc_loop.csv,2023-11-02_13h15.21.667,PainUncertainty,2022.2.5,143.4302491527439,
aigu,moderee,stimuli/660Hz,stimuli/moderee,bloc_4,prob50_50_4trials.xlsx,2,8,50,50,1,,,,,0,3,3,3,1,1,5,2,,,,,,,,4.1,913.5690166000004,917.6686843999996,917.6686826900001,0.3049891000009666,918.1128657999998,918.1128657999998,n,0.44967629999882774,919.8690506999992,919.8690506999992,24,1.226,,,sub-065,30,55,700,bloc_loop.csv,2023-11-02_13h15.21.667,PainUncertainty,2022.2.5,143.4302491527439,
aigu,forte,stimuli/660Hz,stimuli/forte,bloc_4,prob50_50_4trials.xlsx,2,8,50,50,1,,,,,0,3,3,3,1,2,6,3,,,,,,,,4.9,919.8690506999992,924.7737383999993,924.7736925900005,0.3051457000001392,925.2178034999997,925.2178034999997,m,0.5051307000012457,928.5017945999989,928.5017945999989,75,2.712,,,sub-065,30,55,700,bloc_loop.csv,2023-11-02_13h15.21.667,PainUncertainty,2022.2.5,143.4302491527439,
grave,moderee,stimuli/330Hz,stimuli/moderee,bloc_4,prob50_50_4trials.xlsx,2,8,50,50,1,,,,,0,3,3,3,1,3,7,0,,,,,,,,3.4,928.5017945999989,931.906723099999,931.9070117899988,0.3048297999994247,932.3550211000002,932.3550211000002,n,0.49008150000008754,936.8362140999998,936.8362140999998,18,1.955,,,sub-065,30,55,700,bloc_loop.csv,2023-11-02_13h15.21.667,PainUncertainty,2022.2.5,143.4302491527439,
,,,,bloc_4,prob50_50_4trials.xlsx,2,8,50,50,1,,,,,0,3,3,3,,,,,0,0,0,0,,,,,,,,,,,,,,,,,936.8362140999998,1058.4699815000004,sub-065,30,55,700,bloc_loop.csv,2023-11-02_13h15.21.667,PainUncertainty,2022.2.5,143.4302491527439,
grave,forte,stimuli/330Hz,stimuli/forte,bloc_5,prob20hthp_12trials.xlsx,2,24,20,80,0,,,,,0,4,4,4,0,0,0,2,,,,,,,,3.5,1059.895338299999,1063.4011572999989,1063.4012707899997,0.30506550000063726,1063.8453883999991,1063.8453883999991,m,0.4754534000003332,1066.8012770000005,1066.8012770000005,54,2.416,,,sub-065,30,55,700,bloc_loop.csv,2023-11-02_13h15.21.667,PainUncertainty,2022.2.5,143.4302491527439,
grave,forte,stimuli/330Hz,stimuli/forte,bloc_5,prob20hthp_12trials.xlsx,2,24,20,80,0,,,,,0,4,4,4,0,1,1,3,,,,,,,,3.2,1066.8012770000005,1070.0076590999997,1070.00674509,0.3047432999992452,1070.4538003999987,1070.4538003999987,m,0.5127833999995346,1072.3483500999992,1072.3483500999992,59,1.308,,,sub-065,30,55,700,bloc_loop.csv,2023-11-02_13h15.21.667,PainUncertainty,2022.2.5,143.4302491527439,
aigu,moderee,stimuli/660Hz,stimuli/moderee,bloc_5,prob20hthp_12trials.xlsx,2,24,20,80,0,,,,,0,4,4,4,0,2,2,9,,,,,,,,4.8,1072.3483500999992,1077.1527711999988,1077.1529167900003,0.30519660000027216,1077.6009190999994,1077.6009190999994,n,0.391487099997903,1079.830291799999,1079.830291799999,10,1.789,,,sub-065,30,55,700,bloc_loop.csv,2023-11-02_13h15.21.667,PainUncertainty,2022.2.5,143.4302491527439,
aigu,moderee,stimuli/660Hz,stimuli/moderee,bloc_5,prob20hthp_12trials.xlsx,2,24,20,80,0,,,,,0,4,4,4,0,3,3,7,,,,,,,,4,1079.830291799999,1083.8348023999988,1083.8347127899992,0.3048185999996349,1084.2786491999996,1084.2786491999996,n,0.3712527999996382,1085.411495299999,1085.411495299999,20,0.705,,,sub-065,30,55,700,bloc_loop.csv,2023-11-02_13h15.21.667,PainUncertainty,2022.2.5,143.4302491527439,
aigu,moderee,stimuli/660Hz,stimuli/moderee,bloc_5,prob20hthp_12trials.xlsx,2,24,20,80,0,,,,,0,4,4,4,0,4,4,6,,,,,,,,3.4,1085.411495299999,1088.8170529999989,1088.8145492899998,0.30465820000063104,1089.2624770000002,1089.2624770000002,n,0.45313679999890155,1090.6699685999993,1090.6699685999993,10,0.899,,,sub-065,30,55,700,bloc_loop.csv,2023-11-02_13h15.21.667,PainUncertainty,2022.2.5,143.4302491527439,
aigu,moderee,stimuli/660Hz,stimuli/moderee,bloc_5,prob20hthp_12trials.xlsx,2,24,20,80,0,,,,,0,4,4,4,0,5,5,10,,,,,,,,5,1090.6699685999993,1095.6758021000005,1095.6758962899999,0.30001529999935883,1096.1207090999997,1096.1207090999997,n,0.6078754999998637,1100.4562767999996,1100.4562767999996,14,3.656,,,sub-065,30,55,700,bloc_loop.csv,2023-11-02_13h15.21.667,PainUncertainty,2022.2.5,143.4302491527439,
grave,forte,stimuli/330Hz,stimuli/forte,bloc_5,prob20hthp_12trials.xlsx,2,24,20,80,0,,,,,0,4,4,4,0,6,6,0,,,,,,,,4,1100.4562767999996,1104.4615572999992,1104.4615665899996,0.3050340999998298,1104.9098580999998,1104.9098580999998,m,0.5695731999985583,1108.0184293999991,1108.0184293999991,81,2.47,,,sub-065,30,55,700,bloc_loop.csv,2023-11-02_13h15.21.667,PainUncertainty,2022.2.5,143.4302491527439,
aigu,moderee,stimuli/660Hz,stimuli/moderee,bloc_5,prob20hthp_12trials.xlsx,2,24,20,80,0,,,,,0,4,4,4,0,7,7,8,,,,,,,,4.8,1108.0184293999991,1112.8236144999992,1112.8237106899992,0.30511119999937364,1113.2677124000002,1113.2677124000002,n,0.49825740000051155,1117.3552784999993,1117.3552784999993,7,3.518,,,sub-065,30,55,700,bloc_loop.csv,2023-11-02_13h15.21.667,PainUncertainty,2022.2.5,143.4302491527439,
grave,forte,stimuli/330Hz,stimuli/forte,bloc_5,prob20hthp_12trials.xlsx,2,24,20,80,0,,,,,0,4,4,4,0,8,8,4,,,,,,,,3.1,1117.3552784999993,1120.4569217999997,1120.4570511899997,0.30467329999919457,1120.9007447000004,1120.9007447000004,m,0.969649999999092,1124.2153946999988,1124.2153946999988,73,2.289,,,sub-065,30,55,700,bloc_loop.csv,2023-11-02_13h15.21.667,PainUncertainty,2022.2.5,143.4302491527439,
grave,forte,stimuli/330Hz,stimuli/forte,bloc_5,prob20hthp_12trials.xlsx,2,24,20,80,0,,,,,0,4,4,4,0,9,9,1,,,,,,,,4.7,1124.2153946999988,1128.9160530999998,1128.9163367899996,0.30492120000053546,1129.3602413999997,1129.3602413999997,m,0.741515800000343,1132.9444270999993,1132.9444270999993,76,2.782,,,sub-065,30,55,700,bloc_loop.csv,2023-11-02_13h15.21.667,PainUncertainty,2022.2.5,143.4302491527439,
aigu,forte,stimuli/660Hz,stimuli/forte,bloc_5,prob20hthp_12trials.xlsx,2,24,20,80,0,,,,,0,4,4,4,0,10,10,11,,,,,,,,3,1132.9444270999993,1135.9445299999988,1135.9446998899998,0.3050018000012642,1136.3935516000001,1136.3935516000001,m,0.730759100000796,1141.0506023999988,1141.0506023999988,66,3.858,,,sub-065,30,55,700,bloc_loop.csv,2023-11-02_13h15.21.667,PainUncertainty,2022.2.5,143.4302491527439,
grave,moderee,stimuli/330Hz,stimuli/moderee,bloc_5,prob20hthp_12trials.xlsx,2,24,20,80,0,,,,,0,4,4,4,0,11,11,5,,,,,,,,4.2,1141.0506023999988,1145.2509422000003,1145.2510285900003,0.3050009999988106,1145.6951709999994,1145.6951709999994,n,0.9359610999999859,1151.0255994999989,1151.0255994999989,14,4.338,,,sub-065,30,55,700,bloc_loop.csv,2023-11-02_13h15.21.667,PainUncertainty,2022.2.5,143.4302491527439,
aigu,moderee,stimuli/660Hz,stimuli/moderee,bloc_5,prob20hthp_12trials.xlsx,2,24,20,80,0,,,,,0,4,4,4,1,0,12,7,,,,,,,,3.1,1151.0255994999989,1154.1271818000005,1154.12710759,0.30525200000010955,1154.571230399999,1154.571230399999,n,1.2885944999998173,1162.5400692999992,1162.5400692999992,16,6.602,,,sub-065,30,55,700,bloc_loop.csv,2023-11-02_13h15.21.667,PainUncertainty,2022.2.5,143.4302491527439,
aigu,forte,stimuli/660Hz,stimuli/forte,bloc_5,prob20hthp_12trials.xlsx,2,24,20,80,0,,,,,0,4,4,4,1,1,13,11,,,,,,,,4.7,1162.5400692999992,1167.2397473,1167.2398757899987,0.304796799999167,1167.6842207999998,1167.6842207999998,m,0.4574272000008932,1170.9014647000004,1170.9014647000004,81,2.692,,,sub-065,30,55,700,bloc_loop.csv,2023-11-02_13h15.21.667,PainUncertainty,2022.2.5,143.4302491527439,
aigu,moderee,stimuli/660Hz,stimuli/moderee,bloc_5,prob20hthp_12trials.xlsx,2,24,20,80,0,,,,,0,4,4,4,1,2,14,6,,,,,,,,4.4,1170.9014647000004,1175.303452799999,1175.3035202899987,0.3053836999988562,1175.7520726999992,1175.7520726999992,n,0.49671610000041255,1180.5752243999996,1180.5752243999996,7,4.24,,,sub-065,30,55,700,bloc_loop.csv,2023-11-02_13h15.21.667,PainUncertainty,2022.2.5,143.4302491527439,
grave,forte,stimuli/330Hz,stimuli/forte,bloc_5,prob20hthp_12trials.xlsx,2,24,20,80,0,,,,,0,4,4,4,1,3,15,4,,,,,,,,4.7,1180.5752243999996,1185.276913399999,1185.2769302899992,0.30489659999875585,1185.7207089999993,1185.7207089999993,m,0.44998759999907634,1187.2404655999999,1187.2404655999999,80,1.011,,,sub-065,30,55,700,bloc_loop.csv,2023-11-02_13h15.21.667,PainUncertainty,2022.2.5,143.4302491527439,
grave,forte,stimuli/330Hz,stimuli/forte,bloc_5,prob20hthp_12trials.xlsx,2,24,20,80,0,,,,,0,4,4,4,1,4,16,2,,,,,,,,3.3,1187.2404655999999,1190.5411200999988,1190.5412999899995,0.304967599999145,1190.9892593000004,1190.9892593000004,m,0.7110518999979831,1196.625448499999,1196.625448499999,76,4.859,,,sub-065,30,55,700,bloc_loop.csv,2023-11-02_13h15.21.667,PainUncertainty,2022.2.5,143.4302491527439,
grave,moderee,stimuli/330Hz,stimuli/moderee,bloc_5,prob20hthp_12trials.xlsx,2,24,20,80,0,,,,,0,4,4,4,1,5,17,5,,,,,,,,3,1196.625448499999,1199.6254575000003,1199.6256599900003,0.3050448999983928,1200.0698857999996,1200.0698857999996,n,0.5995488999997178,1202.1263572999997,1202.1263572999997,21,1.386,,,sub-065,30,55,700,bloc_loop.csv,2023-11-02_13h15.21.667,PainUncertainty,2022.2.5,143.4302491527439,
grave,forte,stimuli/330Hz,stimuli/forte,bloc_5,prob20hthp_12trials.xlsx,2,24,20,80,0,,,,,0,4,4,4,1,6,18,1,,,,,,,,4.6,1202.1263572999997,1206.7306704000002,1206.7306915900003,0.3048841999989236,1207.1746671,1207.1746671,m,0.353679199999533,1209.9422718999995,1209.9422718999995,77,2.319,,,sub-065,30,55,700,bloc_loop.csv,2023-11-02_13h15.21.667,PainUncertainty,2022.2.5,143.4302491527439,
grave,forte,stimuli/330Hz,stimuli/forte,bloc_5,prob20hthp_12trials.xlsx,2,24,20,80,0,,,,,0,4,4,4,1,7,19,0,,,,,,,,5,1209.9422718999995,1214.9472322000001,1214.9473993899987,0.3052220000008674,1215.3963014,1215.3963014,m,0.5526864000003116,1218.3544330999994,1218.3544330999994,59,2.33,,,sub-065,30,55,700,bloc_loop.csv,2023-11-02_13h15.21.667,PainUncertainty,2022.2.5,143.4302491527439,
aigu,moderee,stimuli/660Hz,stimuli/moderee,bloc_5,prob20hthp_12trials.xlsx,2,24,20,80,0,,,,,0,4,4,4,1,8,20,10,,,,,,,,4.5,1218.3544330999994,1222.8575738,1222.8576264899998,0.305487900001026,1223.3047506999992,1223.3047506999992,n,0.4464239000008092,1225.1968147999996,1225.1968147999996,15,1.372,,,sub-065,30,55,700,bloc_loop.csv,2023-11-02_13h15.21.667,PainUncertainty,2022.2.5,143.4302491527439,
grave,forte,stimuli/330Hz,stimuli/forte,bloc_5,prob20hthp_12trials.xlsx,2,24,20,80,0,,,,,0,4,4,4,1,9,21,3,,,,,,,,4.3,1225.1968147999996,1229.497715899999,1229.4979401899996,0.3049942000016017,1229.9463534999995,1229.9463534999995,m,0.34262089999901946,1234.6146200000003,1234.6146200000003,69,4.261,,,sub-065,30,55,700,bloc_loop.csv,2023-11-02_13h15.21.667,PainUncertainty,2022.2.5,143.4302491527439,
aigu,moderee,stimuli/660Hz,stimuli/moderee,bloc_5,prob20hthp_12trials.xlsx,2,24,20,80,0,,,,,0,4,4,4,1,10,22,8,,,,,,,,3,1234.6146200000003,1237.616582499999,1237.61654959,0.3053799000008439,1238.0657224999995,1238.0657224999995,n,0.4799122999993415,1241.3286824999996,1241.3286824999996,14,2.733,,,sub-065,30,55,700,bloc_loop.csv,2023-11-02_13h15.21.667,PainUncertainty,2022.2.5,143.4302491527439,
aigu,moderee,stimuli/660Hz,stimuli/moderee,bloc_5,prob20hthp_12trials.xlsx,2,24,20,80,0,,,,,0,4,4,4,1,11,23,9,,,,,,,,4.6,1241.3286824999996,1245.9298612000002,1245.9298464899998,0.3006074000004446,1246.3739231,1246.3739231,n,0.4245474999988801,1248.7326900999997,1248.7326900999997,18,1.849,,,sub-065,30,55,700,bloc_loop.csv,2023-11-02_13h15.21.667,PainUncertainty,2022.2.5,143.4302491527439,
aigu,forte,stimuli/660Hz,stimuli/forte,bloc_6,prob50_50_4trials.xlsx,2,8,50,50,0,,,,,0,5,5,5,0,0,0,3,,,,,,,,3.9,1248.7326900999997,1252.6317657,1252.6318357899995,0.3052205000003596,1253.0782394999987,1253.0782394999987,m,0.3564046999999846,1256.8379351999993,1256.8379351999993,77,3.319,,,sub-065,30,55,700,bloc_loop.csv,2023-11-02_13h15.21.667,PainUncertainty,2022.2.5,143.4302491527439,
grave,moderee,stimuli/330Hz,stimuli/moderee,bloc_6,prob50_50_4trials.xlsx,2,8,50,50,0,,,,,0,5,5,5,0,1,1,0,,,,,,,,4,1256.8379351999993,1260.8414701000002,1260.8418736899998,0.30503130000033707,1261.2901585,1261.2901585,n,0.6180344999993395,1266.6872449999992,1266.6872449999992,26,4.699,,,sub-065,30,55,700,bloc_loop.csv,2023-11-02_13h15.21.667,PainUncertainty,2022.2.5,143.4302491527439,
grave,forte,stimuli/330Hz,stimuli/forte,bloc_6,prob50_50_4trials.xlsx,2,8,50,50,0,,,,,0,5,5,5,0,2,2,1,,,,,,,,4.3,1266.6872449999992,1270.9884146000004,1270.9885812899988,0.30474380000123347,1271.4324132000002,1271.4324132000002,m,0.3512226000002556,1273.5442045,1273.5442045,65,1.691,,,sub-065,30,55,700,bloc_loop.csv,2023-11-02_13h15.21.667,PainUncertainty,2022.2.5,143.4302491527439,
aigu,moderee,stimuli/660Hz,stimuli/moderee,bloc_6,prob50_50_4trials.xlsx,2,8,50,50,0,,,,,0,5,5,5,0,3,3,2,,,,,,,,3.8,1273.5442045,1277.3500458999988,1277.350067089999,0.3049773999991885,1277.7946297999988,1277.7946297999988,n,0.36168199999883655,1281.9237107999998,1281.9237107999998,12,3.684,,,sub-065,30,55,700,bloc_loop.csv,2023-11-02_13h15.21.667,PainUncertainty,2022.2.5,143.4302491527439,
grave,forte,stimuli/330Hz,stimuli/forte,bloc_6,prob50_50_4trials.xlsx,2,8,50,50,0,,,,,0,5,5,5,1,0,4,1,,,,,,,,3.7,1281.9237107999998,1285.628687299999,1285.628790889999,0.3047907000000123,1286.076806699999,1286.076806699999,m,0.3145480999992287,1290.0291598999993,1290.0291598999993,69,3.566,,,sub-065,30,55,700,bloc_loop.csv,2023-11-02_13h15.21.667,PainUncertainty,2022.2.5,143.4302491527439,
grave,moderee,stimuli/330Hz,stimuli/moderee,bloc_6,prob50_50_4trials.xlsx,2,8,50,50,0,,,,,0,5,5,5,1,1,5,0,,,,,,,,3.3,1290.0291598999993,1293.3310901000004,1293.331070489999,0.3047576000008121,1293.7750718999996,1293.7750718999996,n,0.3016241000004811,1297.2554987000003,1297.2554987000003,9,3.109,,,sub-065,30,55,700,bloc_loop.csv,2023-11-02_13h15.21.667,PainUncertainty,2022.2.5,143.4302491527439,
aigu,forte,stimuli/660Hz,stimuli/forte,bloc_6,prob50_50_4trials.xlsx,2,8,50,50,0,,,,,0,5,5,5,1,2,6,3,,,,,,,,4.8,1297.2554987000003,1302.061273899999,1302.06123119,0.30506399999831046,1302.505398899999,1302.505398899999,m,0.2975482000001648,1304.6108176999987,1304.6108176999987,84,1.732,,,sub-065,30,55,700,bloc_loop.csv,2023-11-02_13h15.21.667,PainUncertainty,2022.2.5,143.4302491527439,
aigu,moderee,stimuli/660Hz,stimuli/moderee,bloc_6,prob50_50_4trials.xlsx,2,8,50,50,0,,,,,0,5,5,5,1,3,7,2,,,,,,,,4.1,1304.6108176999987,1308.7148128999997,1308.7148243899987,0.30491909999909694,1309.1592932000003,1309.1592932000003,n,0.4242013999992196,1311.9656682999994,1311.9656682999994,21,2.331,,,sub-065,30,55,700,bloc_loop.csv,2023-11-02_13h15.21.667,PainUncertainty,2022.2.5,143.4302491527439,
aigu,moderee,stimuli/660Hz,stimuli/moderee,bloc_7,prob80hthp_12trials.xlsx,2,24,80,20,1,,,,,0,6,6,6,0,0,0,11,,,,,,,,4.5,1311.9656682999994,1316.4659675999992,1316.466175789999,0.30501489999915066,1316.9143294000005,1316.9143294000005,n,0.5459207999992941,1320.758425099999,1320.758425099999,11,3.226,,,sub-065,30,55,700,bloc_loop.csv,2023-11-02_13h15.21.667,PainUncertainty,2022.2.5,143.4302491527439,
aigu,forte,stimuli/660Hz,stimuli/forte,bloc_7,prob80hthp_12trials.xlsx,2,24,80,20,1,,,,,0,6,6,6,0,1,1,7,,,,,,,,4.7,1320.758425099999,1325.4602252999994,1325.4604158899997,0.30462509999961185,1325.9039952000003,1325.9039952000003,m,0.32219439999971655,1328.3846687000005,1328.3846687000005,86,2.094,,,sub-065,30,55,700,bloc_loop.csv,2023-11-02_13h15.21.667,PainUncertainty,2022.2.5,143.4302491527439,
aigu,forte,stimuli/660Hz,stimuli/forte,bloc_7,prob80hthp_12trials.xlsx,2,24,80,20,1,,,,,0,6,6,6,0,2,2,9,,,,,,,,3.6,1328.3846687000005,1331.9884167,1331.98835689,0.30531469999914407,1332.4326168999996,1332.4326168999996,m,0.34521479999966687,1334.285813299999,1334.285813299999,76,1.433,,,sub-065,30,55,700,bloc_loop.csv,2023-11-02_13h15.21.667,PainUncertainty,2022.2.5,143.4302491527439,
grave,moderee,stimuli/330Hz,stimuli/moderee,bloc_7,prob80hthp_12trials.xlsx,2,24,80,20,1,,,,,0,6,6,6,0,3,3,2,,,,,,,,3.5,1334.285813299999,1337.7882594000002,1337.7880948899997,0.30486240000027465,1338.2342033999994,1338.2342033999994,n,0.4252606999998534,1343.5733115999992,1343.5733115999992,4,4.851,,,sub-065,30,55,700,bloc_loop.csv,2023-11-02_13h15.21.667,PainUncertainty,2022.2.5,143.4302491527439,
grave,moderee,stimuli/330Hz,stimuli/moderee,bloc_7,prob80hthp_12trials.xlsx,2,24,80,20,1,,,,,0,6,6,6,0,4,4,4,,,,,,,,3.2,1343.5733115999992,1346.774877599999,1346.775009389999,0.3048527000009926,1347.2194034999993,1347.2194034999993,n,0.3696929999987333,1349.7621545000002,1349.7621545000002,11,2.094,,,sub-065,30,55,700,bloc_loop.csv,2023-11-02_13h15.21.667,PainUncertainty,2022.2.5,143.4302491527439,
aigu,forte,stimuli/660Hz,stimuli/forte,bloc_7,prob80hthp_12trials.xlsx,2,24,80,20,1,,,,,0,6,6,6,0,5,5,8,,,,,,,,4.9,1349.7621545000002,1354.6649175000002,1354.665045789999,0.3051500000001397,1355.1131600999997,1355.1131600999997,m,0.2788150999986101,1357.421895899999,1357.421895899999,85,1.948,,,sub-065,30,55,700,bloc_loop.csv,2023-11-02_13h15.21.667,PainUncertainty,2022.2.5,143.4302491527439,
grave,moderee,stimuli/330Hz,stimuli/moderee,bloc_7,prob80hthp_12trials.xlsx,2,24,80,20,1,,,,,0,6,6,6,0,6,6,0,,,,,,,,4.9,1357.421895899999,1362.3255282999999,1362.325574689999,0.3049415000004956,1362.7694327999998,1362.7694327999998,n,0.32734719999825757,1366.6925365999996,1366.6925365999996,10,3.539,,,sub-065,30,55,700,bloc_loop.csv,2023-11-02_13h15.21.667,PainUncertainty,2022.2.5,143.4302491527439,
grave,moderee,stimuli/330Hz,stimuli/moderee,bloc_7,prob80hthp_12trials.xlsx,2,24,80,20,1,,,,,0,6,6,6,0,7,7,1,,,,,,,,4.5,1366.6925365999996,1371.1943536999988,1371.1944874899996,0.30539219999991474,1371.6429276999988,1371.6429276999988,n,0.5440655000002153,1376.3515432000004,1376.3515432000004,26,4.088,,,sub-065,30,55,700,bloc_loop.csv,2023-11-02_13h15.21.667,PainUncertainty,2022.2.5,143.4302491527439,
aigu,forte,stimuli/660Hz,stimuli/forte,bloc_7,prob80hthp_12trials.xlsx,2,24,80,20,1,,,,,0,6,6,6,0,8,8,6,,,,,,,,3.6,1376.3515432000004,1379.9523786999998,1379.9524000899996,0.30496640000092157,1380.3967011999994,1380.3967011999994,m,0.26313540000046487,1384.3140416999995,1384.3140416999995,88,3.579,,,sub-065,30,55,700,bloc_loop.csv,2023-11-02_13h15.21.667,PainUncertainty,2022.2.5,143.4302491527439,
grave,moderee,stimuli/330Hz,stimuli/moderee,bloc_7,prob80hthp_12trials.xlsx,2,24,80,20,1,,,,,0,6,6,6,0,9,9,3,,,,,,,,3.9,1384.3140416999995,1388.2175960999994,1388.21752299,0.30537469999944733,1388.6646239000002,1388.6646239000002,n,0.34169140000085463,1390.5963861,1390.5963861,13,1.511,,,sub-065,30,55,700,bloc_loop.csv,2023-11-02_13h15.21.667,PainUncertainty,2022.2.5,143.4302491527439,
grave,forte,stimuli/330Hz,stimuli/forte,bloc_7,prob80hthp_12trials.xlsx,2,24,80,20,1,,,,,0,6,6,6,0,10,10,5,,,,,,,,3.7,1390.5963861,1394.3011762999995,1394.3012504899993,0.30508150000059686,1394.7453320000004,1394.7453320000004,m,0.24836559999857855,1398.013541299999,1398.013541299999,83,2.961,,,sub-065,30,55,700,bloc_loop.csv,2023-11-02_13h15.21.667,PainUncertainty,2022.2.5,143.4302491527439,
aigu,forte,stimuli/660Hz,stimuli/forte,bloc_7,prob80hthp_12trials.xlsx,2,24,80,20,1,,,,,0,6,6,6,0,11,11,10,,,,,,,,4.4,1398.013541299999,1402.4131521999989,1402.4131641899999,0.30534520000037446,1402.8615744999988,1402.8615744999988,m,0.3537637999997969,1404.9055577,1404.9055577,82,1.622,,,sub-065,30,55,700,bloc_loop.csv,2023-11-02_13h15.21.667,PainUncertainty,2022.2.5,143.4302491527439,
grave,moderee,stimuli/330Hz,stimuli/moderee,bloc_7,prob80hthp_12trials.xlsx,2,24,80,20,1,,,,,0,6,6,6,1,0,12,3,,,,,,,,3.4,1404.9055577,1408.3098747000004,1408.3099848899997,0.30500260000007984,1408.7539610000003,1408.7539610000003,n,0.36615009999877657,1413.5878976999993,1413.5878976999993,20,4.393,,,sub-065,30,55,700,bloc_loop.csv,2023-11-02_13h15.21.667,PainUncertainty,2022.2.5,143.4302491527439,
aigu,forte,stimuli/660Hz,stimuli/forte,bloc_7,prob80hthp_12trials.xlsx,2,24,80,20,1,,,,,0,6,6,6,1,1,13,7,,,,,,,,3.8,1413.5878976999993,1417.3872747999994,1417.3872639899996,0.3052942999984225,1417.8314129999999,1417.8314129999999,m,0.26420060000054946,1420.6396698999997,1420.6396698999997,67,2.473,,,sub-065,30,55,700,bloc_loop.csv,2023-11-02_13h15.21.667,PainUncertainty,2022.2.5,143.4302491527439,
grave,moderee,stimuli/330Hz,stimuli/moderee,bloc_7,prob80hthp_12trials.xlsx,2,24,80,20,1,,,,,0,6,6,6,1,2,14,4,,,,,,,,3.5,1420.6396698999997,1424.1450263999996,1424.1450492899999,0.30521199999930104,1424.589498899999,1424.589498899999,n,0.3645390000001498,1426.9539327000002,1426.9539327000002,15,1.927,,,sub-065,30,55,700,bloc_loop.csv,2023-11-02_13h15.21.667,PainUncertainty,2022.2.5,143.4302491527439,
aigu,forte,stimuli/660Hz,stimuli/forte,bloc_7,prob80hthp_12trials.xlsx,2,24,80,20,1,,,,,0,6,6,6,1,3,15,6,,,,,,,,4.3,1426.9539327000002,1431.2583610000001,1431.2573805899988,0.3052623000003223,1431.701323899999,1431.701323899999,m,0.2802633999999671,1434.3716021,1434.3716021,70,2.322,,,sub-065,30,55,700,bloc_loop.csv,2023-11-02_13h15.21.667,PainUncertainty,2022.2.5,143.4302491527439,
aigu,forte,stimuli/660Hz,stimuli/forte,bloc_7,prob80hthp_12trials.xlsx,2,24,80,20,1,,,,,0,6,6,6,1,4,16,9,,,,,,,,4.6,1434.3716021,1438.9758705999993,1438.9733772899995,0.3050826999988203,1439.4176485999997,1439.4176485999997,m,0.40189939999982016,1441.3913128999993,1441.3913128999993,77,1.517,,,sub-065,30,55,700,bloc_loop.csv,2023-11-02_13h15.21.667,PainUncertainty,2022.2.5,143.4302491527439,
grave,forte,stimuli/330Hz,stimuli/forte,bloc_7,prob80hthp_12trials.xlsx,2,24,80,20,1,,,,,0,6,6,6,1,5,17,5,,,,,,,,4.5,1441.3913128999993,1445.892085899999,1445.89107689,0.3003504999996949,1446.3353972000004,1446.3353972000004,m,0.3145524999999907,1449.8648964000004,1449.8648964000004,88,3.136,,,sub-065,30,55,700,bloc_loop.csv,2023-11-02_13h15.21.667,PainUncertainty,2022.2.5,143.4302491527439,
aigu,moderee,stimuli/660Hz,stimuli/moderee,bloc_7,prob80hthp_12trials.xlsx,2,24,80,20,1,,,,,0,6,6,6,1,6,18,11,,,,,,,,3.6,1449.8648964000004,1453.4680420999994,1453.4678979899995,0.3052590000006603,1453.9121718999995,1453.9121718999995,n,0.3874508999997488,1455.5872407999996,1455.5872407999996,14,1.233,,,sub-065,30,55,700,bloc_loop.csv,2023-11-02_13h15.21.667,PainUncertainty,2022.2.5,143.4302491527439,
grave,moderee,stimuli/330Hz,stimuli/moderee,bloc_7,prob80hthp_12trials.xlsx,2,24,80,20,1,,,,,0,6,6,6,1,7,19,0,,,,,,,,3,1455.5872407999996,1458.5864769,1458.5866152899994,0.3051508999997168,1459.030897999999,1459.030897999999,n,0.4685203000008187,1464.1597629999997,1464.1597629999997,8,4.577,,,sub-065,30,55,700,bloc_loop.csv,2023-11-02_13h15.21.667,PainUncertainty,2022.2.5,143.4302491527439,
aigu,forte,stimuli/660Hz,stimuli/forte,bloc_7,prob80hthp_12trials.xlsx,2,24,80,20,1,,,,,0,6,6,6,1,8,20,8,,,,,,,,3.8,1464.1597629999997,1467.9626068999987,1467.96268129,0.3050896000004286,1468.410783899999,1468.410783899999,m,0.3229157000005216,1470.3623614999997,1470.3623614999997,74,1.552,,,sub-065,30,55,700,bloc_loop.csv,2023-11-02_13h15.21.667,PainUncertainty,2022.2.5,143.4302491527439,
grave,moderee,stimuli/330Hz,stimuli/moderee,bloc_7,prob80hthp_12trials.xlsx,2,24,80,20,1,,,,,0,6,6,6,1,9,21,1,,,,,,,,3.3,1470.3623614999997,1473.6647329999996,1473.6647848899988,0.30511049999950046,1474.1089008,1474.1089008,n,0.4511678999988362,1479.506138499999,1479.506138499999,7,4.892,,,sub-065,30,55,700,bloc_loop.csv,2023-11-02_13h15.21.667,PainUncertainty,2022.2.5,143.4302491527439,
grave,moderee,stimuli/330Hz,stimuli/moderee,bloc_7,prob80hthp_12trials.xlsx,2,24,80,20,1,,,,,0,6,6,6,1,10,22,2,,,,,,,,4.1,1479.506138499999,1483.6103117999992,1483.6104236899987,0.3048412999996799,1484.0581376999999,1484.0581376999999,n,0.39684529999976803,1486.1110475000005,1486.1110475000005,13,1.58,,,sub-065,30,55,700,bloc_loop.csv,2023-11-02_13h15.21.667,PainUncertainty,2022.2.5,143.4302491527439,
aigu,forte,stimuli/660Hz,stimuli/forte,bloc_7,prob80hthp_12trials.xlsx,2,24,80,20,1,,,,,0,6,6,6,1,11,23,10,,,,,,,,5,1486.1110475000005,1491.1112063,1491.1115118899993,0.30032700000083423,1491.5562781999997,1491.5562781999997,m,0.2728040999991208,1496.2667141000002,1496.2667141000002,76,2.405,,,sub-065,30,55,700,bloc_loop.csv,2023-11-02_13h15.21.667,PainUncertainty,2022.2.5,143.4302491527439,
,,,,bloc_7,prob80hthp_12trials.xlsx,2,24,80,20,1,,,,,0,6,6,6,,,,,0,0,0,0,,,,,,,,,,,,,,,,,1496.2667141000002,1557.8898635999994,sub-065,30,55,700,bloc_loop.csv,2023-11-02_13h15.21.667,PainUncertainty,2022.2.5,143.4302491527439,
grave,forte,stimuli/330Hz,stimuli/forte,bloc_8,prob50_50_4trials.xlsx,3,12,50,50,0,,,,,0,7,7,7,0,0,0,1,,,,,,,,4.5,1559.8011440999999,1564.3008647999995,1564.3008996900003,0.3013083000005281,1564.7450608,1564.7450608,m,2.3342166999991605,1569.1057232999992,1569.1057232999992,45,1.963,,,sub-065,30,55,700,bloc_loop.csv,2023-11-02_13h15.21.667,PainUncertainty,2022.2.5,143.4302491527439,
aigu,moderee,stimuli/660Hz,stimuli/moderee,bloc_8,prob50_50_4trials.xlsx,3,12,50,50,0,,,,,0,7,7,7,0,1,1,2,,,,,,,,4.4,1569.1057232999992,1573.5099258999999,1573.5099459899989,0.3050691000007646,1573.9539478999995,1573.9539478999995,n,0.4936262999999599,1576.3975757999997,1576.3975757999997,17,1.872,,,sub-065,30,55,700,bloc_loop.csv,2023-11-02_13h15.21.667,PainUncertainty,2022.2.5,143.4302491527439,
aigu,forte,stimuli/660Hz,stimuli/forte,bloc_8,prob50_50_4trials.xlsx,3,12,50,50,0,,,,,0,7,7,7,0,2,2,3,,,,,,,,4.6,1576.3975757999997,1580.9968952,1580.9969908899998,0.3049750000009226,1581.4410031999996,1581.4410031999996,m,0.534162699999797,1584.9995012999989,1584.9995012999989,62,2.95,,,sub-065,30,55,700,bloc_loop.csv,2023-11-02_13h15.21.667,PainUncertainty,2022.2.5,143.4302491527439,
grave,moderee,stimuli/330Hz,stimuli/moderee,bloc_8,prob50_50_4trials.xlsx,3,12,50,50,0,,,,,0,7,7,7,0,3,3,0,,,,,,,,3.8,1584.9995012999989,1588.806322299999,1588.8041084899992,0.304897300000448,1589.2525311999998,1589.2525311999998,n,0.4417558999994071,1592.1291886,1592.1291886,21,2.351,,,sub-065,30,55,700,bloc_loop.csv,2023-11-02_13h15.21.667,PainUncertainty,2022.2.5,143.4302491527439,
aigu,forte,stimuli/660Hz,stimuli/forte,bloc_8,prob50_50_4trials.xlsx,3,12,50,50,0,,,,,0,7,7,7,1,0,4,3,,,,,,,,3,1592.1291886,1595.1304017999992,1595.130484589999,0.30529420000129903,1595.574823699999,1595.574823699999,m,0.28807469999810564,1597.4361824999996,1597.4361824999996,74,1.518,,,sub-065,30,55,700,bloc_loop.csv,2023-11-02_13h15.21.667,PainUncertainty,2022.2.5,143.4302491527439,
grave,forte,stimuli/330Hz,stimuli/forte,bloc_8,prob50_50_4trials.xlsx,3,12,50,50,0,,,,,0,7,7,7,1,1,5,1,,,,,,,,3.3,1597.4361824999996,1600.7353136000002,1600.7352914899998,0.3051080000004731,1601.179374199999,1601.179374199999,m,0.4922248999992007,1605.2094803,1605.2094803,83,3.463,,,sub-065,30,55,700,bloc_loop.csv,2023-11-02_13h15.21.667,PainUncertainty,2022.2.5,143.4302491527439,
grave,moderee,stimuli/330Hz,stimuli/moderee,bloc_8,prob50_50_4trials.xlsx,3,12,50,50,0,,,,,0,7,7,7,1,2,6,0,,,,,,,,4.8,1605.2094803,1610.0140751,1610.0141378900003,0.30502379999961704,1610.4582314999989,1610.4582314999989,n,0.359164100000271,1612.3696640999988,1612.3696640999988,23,1.435,,,sub-065,30,55,700,bloc_loop.csv,2023-11-02_13h15.21.667,PainUncertainty,2022.2.5,143.4302491527439,
aigu,moderee,stimuli/660Hz,stimuli/moderee,bloc_8,prob50_50_4trials.xlsx,3,12,50,50,0,,,,,0,7,7,7,1,3,7,2,,,,,,,,4.6,1612.3696640999988,1616.9735733999987,1616.973708089999,0.305214199999682,1617.4218442000001,1617.4218442000001,n,0.3945841999993718,1620.4438824999997,1620.4438824999997,16,2.559,,,sub-065,30,55,700,bloc_loop.csv,2023-11-02_13h15.21.667,PainUncertainty,2022.2.5,143.4302491527439,
grave,forte,stimuli/330Hz,stimuli/forte,bloc_8,prob50_50_4trials.xlsx,3,12,50,50,0,,,,,0,7,7,7,2,0,8,1,,,,,,,,5,1620.4438824999997,1625.4467962999988,1625.446899189999,0.3050186999989819,1625.8948710999994,1625.8948710999994,m,0.30883600000015576,1629.8605872999997,1629.8605872999997,83,3.6,,,sub-065,30,55,700,bloc_loop.csv,2023-11-02_13h15.21.667,PainUncertainty,2022.2.5,143.4302491527439,
aigu,forte,stimuli/660Hz,stimuli/forte,bloc_8,prob50_50_4trials.xlsx,3,12,50,50,0,,,,,0,7,7,7,2,1,9,3,,,,,,,,4.3,1629.8605872999997,1634.1630446,1634.163112489999,0.3052506000003632,1634.6110310000004,1634.6110310000004,m,0.30631629999879806,1637.7121866999987,1637.7121866999987,82,2.726,,,sub-065,30,55,700,bloc_loop.csv,2023-11-02_13h15.21.667,PainUncertainty,2022.2.5,143.4302491527439,
grave,moderee,stimuli/330Hz,stimuli/moderee,bloc_8,prob50_50_4trials.xlsx,3,12,50,50,0,,,,,0,7,7,7,2,2,10,0,,,,,,,,4,1637.7121866999987,1641.712603099999,1641.7127109899989,0.299295599999823,1642.1553664999992,1642.1553664999992,n,0.38395109999873966,1644.1064972999993,1644.1064972999993,17,1.511,,,sub-065,30,55,700,bloc_loop.csv,2023-11-02_13h15.21.667,PainUncertainty,2022.2.5,143.4302491527439,
aigu,moderee,stimuli/660Hz,stimuli/moderee,bloc_8,prob50_50_4trials.xlsx,3,12,50,50,0,,,,,0,7,7,7,2,3,11,2,,,,,,,,3.5,1644.1064972999993,1647.6088320999988,1647.6089154899996,0.3027321999998094,1648.0549128000002,1648.0549128000002,n,0.3882770999989589,1652.3886621000001,1652.3886621000001,7,3.88,,,sub-065,30,55,700,bloc_loop.csv,2023-11-02_13h15.21.667,PainUncertainty,2022.2.5,143.4302491527439,
aigu,moderee,stimuli/660Hz,stimuli/moderee,bloc_9,prob20hthp_12trials.xlsx,3,36,80,20,0,,,,,0,8,8,8,0,0,0,8,,,,,,,,3.1,1652.3886621000001,1655.491712699999,1655.4917438899988,0.3053965999988577,1655.940173699999,1655.940173699999,n,0.46016559999952733,1657.7599592999995,1657.7599592999995,21,1.308,,,sub-065,30,55,700,bloc_loop.csv,2023-11-02_13h15.21.667,PainUncertainty,2022.2.5,143.4302491527439,
aigu,moderee,stimuli/660Hz,stimuli/moderee,bloc_9,prob20hthp_12trials.xlsx,3,36,80,20,0,,,,,0,8,8,8,0,1,1,9,,,,,,,,5,1657.7599592999995,1662.7637732999992,1662.7637075899997,0.30530910000015865,1663.2118128000002,1663.2118128000002,n,0.44196159999955853,1667.5946514999996,1667.5946514999996,19,3.857,,,sub-065,30,55,700,bloc_loop.csv,2023-11-02_13h15.21.667,PainUncertainty,2022.2.5,143.4302491527439,
grave,forte,stimuli/330Hz,stimuli/forte,bloc_9,prob20hthp_12trials.xlsx,3,36,80,20,0,,,,,0,8,8,8,0,2,2,2,,,,,,,,5,1667.5946514999996,1672.597945399999,1672.5983060899994,0.3049523000008776,1673.042188899999,1673.042188899999,m,0.31490320000011707,1676.3071456999987,1676.3071456999987,73,2.885,,,sub-065,30,55,700,bloc_loop.csv,2023-11-02_13h15.21.667,PainUncertainty,2022.2.5,143.4302491527439,
grave,forte,stimuli/330Hz,stimuli/forte,bloc_9,prob20hthp_12trials.xlsx,3,36,80,20,0,,,,,0,8,8,8,0,3,3,3,,,,,,,,4.1,1676.3071456999987,1680.4112413000003,1680.4113699900004,0.30015320000165957,1680.8561809999992,1680.8561809999992,m,0.2650778999995964,1682.7515098999993,1682.7515098999993,78,1.559,,,sub-065,30,55,700,bloc_loop.csv,2023-11-02_13h15.21.667,PainUncertainty,2022.2.5,143.4302491527439,
grave,moderee,stimuli/330Hz,stimuli/moderee,bloc_9,prob20hthp_12trials.xlsx,3,36,80,20,0,,,,,0,8,8,8,0,4,4,5,,,,,,,,3.5,1682.7515098999993,1686.2524529999992,1686.252528389999,0.30507350000152655,1686.6968999,1686.6968999,n,0.32078809999802615,1692.4411314999998,1692.4411314999998,12,5.352,,,sub-065,30,55,700,bloc_loop.csv,2023-11-02_13h15.21.667,PainUncertainty,2022.2.5,143.4302491527439,
grave,forte,stimuli/330Hz,stimuli/forte,bloc_9,prob20hthp_12trials.xlsx,3,36,80,20,0,,,,,0,8,8,8,0,5,5,4,,,,,,,,4,1692.4411314999998,1696.4410262000001,1696.4410594899996,0.3053538000003755,1696.8890124999998,1696.8890124999998,m,0.3646162999993976,1698.8512971,1698.8512971,80,1.525,,,sub-065,30,55,700,bloc_loop.csv,2023-11-02_13h15.21.667,PainUncertainty,2022.2.5,143.4302491527439,
aigu,moderee,stimuli/660Hz,stimuli/moderee,bloc_9,prob20hthp_12trials.xlsx,3,36,80,20,0,,,,,0,8,8,8,0,6,6,7,,,,,,,,4.5,1698.8512971,1703.3521325000002,1703.3521350899987,0.3046678000009706,1703.7958658999996,1703.7958658999996,n,0.3208519999989221,1706.4795980999988,1706.4795980999988,15,2.282,,,sub-065,30,55,700,bloc_loop.csv,2023-11-02_13h15.21.667,PainUncertainty,2022.2.5,143.4302491527439,
grave,forte,stimuli/330Hz,stimuli/forte,bloc_9,prob20hthp_12trials.xlsx,3,36,80,20,0,,,,,0,8,8,8,0,7,7,1,,,,,,,,3.4,1706.4795980999988,1709.8806480999992,1709.8806542899997,0.3019521000005625,1710.3260714999997,1710.3260714999997,m,0.2551574000008259,1711.7043369999992,1711.7043369999992,55,1.072,,,sub-065,30,55,700,bloc_loop.csv,2023-11-02_13h15.21.667,PainUncertainty,2022.2.5,143.4302491527439,
grave,forte,stimuli/330Hz,stimuli/forte,bloc_9,prob20hthp_12trials.xlsx,3,36,80,20,0,,,,,0,8,8,8,0,8,8,0,,,,,,,,4.1,1711.7043369999992,1715.8043844999993,1715.8044646899993,0.3051365999999689,1716.248547699999,1716.248547699999,m,0.47404569999889645,1718.5962194000003,1718.5962194000003,61,1.803,,,sub-065,30,55,700,bloc_loop.csv,2023-11-02_13h15.21.667,PainUncertainty,2022.2.5,143.4302491527439,
aigu,moderee,stimuli/660Hz,stimuli/moderee,bloc_9,prob20hthp_12trials.xlsx,3,36,80,20,0,,,,,0,8,8,8,0,9,9,6,,,,,,,,3.7,1718.5962194000003,1722.2981363999988,1722.2983213900002,0.299229700000069,1722.7431778999999,1722.7431778999999,n,0.3681174999983341,1725.9033246,1725.9033246,13,2.727,,,sub-065,30,55,700,bloc_loop.csv,2023-11-02_13h15.21.667,PainUncertainty,2022.2.5,143.4302491527439,
aigu,forte,stimuli/660Hz,stimuli/forte,bloc_9,prob20hthp_12trials.xlsx,3,36,80,20,0,,,,,0,8,8,8,0,10,10,11,,,,,,,,3.6,1725.9033246,1729.5077261999995,1729.5077958899997,0.3051441000006889,1729.9565525999988,1729.9565525999988,m,0.28306639999937033,1732.3152618999993,1732.3152618999993,67,2.004,,,sub-065,30,55,700,bloc_loop.csv,2023-11-02_13h15.21.667,PainUncertainty,2022.2.5,143.4302491527439,
aigu,moderee,stimuli/660Hz,stimuli/moderee,bloc_9,prob20hthp_12trials.xlsx,3,36,80,20,0,,,,,0,8,8,8,0,11,11,10,,,,,,,,5,1732.3152618999993,1737.3208469,1737.3208827899994,0.3050363999991532,1737.7649098000002,1737.7649098000002,n,0.4160509999983333,1743.234306299999,1743.234306299999,10,4.989,,,sub-065,30,55,700,bloc_loop.csv,2023-11-02_13h15.21.667,PainUncertainty,2022.2.5,143.4302491527439,
aigu,moderee,stimuli/660Hz,stimuli/moderee,bloc_9,prob20hthp_12trials.xlsx,3,36,80,20,0,,,,,0,8,8,8,1,0,12,7,,,,,,,,3.9,1743.234306299999,1747.1360177999995,1747.1348556899989,0.3052274000001489,1747.5832358999996,1747.5832358999996,n,0.45676449999882607,1750.9244233999998,1750.9244233999998,19,2.821,,,sub-065,30,55,700,bloc_loop.csv,2023-11-02_13h15.21.667,PainUncertainty,2022.2.5,143.4302491527439,
aigu,moderee,stimuli/660Hz,stimuli/moderee,bloc_9,prob20hthp_12trials.xlsx,3,36,80,20,0,,,,,0,8,8,8,1,1,13,8,,,,,,,,3.3,1750.9244233999998,1754.2260310000001,1754.2258715900002,0.3052327999994304,1754.6736696999997,1754.6736696999997,n,0.39997199999925215,1757.2419410000002,1757.2419410000002,24,2.095,,,sub-065,30,55,700,bloc_loop.csv,2023-11-02_13h15.21.667,PainUncertainty,2022.2.5,143.4302491527439,
grave,forte,stimuli/330Hz,stimuli/forte,bloc_9,prob20hthp_12trials.xlsx,3,36,80,20,0,,,,,0,8,8,8,1,2,14,1,,,,,,,,4.1,1757.2419410000002,1761.3444578999988,1761.3445110899988,0.30511809999916295,1761.7928961999987,1761.7928961999987,m,0.2522078000001784,1764.2268765999997,1764.2268765999997,74,2.13,,,sub-065,30,55,700,bloc_loop.csv,2023-11-02_13h15.21.667,PainUncertainty,2022.2.5,143.4302491527439,
grave,forte,stimuli/330Hz,stimuli/forte,bloc_9,prob20hthp_12trials.xlsx,3,36,80,20,0,,,,,0,8,8,8,1,3,15,3,,,,,,,,5,1764.2268765999997,1769.2276139999994,1769.2279307900003,0.30491739999888523,1769.674004299999,1769.674004299999,m,0.3469916000012745,1772.2397638999992,1772.2397638999992,73,2.136,,,sub-065,30,55,700,bloc_loop.csv,2023-11-02_13h15.21.667,PainUncertainty,2022.2.5,143.4302491527439,
aigu,moderee,stimuli/660Hz,stimuli/moderee,bloc_9,prob20hthp_12trials.xlsx,3,36,80,20,0,,,,,0,8,8,8,1,4,16,6,,,,,,,,4.8,1772.2397638999992,1777.0407118000003,1777.0407194899994,0.3050643000005948,1777.484971599999,1777.484971599999,n,0.3776049999996758,1779.8333581999996,1779.8333581999996,21,1.886,,,sub-065,30,55,700,bloc_loop.csv,2023-11-02_13h15.21.667,PainUncertainty,2022.2.5,143.4302491527439,
grave,forte,stimuli/330Hz,stimuli/forte,bloc_9,prob20hthp_12trials.xlsx,3,36,80,20,0,,,,,0,8,8,8,1,5,17,0,,,,,,,,4.4,1779.8333581999996,1784.236500699999,1784.2365859899996,0.3047143000003416,1784.6803476000005,1784.6803476000005,m,0.36786929999834683,1786.978373,1786.978373,78,1.871,,,sub-065,30,55,700,bloc_loop.csv,2023-11-02_13h15.21.667,PainUncertainty,2022.2.5,143.4302491527439,
grave,forte,stimuli/330Hz,stimuli/forte,bloc_9,prob20hthp_12trials.xlsx,3,36,80,20,0,,,,,0,8,8,8,1,6,18,2,,,,,,,,3.1,1786.978373,1790.083865999999,1790.0839727899997,0.3056278999993083,1790.532752699999,1790.532752699999,m,0.267283099998167,1792.3038259000004,1792.3038259000004,65,1.42,,,sub-065,30,55,700,bloc_loop.csv,2023-11-02_13h15.21.667,PainUncertainty,2022.2.5,143.4302491527439,
aigu,moderee,stimuli/660Hz,stimuli/moderee,bloc_9,prob20hthp_12trials.xlsx,3,36,80,20,0,,,,,0,8,8,8,1,7,19,9,,,,,,,,3.7,1792.3038259000004,1796.0081969999992,1796.0082608899988,0.30508300000110466,1796.452363299999,1796.452363299999,n,0.34855810000044585,1798.7161680999998,1798.7161680999998,16,1.837,,,sub-065,30,55,700,bloc_loop.csv,2023-11-02_13h15.21.667,PainUncertainty,2022.2.5,143.4302491527439,
grave,forte,stimuli/330Hz,stimuli/forte,bloc_9,prob20hthp_12trials.xlsx,3,36,80,20,0,,,,,0,8,8,8,1,8,20,4,,,,,,,,5,1798.7161680999998,1803.7174166999994,1803.7175776899999,0.3047809999989113,1804.1615891000001,1804.1615891000001,m,0.22318769999947108,1805.382145399999,1805.382145399999,65,0.933,,,sub-065,30,55,700,bloc_loop.csv,2023-11-02_13h15.21.667,PainUncertainty,2022.2.5,143.4302491527439,
aigu,forte,stimuli/660Hz,stimuli/forte,bloc_9,prob20hthp_12trials.xlsx,3,36,80,20,0,,,,,0,8,8,8,1,9,21,11,,,,,,,,4.1,1805.382145399999,1809.4823777000001,1809.4823783899988,0.30489489999854413,1809.9268806,1809.9268806,m,0.3477251000003889,1812.833052099999,1812.833052099999,69,2.477,,,sub-065,30,55,700,bloc_loop.csv,2023-11-02_13h15.21.667,PainUncertainty,2022.2.5,143.4302491527439,
aigu,moderee,stimuli/660Hz,stimuli/moderee,bloc_9,prob20hthp_12trials.xlsx,3,36,80,20,0,,,,,0,8,8,8,1,10,22,10,,,,,,,,3.4,1812.833052099999,1816.2327557999997,1816.2328287899995,0.30506919999970705,1816.6770044000004,1816.6770044000004,n,0.40508849999969243,1818.9388406999988,1818.9388406999988,26,1.803,,,sub-065,30,55,700,bloc_loop.csv,2023-11-02_13h15.21.667,PainUncertainty,2022.2.5,143.4302491527439,
grave,moderee,stimuli/330Hz,stimuli/moderee,bloc_9,prob20hthp_12trials.xlsx,3,36,80,20,0,,,,,0,8,8,8,1,11,23,5,,,,,,,,4.4,1818.9388406999988,1823.3383826999998,1823.3382240899987,0.3051761999995506,1823.7820923999989,1823.7820923999989,n,0.4511672999997245,1827.3820386999996,1827.3820386999996,25,3.074,,,sub-065,30,55,700,bloc_loop.csv,2023-11-02_13h15.21.667,PainUncertainty,2022.2.5,143.4302491527439,
grave,forte,stimuli/330Hz,stimuli/forte,bloc_9,prob20hthp_12trials.xlsx,3,36,80,20,0,,,,,0,8,8,8,2,0,24,3,,,,,,,,4.3,1827.3820386999996,1831.6864678000002,1831.6865127899996,0.30494830000134243,1832.1307887000003,1832.1307887000003,m,0.288470800000141,1834.2574826,1834.2574826,63,1.767,,,sub-065,30,55,700,bloc_loop.csv,2023-11-02_13h15.21.667,PainUncertainty,2022.2.5,143.4302491527439,
aigu,moderee,stimuli/660Hz,stimuli/moderee,bloc_9,prob20hthp_12trials.xlsx,3,36,80,20,0,,,,,0,8,8,8,2,1,25,9,,,,,,,,3,1834.2574826,1837.2630903999998,1837.2631995899987,0.30487690000154544,1837.7072496,1837.7072496,n,0.40762940000058734,1839.8694362999995,1839.8694362999995,22,1.677,,,sub-065,30,55,700,bloc_loop.csv,2023-11-02_13h15.21.667,PainUncertainty,2022.2.5,143.4302491527439,
grave,forte,stimuli/330Hz,stimuli/forte,bloc_9,prob20hthp_12trials.xlsx,3,36,80,20,0,,,,,0,8,8,8,2,2,26,0,,,,,,,,4.3,1839.8694362999995,1844.174039399999,1844.1741548900004,0.299902499999007,1844.6184493,1844.6184493,m,0.3247670000000653,1849.8794595999989,1849.8794595999989,73,4.859,,,sub-065,30,55,700,bloc_loop.csv,2023-11-02_13h15.21.667,PainUncertainty,2022.2.5,143.4302491527439,
aigu,moderee,stimuli/660Hz,stimuli/moderee,bloc_9,prob20hthp_12trials.xlsx,3,36,80,20,0,,,,,0,8,8,8,2,3,27,8,,,,,,,,4.8,1849.8794595999989,1854.6818679999997,1854.6818747899993,0.3051184000014473,1855.1301962999987,1855.1301962999987,n,0.3950972999991791,1858.6881011999994,1858.6881011999994,11,3.087,,,sub-065,30,55,700,bloc_loop.csv,2023-11-02_13h15.21.667,PainUncertainty,2022.2.5,143.4302491527439,
grave,forte,stimuli/330Hz,stimuli/forte,bloc_9,prob20hthp_12trials.xlsx,3,36,80,20,0,,,,,0,8,8,8,2,4,28,4,,,,,,,,4.2,1858.6881011999994,1862.8914110000005,1862.8915987899995,0.30021469999883266,1863.3385533,1863.3385533,m,0.3196819000004325,1868.3603896000004,1868.3603896000004,54,4.637,,,sub-065,30,55,700,bloc_loop.csv,2023-11-02_13h15.21.667,PainUncertainty,2022.2.5,143.4302491527439,
aigu,forte,stimuli/660Hz,stimuli/forte,bloc_9,prob20hthp_12trials.xlsx,3,36,80,20,0,,,,,0,8,8,8,2,5,29,11,,,,,,,,3.6,1868.3603896000004,1871.9619000000002,1871.961939889999,0.30487189999985276,1872.4057826999997,1872.4057826999997,m,0.3233239999990474,1874.5482204,1874.5482204,73,1.745,,,sub-065,30,55,700,bloc_loop.csv,2023-11-02_13h15.21.667,PainUncertainty,2022.2.5,143.4302491527439,
aigu,moderee,stimuli/660Hz,stimuli/moderee,bloc_9,prob20hthp_12trials.xlsx,3,36,80,20,0,,,,,0,8,8,8,2,6,30,10,,,,,,,,3.9,1874.5482204,1878.4484811000002,1878.4485570899992,0.3049888999994437,1878.8926594000004,1878.8926594000004,n,0.4013443999992887,1882.620920899999,1882.620920899999,6,3.269,,,sub-065,30,55,700,bloc_loop.csv,2023-11-02_13h15.21.667,PainUncertainty,2022.2.5,143.4302491527439,
aigu,moderee,stimuli/660Hz,stimuli/moderee,bloc_9,prob20hthp_12trials.xlsx,3,36,80,20,0,,,,,0,8,8,8,2,7,31,6,,,,,,,,4.2,1882.620920899999,1886.824781899999,1886.8250545899987,0.30497210000066843,1887.2707689999988,1887.2707689999988,n,0.363009199998487,1890.7749482999989,1890.7749482999989,6,3.073,,,sub-065,30,55,700,bloc_loop.csv,2023-11-02_13h15.21.667,PainUncertainty,2022.2.5,143.4302491527439,
grave,forte,stimuli/330Hz,stimuli/forte,bloc_9,prob20hthp_12trials.xlsx,3,36,80,20,0,,,,,0,8,8,8,2,8,32,1,,,,,,,,4.9,1890.7749482999989,1895.6799904,1895.6799948900002,0.3047103999997489,1896.1239812000003,1896.1239812000003,m,0.25781649999953515,1899.2972723999992,1899.2972723999992,77,2.858,,,sub-065,30,55,700,bloc_loop.csv,2023-11-02_13h15.21.667,PainUncertainty,2022.2.5,143.4302491527439,
grave,forte,stimuli/330Hz,stimuli/forte,bloc_9,prob20hthp_12trials.xlsx,3,36,80,20,0,,,,,0,8,8,8,2,9,33,2,,,,,,,,3.3,1899.2972723999992,1902.597579199999,1902.59754149,0.3073372999988351,1903.0489089000002,1903.0489089000002,m,0.24174279999897408,1905.3576823000003,1905.3576823000003,71,1.99,,,sub-065,30,55,700,bloc_loop.csv,2023-11-02_13h15.21.667,PainUncertainty,2022.2.5,143.4302491527439,
grave,moderee,stimuli/330Hz,stimuli/moderee,bloc_9,prob20hthp_12trials.xlsx,3,36,80,20,0,,,,,0,8,8,8,2,10,34,5,,,,,,,,4.8,1905.3576823000003,1910.1608335,1910.1608067899992,0.30532230000062555,1910.6075366999994,1910.6075366999994,n,0.4184639999984938,1913.0943721000003,1913.0943721000003,7,2.007,,,sub-065,30,55,700,bloc_loop.csv,2023-11-02_13h15.21.667,PainUncertainty,2022.2.5,143.4302491527439,
aigu,moderee,stimuli/660Hz,stimuli/moderee,bloc_9,prob20hthp_12trials.xlsx,3,36,80,20,0,,,,,0,8,8,8,2,11,35,7,,,,,,,,4.3,1913.0943721000003,1917.3975431999988,1917.39782349,0.30485090000001946,1917.841926699999,1917.841926699999,n,0.33145429999967746,1922.090784599999,1922.090784599999,9,3.893,,,sub-065,30,55,700,bloc_loop.csv,2023-11-02_13h15.21.667,PainUncertainty,2022.2.5,143.4302491527439,
