series.thisRepN,series.thisTrialN,series.thisN,series.thisIndex,Ramp.thisRepN,Ramp.thisTrialN,Ramp.thisN,Ramp.thisIndex,rand_shocks.thisRepN,rand_shocks.thisTrialN,rand_shocks.thisN,rand_shocks.thisIndex,wait1_dur,intensity,text_7.started,text_12.started,key_resp_8.started,key_resp_8.keys,key_resp_8.rt,text_3.started,text_3.stopped,text_4.started,text_4.stopped,main_text.started,confirm_text.started,rating,ratingScale.response,ratingScale.rt,text_2.started,key_resp_3.started,key_resp_3.keys,key_resp_3.rt,text_9.started,key_resp_7.started,key_resp_7.keys,key_resp_7.rt,main_text_rand.started,confirm_rand.started,scale_wasmoved,rating_rand_.response,rating_rand_.rt,participant,debug,fail_ma,max_ma,nramps,date,expName,psychopyVersion,frameRate,
0,0,0,0,0,0,0,0,,,,,2.5,10,354.0147638000017,354.07192489999943,354.07192489999943,p,4.286014500001329,358.36402330000055,360.8644434000016,360.8644434000016,361.88959180000165,373.3149040999997,373.3149040999997,0,0,11.427,373.3149040999997,373.3149040999997,y,3.714574300003733,,,,,,,,,,sub-044,0,750,700,3,2023-08-24_14h55.33.507,painuncertainty_calibration,2022.2.5,143.9837125658045,
0,0,0,0,1,0,1,0,,,,,2.2,20,377.0632130999984,377.14381180000055,377.14381180000055,p,1.0301182000002882,378.1854796000007,380.38734309999927,380.38734309999927,381.40429399999994,386.87202460000117,386.87202460000117,0,0,5.47,386.87202460000117,386.87202460000117,y,2.637448700003006,,,,,,,,,,sub-044,0,750,700,3,2023-08-24_14h55.33.507,painuncertainty_calibration,2022.2.5,143.9837125658045,
0,0,0,0,2,0,2,0,,,,,2.5,30,389.54982459999883,389.6244958999996,389.6244958999996,p,0.6608586000038486,390.2981956000003,392.79878950000057,392.79878950000057,393.81480379999994,398.68642719999843,398.68642719999843,0,0,4.872,398.68642719999843,398.68642719999843,y,2.6790774000000965,,,,,,,,,,sub-044,0,750,700,3,2023-08-24_14h55.33.507,painuncertainty_calibration,2022.2.5,143.9837125658045,
0,0,0,0,3,0,3,0,,,,,2.0,40,401.4111058000017,401.4801063999985,401.4801063999985,p,0.47693770000114455,401.96626749999996,403.9665085000015,403.9665085000015,404.9829610000015,418.01077559999976,418.01077559999976,3,3,13.026,418.01077559999976,418.01077559999976,y,4.250462400003016,,,,,,,,,,sub-044,0,750,700,3,2023-08-24_14h55.33.507,painuncertainty_calibration,2022.2.5,143.9837125658045,
0,0,0,0,4,0,4,0,,,,,2.4,50,422.3201575999992,422.3785104999988,422.3785104999988,p,0.7792688000008638,423.1701412000002,425.5733942000006,425.5733942000006,426.5896462000019,432.87760360000175,432.87760360000175,5,5,6.289,432.87760360000175,432.87760360000175,y,2.0799303999992844,,,,,,,,,,sub-044,0,750,700,3,2023-08-24_14h55.33.507,painuncertainty_calibration,2022.2.5,143.9837125658045,
0,0,0,0,5,0,5,0,,,,,2.3,60,434.99623209999845,435.0746637000011,435.0746637000011,p,0.6186450999994122,435.70647259999896,438.01236900000004,438.01236900000004,439.0329482999987,451.0952533000018,451.0952533000018,5,5,12.063,451.0952533000018,451.0952533000018,y,3.0705423000035807,,,,,,,,,,sub-044,0,750,700,3,2023-08-24_14h55.33.507,painuncertainty_calibration,2022.2.5,143.9837125658045,
0,0,0,0,6,0,6,0,,,,,2.1,70,454.2096453000013,454.27827139999863,454.27827139999863,p,0.7912630999999237,455.0776111999985,457.1812537000005,457.1812537000005,458.19809389999864,462.756143300001,462.756143300001,9,9,4.559,462.756143300001,462.756143300001,y,2.1461332000035327,,,,,,,,,,sub-044,0,750,700,3,2023-08-24_14h55.33.507,painuncertainty_calibration,2022.2.5,143.9837125658045,
0,0,0,0,7,0,7,0,,,,,2.2,80,464.95454170000085,465.01592080000046,465.01592080000046,p,0.5897174000019731,465.61278609999863,467.81500740000047,467.81500740000047,468.8300922999988,474.4801848999996,474.4801848999996,15,15,5.65,474.4801848999996,474.4801848999996,y,2.636918100000912,,,,,,,,,,sub-044,0,750,700,3,2023-08-24_14h55.33.507,painuncertainty_calibration,2022.2.5,143.9837125658045,
0,0,0,0,8,0,8,0,,,,,2.4,90,477.1663182000011,477.23219710000194,477.23219710000194,p,0.7825759000043035,478.02453070000047,480.4271966000015,480.4271966000015,481.444127499999,487.3510399000006,487.3510399000006,22,22,5.908,487.3510399000006,487.3510399000006,y,2.733984700000292,,,,,,,,,,sub-044,0,750,700,3,2023-08-24_14h55.33.507,painuncertainty_calibration,2022.2.5,143.9837125658045,
0,0,0,0,9,0,9,0,,,,,2.1,100,490.1461964000009,490.19921500000055,490.19921500000055,p,0.5745098000006692,490.7826051000011,492.88694690000193,492.88694690000193,493.903334300001,499.6427900000017,499.6427900000017,19,19,5.74,499.6427900000017,499.6427900000017,y,2.0266482000006363,,,,,,,,,,sub-044,0,750,700,3,2023-08-24_14h55.33.507,painuncertainty_calibration,2022.2.5,143.9837125658045,
0,0,0,0,10,0,10,0,,,,,2.4,110,501.70376810000016,501.7839406999992,501.7839406999992,p,0.7171086000016658,502.51316569999835,504.91660780000166,504.91660780000166,505.9332961,508.59031440000035,508.59031440000035,30,30,2.656,508.59031440000035,508.59031440000035,y,2.551138400001946,,,,,,,,,,sub-044,0,750,700,3,2023-08-24_14h55.33.507,painuncertainty_calibration,2022.2.5,143.9837125658045,
0,0,0,0,11,0,11,0,,,,,2.2,120,511.2007302999991,511.2576770000014,511.2576770000014,p,0.6199600000036298,511.8896311999997,514.0915817999994,514.0915817999994,515.1082625999989,518.0911349000016,518.0911349000016,33,33,2.983,518.0911349000016,518.0911349000016,y,2.242512799999531,,,,,,,,,,sub-044,0,750,700,3,2023-08-24_14h55.33.507,painuncertainty_calibration,2022.2.5,143.9837125658045,
0,0,0,0,12,0,12,0,,,,,2.5,130,520.3909528000004,520.4460338999997,520.4460338999997,p,0.6549922999984119,521.1130231999996,523.6129990000009,523.6129990000009,524.6297496000007,537.0378936999987,537.0378936999987,31,31,12.408,537.0378936999987,537.0378936999987,y,8.200057500002004,,,,,,,,,,sub-044,0,750,700,3,2023-08-24_14h55.33.507,painuncertainty_calibration,2022.2.5,143.9837125658045,
0,0,0,0,13,0,13,0,,,,,2.0,140,545.281608199999,545.3516949000004,545.3516949000004,p,0.8534107000014046,546.2129165000006,548.2136601999991,548.2136601999991,549.2298407000017,557.061001099999,557.061001099999,34,34,7.83,557.061001099999,557.061001099999,n,3.2639941000015824,,,,,,,,,,sub-044,0,750,700,3,2023-08-24_14h55.33.507,painuncertainty_calibration,2022.2.5,143.9837125658045,
0,0,0,0,,,,,,,,,,,,,,,,,,,,,,,,,,,,,,,,,,,,,,sub-044,0,750,700,3,2023-08-24_14h55.33.507,painuncertainty_calibration,2022.2.5,143.9837125658045,
1,0,1,0,0,0,0,0,,,,,2.0,10,572.5834092000005,572.6339961999984,572.6339961999984,p,2.411257600000681,575.0574215999986,577.0569706999995,577.0569706999995,578.1121797999986,580.5970816000008,580.5970816000008,0,0,2.486,580.5970816000008,580.5970816000008,y,0.7119793999991089,,,,,,,,,,sub-044,0,750,700,3,2023-08-24_14h55.33.507,painuncertainty_calibration,2022.2.5,143.9837125658045,
1,0,1,0,1,0,1,0,,,,,2.0,20,581.3572114999988,581.4257461000016,581.4257461000016,p,0.523576999999932,581.9604020000006,583.9605330999984,583.9605330999984,584.9776330999994,587.4190640000015,587.4190640000015,0,0,2.441,587.4190640000015,587.4190640000015,y,0.6339039999984379,,,,,,,,,,sub-044,0,750,700,3,2023-08-24_14h55.33.507,painuncertainty_calibration,2022.2.5,143.9837125658045,
1,0,1,0,2,0,2,0,,,,,2.2,30,588.0899744000017,588.1695088000015,588.1695088000015,p,0.39588630000071134,588.5722143999992,590.7746279999992,590.7746279999992,591.7903502000008,595.2462142000004,595.2462142000004,0,0,3.455,595.2462142000004,595.2462142000004,y,0.9427430000032473,,,,,,,,,,sub-044,0,750,700,3,2023-08-24_14h55.33.507,painuncertainty_calibration,2022.2.5,143.9837125658045,
1,0,1,0,3,0,3,0,,,,,2.0,40,596.2421107000009,596.3025449999986,596.3025449999986,p,0.5669849000005343,596.8787912000007,598.8791620000011,598.8791620000011,599.8948020999997,605.3656632999991,605.3656632999991,1,1,5.47,605.3656632999991,605.3656632999991,y,3.1999039000002085,,,,,,,,,,sub-044,0,750,700,3,2023-08-24_14h55.33.507,painuncertainty_calibration,2022.2.5,143.9837125658045,
1,0,1,0,4,0,4,0,,,,,2.4,50,608.5987695000003,608.6789857000003,608.6789857000003,p,0.9027383000029658,609.5890489999983,611.992242100001,611.992242100001,613.0083852999996,617.3450431000019,617.3450431000019,1,1,4.339,617.3450431000019,617.3450431000019,y,0.8128514000018185,,,,,,,,,,sub-044,0,750,700,3,2023-08-24_14h55.33.507,painuncertainty_calibration,2022.2.5,143.9837125658045,
1,0,1,0,5,0,5,0,,,,,2.3,60,618.1911542999987,618.2706761000009,618.2706761000009,p,0.5588712000026135,618.8398387000016,621.1457608000019,621.1457608000019,622.1635505000013,626.2431141999987,626.2431141999987,3,3,4.08,626.2431141999987,626.2431141999987,y,0.7145380000038131,,,,,,,,,,sub-044,0,750,700,3,2023-08-24_14h55.33.507,painuncertainty_calibration,2022.2.5,143.9837125658045,
1,0,1,0,6,0,6,0,,,,,2.4,70,627.0149482000015,627.0700203000015,627.0700203000015,p,0.6550572999985889,627.7367207999996,630.1398475999995,630.1398475999995,631.1572306999988,636.1452233000018,636.1452233000018,4,4,4.99,636.1452233000018,636.1452233000018,y,0.9717841000019689,,,,,,,,,,sub-044,0,750,700,3,2023-08-24_14h55.33.507,painuncertainty_calibration,2022.2.5,143.9837125658045,
1,0,1,0,7,0,7,0,,,,,2.3,80,637.1650894000013,637.2309728,637.2309728,p,0.678691400004027,637.9190262000011,640.2243793999987,640.2243793999987,641.2409329000002,643.1672923000006,643.1672923000006,4,4,1.927,643.1672923000006,643.1672923000006,y,0.9817630000034114,,,,,,,,,,sub-044,0,750,700,3,2023-08-24_14h55.33.507,painuncertainty_calibration,2022.2.5,143.9837125658045,
1,0,1,0,8,0,8,0,,,,,2.5,90,644.1982738000006,644.2665592000012,644.2665592000012,p,0.5863907000020845,644.8638137999988,647.3645837000004,647.3645837000004,648.3807683000014,651.682028700001,651.682028700001,6,6,3.302,651.682028700001,651.682028700001,y,0.9151933000030112,,,,,,,,,,sub-044,0,750,700,3,2023-08-24_14h55.33.507,painuncertainty_calibration,2022.2.5,143.9837125658045,
1,0,1,0,9,0,9,0,,,,,2.5,100,652.6558914999987,652.7120031999984,652.7120031999984,p,0.6530510999982653,653.3723312000002,655.8721098999995,655.8721098999995,656.8884472999998,660.8094462000008,660.8094462000008,11,11,3.922,660.8094462000008,660.8094462000008,y,0.8440276000037557,,,,,,,,,,sub-044,0,750,700,3,2023-08-24_14h55.33.507,painuncertainty_calibration,2022.2.5,143.9837125658045,
1,0,1,0,10,0,10,0,,,,,2.2,110,661.7032360000012,661.7687236999991,661.7687236999991,p,0.5330758999989484,662.3103239000011,664.5120438999984,664.5120438999984,665.5285430000004,670.5938945000016,670.5938945000016,15,15,5.066,670.5938945000016,670.5938945000016,y,2.5478476000025694,,,,,,,,,,sub-044,0,750,700,3,2023-08-24_14h55.33.507,painuncertainty_calibration,2022.2.5,143.9837125658045,
1,0,1,0,11,0,11,0,,,,,2.5,120,673.1957350000012,673.2562623999984,673.2562623999984,p,0.6216917999990983,673.8887308999983,676.3885043000009,676.3885043000009,677.4117947999985,680.9359435000006,680.9359435000006,17,17,3.53,680.9359435000006,680.9359435000006,n,1.3980441999992763,,,,,,,,,,sub-044,0,750,700,3,2023-08-24_14h55.33.507,painuncertainty_calibration,2022.2.5,143.9837125658045,
1,0,1,0,,,,,,,,,,,,,,,,,,,,,,,,,,,,,,,,,,,,,,sub-044,0,750,700,3,2023-08-24_14h55.33.507,painuncertainty_calibration,2022.2.5,143.9837125658045,
2,0,2,0,0,0,0,0,,,,,2.3,10,688.3822170999993,688.4320642999992,688.4320642999992,p,0.9980923000039184,689.4386591000002,691.7380951000014,691.7380951000014,692.7536714000016,694.8544164999985,694.8544164999985,0,0,2.101,694.8544164999985,694.8544164999985,y,0.678648000000976,,,,,,,,,,sub-044,0,750,700,3,2023-08-24_14h55.33.507,painuncertainty_calibration,2022.2.5,143.9837125658045,
2,0,2,0,1,0,1,0,,,,,2.0,20,695.5913068000009,695.6486062000004,695.6486062000004,p,0.5889188000001013,696.245038699999,698.2472721000013,698.2472721000013,,702.5214735000009,702.5214735000009,0,0,3.253,702.5214735000009,702.5214735000009,y,0.5561443000005966,,,,,,,,,,sub-044,0,750,700,3,2023-08-24_14h55.33.507,painuncertainty_calibration,2022.2.5,143.9837125658045,
2,0,2,0,2,0,2,0,,,,,2.4,30,703.1213062999996,703.1906581000003,703.1906581000003,p,0.5269892000032996,703.7250717999996,706.1284369999994,706.1284369999994,707.1449035000005,711.2878396999986,711.2878396999986,0,0,4.143,711.2878396999986,711.2878396999986,y,9.35740160000205,,,,,,,,,,sub-044,0,750,700,3,2023-08-24_14h55.33.507,painuncertainty_calibration,2022.2.5,143.9837125658045,
2,0,2,0,3,0,3,0,,,,,2.2,40,720.6878752000011,720.7619750999984,720.7619750999984,p,1.2590764000015042,722.0327666000012,724.234491700001,724.234491700001,725.2503515999997,726.9687010999987,726.9687010999987,0,0,1.719,726.9687010999987,726.9687010999987,y,17.572494899999583,,,,,,,,,,sub-044,0,750,700,3,2023-08-24_14h55.33.507,painuncertainty_calibration,2022.2.5,143.9837125658045,
2,0,2,0,4,0,4,0,,,,,2.1,50,744.5870318000016,744.6536478000016,744.6536478000016,p,1.6891658999993524,746.3554525,748.4594969999998,748.4594969999998,749.4762787,756.7711512999995,756.7711512999995,1,1,7.296,756.7711512999995,756.7711512999995,y,7.226039300003322,,,,,,,,,,sub-044,0,750,700,3,2023-08-24_14h55.33.507,painuncertainty_calibration,2022.2.5,143.9837125658045,
2,0,2,0,5,0,5,0,,,,,2.0,60,764.0407043999985,764.1143174999997,764.1143174999997,p,0.9631119000041508,765.0865669000013,767.0868711000003,767.0868711000003,768.1028661000018,771.9253940000017,771.9253940000017,2,2,3.824,771.9253940000017,771.9253940000017,y,0.9053084000006493,,,,,,,,,,sub-044,0,750,700,3,2023-08-24_14h55.33.507,painuncertainty_calibration,2022.2.5,143.9837125658045,
2,0,2,0,6,0,6,0,,,,,2.2,70,772.8662334,772.9422756999993,772.9422756999993,p,0.5591784000025655,773.5109837999989,775.7129525000018,775.7129525000018,776.7312988000012,780.4630221000007,780.4630221000007,3,3,3.733,780.4630221000007,780.4630221000007,y,0.8939043000027596,,,,,,,,,,sub-044,0,750,700,3,2023-08-24_14h55.33.507,painuncertainty_calibration,2022.2.5,143.9837125658045,
2,0,2,0,7,0,7,0,,,,,2.2,80,781.4170722000017,781.470569699999,781.470569699999,p,0.6789233000017703,782.1580461999984,784.3597664000008,784.3597664000008,785.3766605000019,790.5963109000004,790.5963109000004,7,7,5.219,790.5963109000004,790.5963109000004,y,1.0810762000000977,,,,,,,,,,sub-044,0,750,700,3,2023-08-24_14h55.33.507,painuncertainty_calibration,2022.2.5,143.9837125658045,
2,0,2,0,8,0,8,0,,,,,2.0,90,791.7125417999996,791.7913370999995,791.7913370999995,p,0.5826438000003691,792.381515000001,794.3820282000015,794.3820282000015,795.398296899999,797.9843412000009,797.9843412000009,12,12,2.587,797.9843412000009,797.9843412000009,y,1.0446885999990627,,,,,,,,,,sub-044,0,750,700,3,2023-08-24_14h55.33.507,painuncertainty_calibration,2022.2.5,143.9837125658045,
2,0,2,0,9,0,9,0,,,,,2.1,100,799.0971940000018,799.147069900002,799.147069900002,p,0.5233106000014232,799.6812763999988,801.7857862000019,801.7857862000019,802.8024823999986,806.1172986999991,806.1172986999991,16,16,3.317,806.1172986999991,806.1172986999991,y,1.192769400000543,,,,,,,,,,sub-044,0,750,700,3,2023-08-24_14h55.33.507,painuncertainty_calibration,2022.2.5,143.9837125658045,
2,0,2,0,10,0,10,0,,,,,2.2,110,807.3462212999984,807.4256405999986,807.4256405999986,p,0.651588200002152,808.0850415999994,810.2863666000012,810.2863666000012,811.3025144999992,816.0352647,816.0352647,16,16,4.734,816.0352647,816.0352647,n,2.418676700002834,,,,,,,,,,sub-044,0,750,700,3,2023-08-24_14h55.33.507,painuncertainty_calibration,2022.2.5,143.9837125658045,
2,0,2,0,,,,,,,,,,,,,,,,,,,,,,,,,,,,,,,,,,,,,,sub-044,0,750,700,3,2023-08-24_14h55.33.507,painuncertainty_calibration,2022.2.5,143.9837125658045,
,,,,,,,,0,0,0,0,3.0,96,,,,,,842.6513175,845.6516964000002,845.6516964000002,846.6683744000002,,,10,,,,,,,841.9863872999995,841.9863872999995,p,0.6515317000012146,850.8749176000019,850.8749176000019,1,10,4.153,sub-044,0,750,700,3,2023-08-24_14h55.33.507,painuncertainty_calibration,2022.2.5,143.9837125658045,
,,,,,,,,1,0,1,0,3.0,101,,,,,,851.7842812000017,854.7851463000006,854.7851463000006,855.8009472000012,,,17,,,,,,,850.8749176000019,850.8749176000019,p,0.8986283000012918,857.6670104000004,857.6670104000004,0,17,1.817,sub-044,0,750,700,3,2023-08-24_14h55.33.507,painuncertainty_calibration,2022.2.5,143.9837125658045,
,,,,,,,,2,0,2,0,3.0,55,,,,,,858.9800805999985,861.9800940999994,861.9800940999994,862.9981813000013,,,0,,,,,,,857.6670104000004,857.6670104000004,p,1.2998184999996738,869.4162656000008,869.4162656000008,1,0,6.365,sub-044,0,750,700,3,2023-08-24_14h55.33.507,painuncertainty_calibration,2022.2.5,143.9837125658045,
,,,,,,,,3,0,3,0,3.0,82,,,,,,870.1268444000016,873.1275004000017,873.1275004000017,874.1426955999996,,,2,,,,,,,869.4162656000008,869.4162656000008,p,0.7024296000017785,876.5916830999995,876.5916830999995,1,2,2.421,sub-044,0,750,700,3,2023-08-24_14h55.33.507,painuncertainty_calibration,2022.2.5,143.9837125658045,
,,,,,,,,4,0,4,0,3.0,87,,,,,,877.3776409999991,880.378476599999,880.378476599999,881.3952113000014,,,6,,,,,,,876.5916830999995,876.5916830999995,p,0.7741761000033875,886.8881681999992,886.8881681999992,1,6,5.448,sub-044,0,750,700,3,2023-08-24_14h55.33.507,painuncertainty_calibration,2022.2.5,143.9837125658045,
,,,,,,,,5,0,5,0,3.0,68,,,,,,887.8167293000006,890.8167978999991,890.8167978999991,891.8330064000002,,,3,,,,,,,886.8881681999992,886.8881681999992,p,0.9174051000009058,893.5850073000001,893.5850073000001,1,3,1.699,sub-044,0,750,700,3,2023-08-24_14h55.33.507,painuncertainty_calibration,2022.2.5,143.9837125658045,
,,,,,,,,6,0,6,0,3.0,110,,,,,,894.4215027999999,897.4223921000012,897.4223921000012,898.4380272000017,,,12,,,,,,,893.5850073000001,893.5850073000001,p,0.8290482000011252,902.6181534999996,902.6181534999996,1,12,4.122,sub-044,0,750,700,3,2023-08-24_14h55.33.507,painuncertainty_calibration,2022.2.5,143.9837125658045,
,,,,,,,,7,0,7,0,3.0,64,,,,,,903.5963819999997,906.5968341000007,906.5968341000007,907.613006399999,,,5,,,,,,,902.6181534999996,902.6181534999996,p,0.9711734000011347,912.5429938000016,912.5429938000016,1,5,4.885,sub-044,0,750,700,3,2023-08-24_14h55.33.507,painuncertainty_calibration,2022.2.5,143.9837125658045,
,,,,,,,,8,0,8,0,3.0,105,,,,,,913.4659909000002,916.4664937000016,916.4664937000016,917.4822362000014,,,10,,,,,,,912.5429938000016,912.5429938000016,p,0.9103143000029377,921.1760304000018,921.1760304000018,1,10,3.651,sub-044,0,750,700,3,2023-08-24_14h55.33.507,painuncertainty_calibration,2022.2.5,143.9837125658045,
,,,,,,,,9,0,9,0,3.0,73,,,,,,922.077526000001,925.0778797999992,925.0778797999992,926.0936145999985,,,4,,,,,,,921.1760304000018,921.1760304000018,p,0.8928406000013638,930.7016889000006,930.7016889000006,1,4,4.567,sub-044,0,750,700,3,2023-08-24_14h55.33.507,painuncertainty_calibration,2022.2.5,143.9837125658045,
,,,,,,,,10,0,10,0,3.0,50,,,,,,931.4743942999994,934.4749898000009,934.4749898000009,935.4953435999996,,,0,,,,,,,930.7016889000006,930.7016889000006,p,0.759403400003066,936.3158666000018,936.3158666000018,0,0,0.772,sub-044,0,750,700,3,2023-08-24_14h55.33.507,painuncertainty_calibration,2022.2.5,143.9837125658045,
,,,,,,,,11,0,11,0,3.0,78,,,,,,937.3431530999987,940.3439625999999,940.3439625999999,941.3599983999993,,,4,,,,,,,936.3158666000018,936.3158666000018,p,1.0183097000008274,944.6907557999984,944.6907557999984,1,4,3.281,sub-044,0,750,700,3,2023-08-24_14h55.33.507,painuncertainty_calibration,2022.2.5,143.9837125658045,
,,,,,,,,12,0,12,0,3.0,59,,,,,,945.6982166000016,948.6985105999993,948.6985105999993,949.7154744,,,0,,,,,,,944.6907557999984,944.6907557999984,p,0.9947371000016574,952.955961300002,952.955961300002,1,0,3.193,sub-044,0,750,700,3,2023-08-24_14h55.33.507,painuncertainty_calibration,2022.2.5,143.9837125658045,
,,,,,,,,13,0,13,0,3.0,92,,,,,,954.0810945999983,957.0816481000002,957.0816481000002,958.0990186000017,,,5,,,,,,,952.955961300002,952.955961300002,p,1.1138754000021436,960.5882979000016,960.5882979000016,1,5,2.49,sub-044,0,750,700,3,2023-08-24_14h55.33.507,painuncertainty_calibration,2022.2.5,143.9837125658045,
