cue_,stimulus_,cue_fichier,stimulus_fichier,block_name,block_trials_file,block_n_reps,block_ntrials,block_prob_highP_highT,block_prob_highP_lowT,block_pause_after,Bloc_essai.thisRepN,Bloc_essai.thisTrialN,Bloc_essai.thisN,Bloc_essai.thisIndex,blocks.thisRepN,blocks.thisTrialN,blocks.thisN,blocks.thisIndex,trials.thisRepN,trials.thisTrialN,trials.thisN,trials.thisIndex,pause_loop.thisRepN,pause_loop.thisTrialN,pause_loop.thisN,pause_loop.thisIndex,key_resp_5.started,start_calib.started,key_resp_2.started,ISI_duration,pause.started,pause.stopped,cue.started,ISI.started,choice_pain.started,Choice.started,choice_pain.keys,choice_pain.rt,main_text.started,confirm_text.started,ratingScale.response,ratingScale.rt,key_resp_3.started,key_resp_6.started,choice_pain.stopped,Choice.stopped,participant,low_ma,high_ma,failsafe_ma,block_file,date,expName,psychopyVersion,frameRate,
aigu,moderee,stimuli/660Hz,stimuli/moderee,,,,,,,,0,0,0,2,,,,,,,,,,,,,29.44026010000016,31.75335880000057,33.51770890000262,3.9,37.13110070000039,41.03464670000176,41.040260020001,0.30181509999965783,41.47841590000098,41.47841590000098,n,1.4880583999984083,44.943965900001785,44.943965900001785,3,1.884,,,,,sub-044,75,110,700,bloc_loop.csv,2023-08-24_15h23.12.081,PainUncertainty,2022.2.5,142.95435182165255,
grave,forte,stimuli/330Hz,stimuli/forte,,,,,,,,0,1,1,1,,,,,,,,,,,,,,,,3.9,44.943965900001785,48.84595510000145,48.84599471000256,0.29905739999958314,49.287963599999784,49.287963599999784,m,1.1395185999972455,53.926275000001624,53.926275000001624,5,3.441,,,,,sub-044,75,110,700,bloc_loop.csv,2023-08-24_15h23.12.081,PainUncertainty,2022.2.5,142.95435182165255,
aigu,forte,stimuli/660Hz,stimuli/forte,,,,,,,,0,2,2,3,,,,,,,,,,,,,,,,4.5,53.926275000001624,58.43040020000262,58.43038611000229,0.305664199997409,58.87943649999943,58.87943649999943,m,0.8951638999969873,63.4396192000022,63.4396192000022,4,3.588,,,,,sub-044,75,110,700,bloc_loop.csv,2023-08-24_15h23.12.081,PainUncertainty,2022.2.5,142.95435182165255,
grave,moderee,stimuli/330Hz,stimuli/moderee,,,,,,,,0,3,3,0,,,,,,,,,,,,,,,,3.6,63.4396192000022,67.0433653,67.04299521000284,0.2994144999975106,67.4856600000021,67.4856600000021,n,0.806013499997789,69.79262870000093,69.79262870000093,2,1.476,,,,,sub-044,75,110,700,bloc_loop.csv,2023-08-24_15h23.12.081,PainUncertainty,2022.2.5,142.95435182165255,
grave,moderee,stimuli/330Hz,stimuli/moderee,bloc_1,prob20hthp_12trials.xlsx,4,48,20,80,0,,,,,0,0,0,0,0,0,0,5,,,,,,,,3.3,98.04682850000245,101.3455606000025,101.34595761000018,0.3046589000005042,101.78967159999956,101.78967159999956,n,1.1690980999992462,105.54264800000237,105.54264800000237,3,2.508,,,,,sub-044,75,110,700,bloc_loop.csv,2023-08-24_15h23.12.081,PainUncertainty,2022.2.5,142.95435182165255,
grave,forte,stimuli/330Hz,stimuli/forte,bloc_1,prob20hthp_12trials.xlsx,4,48,20,80,0,,,,,0,0,0,0,0,1,1,1,,,,,,,,4.9,105.54264800000237,110.44396840000263,110.44408490999994,0.30030249999981606,110.88832750000074,110.88832750000074,m,1.6324279999971623,116.17387040000176,116.17387040000176,2,3.572,,,,,sub-044,75,110,700,bloc_loop.csv,2023-08-24_15h23.12.081,PainUncertainty,2022.2.5,142.95435182165255,
aigu,moderee,stimuli/660Hz,stimuli/moderee,bloc_1,prob20hthp_12trials.xlsx,4,48,20,80,0,,,,,0,0,0,0,0,2,2,9,,,,,,,,4.6,116.17387040000176,120.77875320000021,120.77921590999976,0.30485050000061165,121.2273537000001,121.2273537000001,n,0.7675559999952384,125.7169971000003,125.7169971000003,1,3.634,,,,,sub-044,75,110,700,bloc_loop.csv,2023-08-24_15h23.12.081,PainUncertainty,2022.2.5,142.95435182165255,
grave,forte,stimuli/330Hz,stimuli/forte,bloc_1,prob20hthp_12trials.xlsx,4,48,20,80,0,,,,,0,0,0,0,0,3,3,0,,,,,,,,4.8,125.7169971000003,130.51607060000242,130.5161442100005,0.30527230000006966,130.96403980000105,130.96403980000105,m,0.913281699999061,134.8433401000002,134.8433401000002,4,2.879,,,,,sub-044,75,110,700,bloc_loop.csv,2023-08-24_15h23.12.081,PainUncertainty,2022.2.5,142.95435182165255,
aigu,moderee,stimuli/660Hz,stimuli/moderee,bloc_1,prob20hthp_12trials.xlsx,4,48,20,80,0,,,,,0,0,0,0,0,4,4,10,,,,,,,,3.4,134.8433401000002,138.24574209999992,138.24582621000155,0.30521690000023227,138.68996400000105,138.68996400000105,n,1.2867569999980333,142.54662980000285,142.54662980000285,2,2.504,,,,,sub-044,75,110,700,bloc_loop.csv,2023-08-24_15h23.12.081,PainUncertainty,2022.2.5,142.95435182165255,
aigu,moderee,stimuli/660Hz,stimuli/moderee,bloc_1,prob20hthp_12trials.xlsx,4,48,20,80,0,,,,,0,0,0,0,0,5,5,7,,,,,,,,4,142.54662980000285,146.55259280000246,146.55242471000093,0.30030450000049314,146.9975712000014,146.9975712000014,n,0.7663376999953471,149.61442050000187,149.61442050000187,4,1.781,,,,,sub-044,75,110,700,bloc_loop.csv,2023-08-24_15h23.12.081,PainUncertainty,2022.2.5,142.95435182165255,
aigu,moderee,stimuli/660Hz,stimuli/moderee,bloc_1,prob20hthp_12trials.xlsx,4,48,20,80,0,,,,,0,0,0,0,0,6,6,8,,,,,,,,3.9,149.61442050000187,153.5187681000025,153.51899311000017,0.30476999999882537,153.96281880000242,153.96281880000242,n,0.68660109999837,155.49578200000178,155.49578200000178,53,0.775,,,,,sub-044,75,110,700,bloc_loop.csv,2023-08-24_15h23.12.081,PainUncertainty,2022.2.5,142.95435182165255,
grave,forte,stimuli/330Hz,stimuli/forte,bloc_1,prob20hthp_12trials.xlsx,4,48,20,80,0,,,,,0,0,0,0,0,7,7,2,,,,,,,,4.6,155.49578200000178,160.09567750000133,160.0956742100032,0.3050954999998794,160.5398466000006,160.5398466000006,m,1.400985899996158,164.23825390000275,164.23825390000275,7,2.234,,,,,sub-044,75,110,700,bloc_loop.csv,2023-08-24_15h23.12.081,PainUncertainty,2022.2.5,142.95435182165255,
grave,forte,stimuli/330Hz,stimuli/forte,bloc_1,prob20hthp_12trials.xlsx,4,48,20,80,0,,,,,0,0,0,0,0,8,8,4,,,,,,,,3.8,164.23825390000275,168.04160650000267,168.04173451000025,0.30486999999993714,168.48619540000072,168.48619540000072,m,0.6367472999991151,171.88023290000274,171.88023290000274,9,2.698,,,,,sub-044,75,110,700,bloc_loop.csv,2023-08-24_15h23.12.081,PainUncertainty,2022.2.5,142.95435182165255,
grave,forte,stimuli/330Hz,stimuli/forte,bloc_1,prob20hthp_12trials.xlsx,4,48,20,80,0,,,,,0,0,0,0,0,9,9,3,,,,,,,,4.8,171.88023290000274,176.6811168000022,176.68119041000028,0.3050394999991113,177.12519109999994,177.12519109999994,m,0.718630999996094,179.48886010000206,179.48886010000206,14,1.58,,,,,sub-044,75,110,700,bloc_loop.csv,2023-08-24_15h23.12.081,PainUncertainty,2022.2.5,142.95435182165255,
aigu,forte,stimuli/660Hz,stimuli/forte,bloc_1,prob20hthp_12trials.xlsx,4,48,20,80,0,,,,,0,0,0,0,0,10,10,11,,,,,,,,4.3,179.48886010000206,183.79341639999984,183.79339341000087,0.3047742999988259,184.23724610000136,184.23724610000136,m,1.4677946999981941,187.1448010000022,187.1448010000022,11,1.37,,,,,sub-044,75,110,700,bloc_loop.csv,2023-08-24_15h23.12.081,PainUncertainty,2022.2.5,142.95435182165255,
aigu,moderee,stimuli/660Hz,stimuli/moderee,bloc_1,prob20hthp_12trials.xlsx,4,48,20,80,0,,,,,0,0,0,0,0,11,11,6,,,,,,,,3.6,187.1448010000022,190.74564380000083,190.74557031000296,0.3003576000010071,191.18977180000002,191.18977180000002,n,0.6130397999986599,193.2358236,193.2358236,3,1.378,,,,,sub-044,75,110,700,bloc_loop.csv,2023-08-24_15h23.12.081,PainUncertainty,2022.2.5,142.95435182165255,
grave,moderee,stimuli/330Hz,stimuli/moderee,bloc_1,prob20hthp_12trials.xlsx,4,48,20,80,0,,,,,0,0,0,0,1,0,12,5,,,,,,,,4.7,193.2358236,197.94059790000028,197.94086691000194,0.3048503999998502,198.38483890000134,198.38483890000134,n,0.8965103999980784,201.25918120000279,201.25918120000279,4,1.928,,,,,sub-044,75,110,700,bloc_loop.csv,2023-08-24_15h23.12.081,PainUncertainty,2022.2.5,142.95435182165255,
aigu,moderee,stimuli/660Hz,stimuli/moderee,bloc_1,prob20hthp_12trials.xlsx,4,48,20,80,0,,,,,0,0,0,0,1,1,13,6,,,,,,,,3.9,201.25918120000279,205.16618940000262,205.16414831000003,0.3003802999992331,205.60824920000232,205.60824920000232,n,0.6611058999988018,208.27828330000193,208.27828330000193,4,1.934,,,,,sub-044,75,110,700,bloc_loop.csv,2023-08-24_15h23.12.081,PainUncertainty,2022.2.5,142.95435182165255,
grave,forte,stimuli/330Hz,stimuli/forte,bloc_1,prob20hthp_12trials.xlsx,4,48,20,80,0,,,,,0,0,0,0,1,2,14,1,,,,,,,,4.3,208.27828330000193,212.58125360000122,212.581296510002,0.30506529999911436,213.02542259999973,213.02542259999973,m,1.0923210000000836,215.03883400000268,215.03883400000268,10,0.844,,,,,sub-044,75,110,700,bloc_loop.csv,2023-08-24_15h23.12.081,PainUncertainty,2022.2.5,142.95435182165255,
aigu,moderee,stimuli/660Hz,stimuli/moderee,bloc_1,prob20hthp_12trials.xlsx,4,48,20,80,0,,,,,0,0,0,0,1,3,15,10,,,,,,,,4.8,215.03883400000268,219.8397877000025,219.83933021000195,0.3050106999980926,220.28340770000068,220.28340770000068,n,0.5058461999979045,223.23869520000153,223.23869520000153,3,2.397,,,,,sub-044,75,110,700,bloc_loop.csv,2023-08-24_15h23.12.081,PainUncertainty,2022.2.5,142.95435182165255,
aigu,moderee,stimuli/660Hz,stimuli/moderee,bloc_1,prob20hthp_12trials.xlsx,4,48,20,80,0,,,,,0,0,0,0,1,4,16,8,,,,,,,,4.5,223.23869520000153,227.74291920000178,227.74300581000062,0.30488770000010845,228.18737859999965,228.18737859999965,n,0.44670729999779724,231.47309080000196,231.47309080000196,2,2.768,,,,,sub-044,75,110,700,bloc_loop.csv,2023-08-24_15h23.12.081,PainUncertainty,2022.2.5,142.95435182165255,
grave,forte,stimuli/330Hz,stimuli/forte,bloc_1,prob20hthp_12trials.xlsx,4,48,20,80,0,,,,,0,0,0,0,1,5,17,2,,,,,,,,4.1,231.47309080000196,235.57755380000162,235.57767451000183,0.30509430000165594,236.0264711000018,236.0264711000018,m,0.6595197999995435,238.96833980000156,238.96833980000156,13,2.218,,,,,sub-044,75,110,700,bloc_loop.csv,2023-08-24_15h23.12.081,PainUncertainty,2022.2.5,142.95435182165255,
grave,forte,stimuli/330Hz,stimuli/forte,bloc_1,prob20hthp_12trials.xlsx,4,48,20,80,0,,,,,0,0,0,0,1,6,18,0,,,,,,,,4.2,238.96833980000156,243.16829640000287,243.16838721000096,0.3051380999968387,243.61703670000134,243.61703670000134,m,0.6421902999973099,247.16841390000263,247.16841390000263,11,2.851,,,,,sub-044,75,110,700,bloc_loop.csv,2023-08-24_15h23.12.081,PainUncertainty,2022.2.5,142.95435182165255,
grave,forte,stimuli/330Hz,stimuli/forte,bloc_1,prob20hthp_12trials.xlsx,4,48,20,80,0,,,,,0,0,0,0,1,7,19,4,,,,,,,,4.5,247.16841390000263,251.66946000000098,251.66938370999998,0.30516930000158027,252.11359520000042,252.11359520000042,m,0.620842399996036,255.11235080000188,255.11235080000188,13,2.3,,,,,sub-044,75,110,700,bloc_loop.csv,2023-08-24_15h23.12.081,PainUncertainty,2022.2.5,142.95435182165255,
aigu,moderee,stimuli/660Hz,stimuli/moderee,bloc_1,prob20hthp_12trials.xlsx,4,48,20,80,0,,,,,0,0,0,0,1,8,20,7,,,,,,,,4.5,255.11235080000188,259.61474100000123,259.6149088099999,0.30507999999827007,260.0638609000016,260.0638609000016,n,0.7365174999977171,263.5698130000019,263.5698130000019,3,2.698,,,,,sub-044,75,110,700,bloc_loop.csv,2023-08-24_15h23.12.081,PainUncertainty,2022.2.5,142.95435182165255,
aigu,forte,stimuli/660Hz,stimuli/forte,bloc_1,prob20hthp_12trials.xlsx,4,48,20,80,0,,,,,0,0,0,0,1,9,21,11,,,,,,,,4.5,263.5698130000019,268.07437779999964,268.07474841000004,0.304417100000137,268.52295850000155,268.52295850000155,m,1.0350775999977486,272.5207173000017,272.5207173000017,14,2.893,,,,,sub-044,75,110,700,bloc_loop.csv,2023-08-24_15h23.12.081,PainUncertainty,2022.2.5,142.95435182165255,
aigu,moderee,stimuli/660Hz,stimuli/moderee,bloc_1,prob20hthp_12trials.xlsx,4,48,20,80,0,,,,,0,0,0,0,1,10,22,9,,,,,,,,3,272.5207173000017,275.5263734,275.52658141000285,0.3054437999999209,275.9751840000026,275.9751840000026,n,0.527628799998638,278.38726600000155,278.38726600000155,2,1.816,,,,,sub-044,75,110,700,bloc_loop.csv,2023-08-24_15h23.12.081,PainUncertainty,2022.2.5,142.95435182165255,
grave,forte,stimuli/330Hz,stimuli/forte,bloc_1,prob20hthp_12trials.xlsx,4,48,20,80,0,,,,,0,0,0,0,1,11,23,3,,,,,,,,4.9,278.38726600000155,283.2915396999997,283.2915254100015,0.30085329999928945,283.73562500000116,283.73562500000116,m,0.6912286999977368,286.0946638000023,286.0946638000023,15,1.593,,,,,sub-044,75,110,700,bloc_loop.csv,2023-08-24_15h23.12.081,PainUncertainty,2022.2.5,142.95435182165255,
aigu,moderee,stimuli/660Hz,stimuli/moderee,bloc_1,prob20hthp_12trials.xlsx,4,48,20,80,0,,,,,0,0,0,0,2,0,24,7,,,,,,,,4.9,286.0946638000023,290.99399710000216,290.994108210002,0.30111930000202847,291.43797910000285,291.43797910000285,n,0.5033874000000651,294.35892610000155,294.35892610000155,3,2.337,,,,,sub-044,75,110,700,bloc_loop.csv,2023-08-24_15h23.12.081,PainUncertainty,2022.2.5,142.95435182165255,
grave,forte,stimuli/330Hz,stimuli/forte,bloc_1,prob20hthp_12trials.xlsx,4,48,20,80,0,,,,,0,0,0,0,2,1,25,2,,,,,,,,5,294.35892610000155,299.3629667000023,299.36278131,0.30487120000179857,299.80682920000254,299.80682920000254,m,0.5954944999975851,303.7895282999998,303.7895282999998,12,3.312,,,,,sub-044,75,110,700,bloc_loop.csv,2023-08-24_15h23.12.081,PainUncertainty,2022.2.5,142.95435182165255,
aigu,moderee,stimuli/660Hz,stimuli/moderee,bloc_1,prob20hthp_12trials.xlsx,4,48,20,80,0,,,,,0,0,0,0,2,2,26,10,,,,,,,,4.9,303.7895282999998,308.6905334000003,308.690485310003,0.3053311000003305,309.1343701000005,309.1343701000005,n,0.43712939999750233,312.8690862000003,312.8690862000003,1,3.227,,,,,sub-044,75,110,700,bloc_loop.csv,2023-08-24_15h23.12.081,PainUncertainty,2022.2.5,142.95435182165255,
aigu,forte,stimuli/660Hz,stimuli/forte,bloc_1,prob20hthp_12trials.xlsx,4,48,20,80,0,,,,,0,0,0,0,2,3,27,11,,,,,,,,3.3,312.8690862000003,316.1703097000027,316.17034251000297,0.30554399999891757,316.6189176000007,316.6189176000007,m,0.7461292999978468,319.373951900001,319.373951900001,16,1.935,,,,,sub-044,75,110,700,bloc_loop.csv,2023-08-24_15h23.12.081,PainUncertainty,2022.2.5,142.95435182165255,
grave,moderee,stimuli/330Hz,stimuli/moderee,bloc_1,prob20hthp_12trials.xlsx,4,48,20,80,0,,,,,0,0,0,0,2,4,28,5,,,,,,,,4.6,319.373951900001,323.97745550000036,323.97722461000086,0.30543970000144327,324.42470120000144,324.42470120000144,n,0.6987635999976192,328.83492730000216,328.83492730000216,2,3.663,,,,,sub-044,75,110,700,bloc_loop.csv,2023-08-24_15h23.12.081,PainUncertainty,2022.2.5,142.95435182165255,
aigu,moderee,stimuli/660Hz,stimuli/moderee,bloc_1,prob20hthp_12trials.xlsx,4,48,20,80,0,,,,,0,0,0,0,2,5,29,9,,,,,,,,4.8,328.83492730000216,333.63761590000286,333.63765741000026,0.3051134999986971,334.08191029999944,334.08191029999944,n,0.7137651999983063,336.95752970000103,336.95752970000103,4,2.087,,,,,sub-044,75,110,700,bloc_loop.csv,2023-08-24_15h23.12.081,PainUncertainty,2022.2.5,142.95435182165255,
grave,forte,stimuli/330Hz,stimuli/forte,bloc_1,prob20hthp_12trials.xlsx,4,48,20,80,0,,,,,0,0,0,0,2,6,30,4,,,,,,,,4.2,336.95752970000103,341.1595673000011,341.1596800100022,0.3048437000034028,341.6073447000017,341.6073447000017,m,0.829078999999183,345.50964810000005,345.50964810000005,14,3.004,,,,,sub-044,75,110,700,bloc_loop.csv,2023-08-24_15h23.12.081,PainUncertainty,2022.2.5,142.95435182165255,
aigu,moderee,stimuli/660Hz,stimuli/moderee,bloc_1,prob20hthp_12trials.xlsx,4,48,20,80,0,,,,,0,0,0,0,2,7,31,6,,,,,,,,3.8,345.50964810000005,349.3132521000007,349.3133562100018,0.30487319999883766,349.75746680000157,349.75746680000157,n,0.8346595999973943,353.22913809999955,353.22913809999955,3,2.566,,,,,sub-044,75,110,700,bloc_loop.csv,2023-08-24_15h23.12.081,PainUncertainty,2022.2.5,142.95435182165255,
grave,forte,stimuli/330Hz,stimuli/forte,bloc_1,prob20hthp_12trials.xlsx,4,48,20,80,0,,,,,0,0,0,0,2,8,32,1,,,,,,,,4.4,353.22913809999955,357.6337414000009,357.63384621000006,0.3004438999996637,358.0786829000026,358.0786829000026,m,0.6205886999996437,361.76584450000155,361.76584450000155,13,2.991,,,,,sub-044,75,110,700,bloc_loop.csv,2023-08-24_15h23.12.081,PainUncertainty,2022.2.5,142.95435182165255,
aigu,moderee,stimuli/660Hz,stimuli/moderee,bloc_1,prob20hthp_12trials.xlsx,4,48,20,80,0,,,,,0,0,0,0,2,9,33,8,,,,,,,,4.7,361.76584450000155,366.4687808000017,366.4687996100009,0.3050068000011379,366.9175114000027,366.9175114000027,n,0.9554145999973116,370.396840100002,370.396840100002,3,2.448,,,,,sub-044,75,110,700,bloc_loop.csv,2023-08-24_15h23.12.081,PainUncertainty,2022.2.5,142.95435182165255,
grave,forte,stimuli/330Hz,stimuli/forte,bloc_1,prob20hthp_12trials.xlsx,4,48,20,80,0,,,,,0,0,0,0,2,10,34,0,,,,,,,,3.2,370.396840100002,373.6011520000029,373.6010196100004,0.3054933000021265,374.0473015000025,374.0473015000025,m,0.761691299998347,377.15924480000103,377.15924480000103,13,2.297,,,,,sub-044,75,110,700,bloc_loop.csv,2023-08-24_15h23.12.081,PainUncertainty,2022.2.5,142.95435182165255,
grave,forte,stimuli/330Hz,stimuli/forte,bloc_1,prob20hthp_12trials.xlsx,4,48,20,80,0,,,,,0,0,0,0,2,11,35,3,,,,,,,,3.6,377.15924480000103,380.7615184000024,380.7615610100009,0.3053464000004169,381.2096210000018,381.2096210000018,m,1.198123599999235,384.51096450000114,384.51096450000114,13,2.052,,,,,sub-044,75,110,700,bloc_loop.csv,2023-08-24_15h23.12.081,PainUncertainty,2022.2.5,142.95435182165255,
aigu,forte,stimuli/660Hz,stimuli/forte,bloc_1,prob20hthp_12trials.xlsx,4,48,20,80,0,,,,,0,0,0,0,3,0,36,11,,,,,,,,4.6,384.51096450000114,389.11663430000044,389.11664791000004,0.3051540999986173,389.560846700002,389.560846700002,m,0.9863861999983783,393.3206342000012,393.3206342000012,16,2.699,,,,,sub-044,75,110,700,bloc_loop.csv,2023-08-24_15h23.12.081,PainUncertainty,2022.2.5,142.95435182165255,
aigu,moderee,stimuli/660Hz,stimuli/moderee,bloc_1,prob20hthp_12trials.xlsx,4,48,20,80,0,,,,,0,0,0,0,3,1,37,6,,,,,,,,4.6,393.3206342000012,397.9233052000018,397.9232336100002,0.3050117999991926,398.36750179999945,398.36750179999945,n,0.6981568999981391,402.3665723000013,402.3665723000013,3,3.23,,,,,sub-044,75,110,700,bloc_loop.csv,2023-08-24_15h23.12.081,PainUncertainty,2022.2.5,142.95435182165255,
grave,forte,stimuli/330Hz,stimuli/forte,bloc_1,prob20hthp_12trials.xlsx,4,48,20,80,0,,,,,0,0,0,0,3,2,38,3,,,,,,,,4.9,402.3665723000013,407.26500680000026,407.2667765100021,0.29934850000063307,407.709212400001,407.709212400001,m,0.5818498999979056,411.7525521000025,411.7525521000025,14,3.379,,,,,sub-044,75,110,700,bloc_loop.csv,2023-08-24_15h23.12.081,PainUncertainty,2022.2.5,142.95435182165255,
aigu,moderee,stimuli/660Hz,stimuli/moderee,bloc_1,prob20hthp_12trials.xlsx,4,48,20,80,0,,,,,0,0,0,0,3,3,39,7,,,,,,,,3.2,411.7525521000025,414.9531422,414.9531279100018,0.30173350000040955,415.3983679000012,415.3983679000012,n,0.9127782999967167,419.6325176999999,419.6325176999999,2,3.254,,,,,sub-044,75,110,700,bloc_loop.csv,2023-08-24_15h23.12.081,PainUncertainty,2022.2.5,142.95435182165255,
aigu,moderee,stimuli/660Hz,stimuli/moderee,bloc_1,prob20hthp_12trials.xlsx,4,48,20,80,0,,,,,0,0,0,0,3,4,40,8,,,,,,,,3.5,419.6325176999999,423.1348524999994,423.13480561000034,0.30497529999774997,423.5790699999998,423.5790699999998,n,0.6569767000000866,427.2095407000015,427.2095407000015,1,2.9,,,,,sub-044,75,110,700,bloc_loop.csv,2023-08-24_15h23.12.081,PainUncertainty,2022.2.5,142.95435182165255,
grave,forte,stimuli/330Hz,stimuli/forte,bloc_1,prob20hthp_12trials.xlsx,4,48,20,80,0,,,,,0,0,0,0,3,5,41,2,,,,,,,,3.2,427.2095407000015,430.4134567000001,430.4134559100028,0.3050598000008904,430.8579647000006,430.8579647000006,m,0.6181131000012101,433.37777339999957,433.37777339999957,15,1.851,,,,,sub-044,75,110,700,bloc_loop.csv,2023-08-24_15h23.12.081,PainUncertainty,2022.2.5,142.95435182165255,
grave,forte,stimuli/330Hz,stimuli/forte,bloc_1,prob20hthp_12trials.xlsx,4,48,20,80,0,,,,,0,0,0,0,3,6,42,1,,,,,,,,3.8,433.37777339999957,437.1782822000023,437.17822211000095,0.3053147999999055,437.62619730000006,437.62619730000006,m,0.7458761999951093,439.53220820000206,439.53220820000206,16,1.107,,,,,sub-044,75,110,700,bloc_loop.csv,2023-08-24_15h23.12.081,PainUncertainty,2022.2.5,142.95435182165255,
grave,forte,stimuli/330Hz,stimuli/forte,bloc_1,prob20hthp_12trials.xlsx,4,48,20,80,0,,,,,0,0,0,0,3,7,43,4,,,,,,,,3.8,439.53220820000206,443.3315952000012,443.3316210100027,0.30524270000023535,443.7757782000008,443.7757782000008,m,0.9517487999983132,448.21467680000205,448.21467680000205,16,3.407,,,,,sub-044,75,110,700,bloc_loop.csv,2023-08-24_15h23.12.081,PainUncertainty,2022.2.5,142.95435182165255,
aigu,moderee,stimuli/660Hz,stimuli/moderee,bloc_1,prob20hthp_12trials.xlsx,4,48,20,80,0,,,,,0,0,0,0,3,8,44,10,,,,,,,,3.5,448.21467680000205,451.71505830000024,451.7150503100027,0.3046911999990698,452.15896369999973,452.15896369999973,n,0.6056821999991371,454.91010870000173,454.91010870000173,4,2.08,,,,,sub-044,75,110,700,bloc_loop.csv,2023-08-24_15h23.12.081,PainUncertainty,2022.2.5,142.95435182165255,
grave,moderee,stimuli/330Hz,stimuli/moderee,bloc_1,prob20hthp_12trials.xlsx,4,48,20,80,0,,,,,0,0,0,0,3,9,45,5,,,,,,,,4.5,454.91010870000173,459.41069340000104,459.41068331000207,0.3050288999984332,459.85873770000035,459.85873770000035,n,0.6626691999990726,461.7194636000022,461.7194636000022,4,1.143,,,,,sub-044,75,110,700,bloc_loop.csv,2023-08-24_15h23.12.081,PainUncertainty,2022.2.5,142.95435182165255,
aigu,moderee,stimuli/660Hz,stimuli/moderee,bloc_1,prob20hthp_12trials.xlsx,4,48,20,80,0,,,,,0,0,0,0,3,10,46,9,,,,,,,,5,461.7194636000022,466.72340030000123,466.7233596100021,0.30517479999980424,467.1679312000015,467.1679312000015,n,0.614291999998386,468.8844074000008,468.8844074000008,4,1.018,,,,,sub-044,75,110,700,bloc_loop.csv,2023-08-24_15h23.12.081,PainUncertainty,2022.2.5,142.95435182165255,
grave,forte,stimuli/330Hz,stimuli/forte,bloc_1,prob20hthp_12trials.xlsx,4,48,20,80,0,,,,,0,0,0,0,3,11,47,0,,,,,,,,3.3,468.8844074000008,472.18940360000124,472.18955981000255,0.30506310000055237,472.63623970000117,472.63623970000117,m,0.6096405999996932,475.16386890000285,475.16386890000285,16,1.844,,,,,sub-044,75,110,700,bloc_loop.csv,2023-08-24_15h23.12.081,PainUncertainty,2022.2.5,142.95435182165255,
aigu,moderee,stimuli/660Hz,stimuli/moderee,bloc_2,prob50_50_4trials.xlsx,2,8,50,50,1,,,,,0,1,1,1,0,0,0,2,,,,,,,,3.8,475.16386890000285,478.9683374000015,478.96956111000037,0.3041033999979845,479.4171926000017,479.4171926000017,n,0.6321810999979789,481.99109560000215,481.99109560000215,3,1.879,,,,,sub-044,75,110,700,bloc_loop.csv,2023-08-24_15h23.12.081,PainUncertainty,2022.2.5,142.95435182165255,
grave,moderee,stimuli/330Hz,stimuli/moderee,bloc_2,prob50_50_4trials.xlsx,2,8,50,50,1,,,,,0,1,1,1,0,1,1,0,,,,,,,,4.1,481.99109560000215,486.09387849999985,486.0939871100025,0.30497269999978016,486.5386436000008,486.5386436000008,n,0.8781394999969052,488.39972580000176,488.39972580000176,2,0.914,,,,,sub-044,75,110,700,bloc_loop.csv,2023-08-24_15h23.12.081,PainUncertainty,2022.2.5,142.95435182165255,
aigu,forte,stimuli/660Hz,stimuli/forte,bloc_2,prob50_50_4trials.xlsx,2,8,50,50,1,,,,,0,1,1,1,0,2,2,3,,,,,,,,3,488.39972580000176,491.400268100002,491.4002750100015,0.3052118999985396,491.8477167000019,491.8477167000019,m,0.8401110999948287,495.5279765000014,495.5279765000014,16,2.788,,,,,sub-044,75,110,700,bloc_loop.csv,2023-08-24_15h23.12.081,PainUncertainty,2022.2.5,142.95435182165255,
grave,forte,stimuli/330Hz,stimuli/forte,bloc_2,prob50_50_4trials.xlsx,2,8,50,50,1,,,,,0,1,1,1,0,3,3,1,,,,,,,,4,495.5279765000014,499.5328640000007,499.53307041000227,0.30500319999919157,499.97713440000007,499.97713440000007,m,0.6540191999956733,501.5705803000019,501.5705803000019,20,0.886,,,,,sub-044,75,110,700,bloc_loop.csv,2023-08-24_15h23.12.081,PainUncertainty,2022.2.5,142.95435182165255,
aigu,forte,stimuli/660Hz,stimuli/forte,bloc_2,prob50_50_4trials.xlsx,2,8,50,50,1,,,,,0,1,1,1,1,0,4,3,,,,,,,,4,501.5705803000019,505.5752345000001,505.5754016100007,0.3008097000019916,506.0217470000025,506.0217470000025,m,0.5442206999978225,509.85245399999985,509.85245399999985,17,3.205,,,,,sub-044,75,110,700,bloc_loop.csv,2023-08-24_15h23.12.081,PainUncertainty,2022.2.5,142.95435182165255,
grave,moderee,stimuli/330Hz,stimuli/moderee,bloc_2,prob50_50_4trials.xlsx,2,8,50,50,1,,,,,0,1,1,1,1,1,5,0,,,,,,,,3.9,509.85245399999985,513.7572620000028,513.7572552099998,0.3052843000004941,514.2051122000012,514.2051122000012,n,0.6677847999962978,517.5396585000017,517.5396585000017,3,2.615,,,,,sub-044,75,110,700,bloc_loop.csv,2023-08-24_15h23.12.081,PainUncertainty,2022.2.5,142.95435182165255,
aigu,moderee,stimuli/660Hz,stimuli/moderee,bloc_2,prob50_50_4trials.xlsx,2,8,50,50,1,,,,,0,1,1,1,1,2,6,2,,,,,,,,4.1,517.5396585000017,521.6396760999996,521.6398215100023,0.3050344999974186,522.0839304000001,522.0839304000001,n,0.581303899994964,524.6873799999994,524.6873799999994,3,1.942,,,,,sub-044,75,110,700,bloc_loop.csv,2023-08-24_15h23.12.081,PainUncertainty,2022.2.5,142.95435182165255,
grave,forte,stimuli/330Hz,stimuli/forte,bloc_2,prob50_50_4trials.xlsx,2,8,50,50,1,,,,,0,1,1,1,1,3,7,1,,,,,,,,3.8,524.6873799999994,528.487805300003,528.4879207100028,0.3052142999986245,528.936578300003,528.936578300003,m,1.1958870999987994,534.0544750000008,534.0544750000008,17,1.893,,,,,sub-044,75,110,700,bloc_loop.csv,2023-08-24_15h23.12.081,PainUncertainty,2022.2.5,142.95435182165255,
,,,,bloc_2,prob50_50_4trials.xlsx,2,8,50,50,1,,,,,0,1,1,1,,,,,0,0,0,0,,,,,,,,,,,,,,,,,534.0544750000008,606.6708429999999,,,sub-044,75,110,700,bloc_loop.csv,2023-08-24_15h23.12.081,PainUncertainty,2022.2.5,142.95435182165255,
grave,moderee,stimuli/330Hz,stimuli/moderee,bloc_3,prob80hthp_12trials.xlsx,2,24,80,20,0,,,,,0,2,2,2,0,0,0,3,,,,,,,,4.3,607.6183953,611.9213579999996,611.9214860100008,0.30511639999895124,612.3659071000002,612.3659071000002,n,0.5820796999978484,616.2968627000009,616.2968627000009,2,3.27,,,,,sub-044,75,110,700,bloc_loop.csv,2023-08-24_15h23.12.081,PainUncertainty,2022.2.5,142.95435182165255,
aigu,forte,stimuli/660Hz,stimuli/forte,bloc_3,prob80hthp_12trials.xlsx,2,24,80,20,0,,,,,0,2,2,2,0,1,1,9,,,,,,,,4.7,616.2968627000009,620.9991752999995,620.9992670100007,0.30496190000121715,621.4467360000017,621.4467360000017,m,1.0170390999992378,623.8583134,623.8583134,20,1.324,,,,,sub-044,75,110,700,bloc_loop.csv,2023-08-24_15h23.12.081,PainUncertainty,2022.2.5,142.95435182165255,
grave,moderee,stimuli/330Hz,stimuli/moderee,bloc_3,prob80hthp_12trials.xlsx,2,24,80,20,0,,,,,0,2,2,2,0,2,2,4,,,,,,,,3.1,623.8583134,626.9582324000003,626.958268410003,0.3052003999982844,627.4068428000028,627.4068428000028,n,0.4826807999997982,629.6766451000003,629.6766451000003,4,1.704,,,,,sub-044,75,110,700,bloc_loop.csv,2023-08-24_15h23.12.081,PainUncertainty,2022.2.5,142.95435182165255,
aigu,forte,stimuli/660Hz,stimuli/forte,bloc_3,prob80hthp_12trials.xlsx,2,24,80,20,0,,,,,0,2,2,2,0,3,3,10,,,,,,,,3.3,629.6766451000003,632.9799051000009,632.9798865100026,0.3050641000008909,633.4273081000028,633.4273081000028,m,0.6112988999993831,636.2619472000006,636.2619472000006,18,2.148,,,,,sub-044,75,110,700,bloc_loop.csv,2023-08-24_15h23.12.081,PainUncertainty,2022.2.5,142.95435182165255,
grave,moderee,stimuli/330Hz,stimuli/moderee,bloc_3,prob80hthp_12trials.xlsx,2,24,80,20,0,,,,,0,2,2,2,0,4,4,1,,,,,,,,4.3,636.2619472000006,640.5642614999997,640.5655629100008,0.30357209999783663,641.011754500003,641.011754500003,n,0.7745523999983561,643.5364469000015,643.5364469000015,4,1.677,,,,,sub-044,75,110,700,bloc_loop.csv,2023-08-24_15h23.12.081,PainUncertainty,2022.2.5,142.95435182165255,
aigu,forte,stimuli/660Hz,stimuli/forte,bloc_3,prob80hthp_12trials.xlsx,2,24,80,20,0,,,,,0,2,2,2,0,5,5,8,,,,,,,,4.5,643.5364469000015,648.0371290000003,648.0372607100005,0.3048426000023028,648.4809884999995,648.4809884999995,m,0.6086552999986452,650.3295719000016,650.3295719000016,21,1.164,,,,,sub-044,75,110,700,bloc_loop.csv,2023-08-24_15h23.12.081,PainUncertainty,2022.2.5,142.95435182165255,
grave,moderee,stimuli/330Hz,stimuli/moderee,bloc_3,prob80hthp_12trials.xlsx,2,24,80,20,0,,,,,0,2,2,2,0,6,6,2,,,,,,,,4.6,650.3295719000016,654.933876500003,654.9340282100027,0.3009442000002309,655.3782379000004,655.3782379000004,n,0.5953392999981588,659.6301203000003,659.6301203000003,8,3.602,,,,,sub-044,75,110,700,bloc_loop.csv,2023-08-24_15h23.12.081,PainUncertainty,2022.2.5,142.95435182165255,
aigu,moderee,stimuli/660Hz,stimuli/moderee,bloc_3,prob80hthp_12trials.xlsx,2,24,80,20,0,,,,,0,2,2,2,0,7,7,11,,,,,,,,4.3,659.6301203000003,663.9347842000025,663.9348307100015,0.30496400000265567,664.3786882000022,664.3786882000022,n,0.7119103999975778,668.2009385000019,668.2009385000019,4,3.025,,,,,sub-044,75,110,700,bloc_loop.csv,2023-08-24_15h23.12.081,PainUncertainty,2022.2.5,142.95435182165255,
aigu,forte,stimuli/660Hz,stimuli/forte,bloc_3,prob80hthp_12trials.xlsx,2,24,80,20,0,,,,,0,2,2,2,0,8,8,7,,,,,,,,4.2,668.2009385000019,672.4008439000027,672.4008956100013,0.3053656999982195,672.8490138000016,672.8490138000016,m,0.7940068999996583,676.3528244000008,676.3528244000008,21,2.643,,,,,sub-044,75,110,700,bloc_loop.csv,2023-08-24_15h23.12.081,PainUncertainty,2022.2.5,142.95435182165255,
grave,moderee,stimuli/330Hz,stimuli/moderee,bloc_3,prob80hthp_12trials.xlsx,2,24,80,20,0,,,,,0,2,2,2,0,9,9,0,,,,,,,,3,676.3528244000008,679.3530995000001,679.3531470100031,0.3048255999965477,679.7972888000004,679.7972888000004,n,2.219396099997539,683.6559999000019,683.6559999000019,6,1.555,,,,,sub-044,75,110,700,bloc_loop.csv,2023-08-24_15h23.12.081,PainUncertainty,2022.2.5,142.95435182165255,
grave,forte,stimuli/330Hz,stimuli/forte,bloc_3,prob80hthp_12trials.xlsx,2,24,80,20,0,,,,,0,2,2,2,0,10,10,5,,,,,,,,4.2,683.6559999000019,687.8610098000026,687.8609974100007,0.3051911000002292,688.3051388000022,688.3051388000022,m,0.6309427999985928,691.6479128999999,691.6479128999999,19,2.614,,,,,sub-044,75,110,700,bloc_loop.csv,2023-08-24_15h23.12.081,PainUncertainty,2022.2.5,142.95435182165255,
aigu,forte,stimuli/660Hz,stimuli/forte,bloc_3,prob80hthp_12trials.xlsx,2,24,80,20,0,,,,,0,2,2,2,0,11,11,6,,,,,,,,4.2,691.6479128999999,695.848123300002,695.8480418100014,0.30550360000052024,696.2963363000017,696.2963363000017,m,1.2810146999981953,701.0490645000027,701.0490645000027,17,3.391,,,,,sub-044,75,110,700,bloc_loop.csv,2023-08-24_15h23.12.081,PainUncertainty,2022.2.5,142.95435182165255,
grave,moderee,stimuli/330Hz,stimuli/moderee,bloc_3,prob80hthp_12trials.xlsx,2,24,80,20,0,,,,,0,2,2,2,1,0,12,3,,,,,,,,4.4,701.0490645000027,705.4535180000021,705.4535295100002,0.30505799999809824,705.8976967000017,705.8976967000017,n,0.6669091999974626,708.7361431999998,708.7361431999998,4,2.115,,,,,sub-044,75,110,700,bloc_loop.csv,2023-08-24_15h23.12.081,PainUncertainty,2022.2.5,142.95435182165255,
grave,moderee,stimuli/330Hz,stimuli/moderee,bloc_3,prob80hthp_12trials.xlsx,2,24,80,20,0,,,,,0,2,2,2,1,1,13,4,,,,,,,,3.8,708.7361431999998,712.5390452000029,712.538233510001,0.3049860000028275,712.9858967,712.9858967,n,0.5656159999962256,714.6037381999995,714.6037381999995,2,0.981,,,,,sub-044,75,110,700,bloc_loop.csv,2023-08-24_15h23.12.081,PainUncertainty,2022.2.5,142.95435182165255,
aigu,forte,stimuli/660Hz,stimuli/forte,bloc_3,prob80hthp_12trials.xlsx,2,24,80,20,0,,,,,0,2,2,2,1,2,14,10,,,,,,,,4.1,714.6037381999995,718.705020100002,718.7049495100007,0.30530459999863524,719.1491214000016,719.1491214000016,m,0.9458195000006526,722.2292140999998,722.2292140999998,18,2.053,,,,,sub-044,75,110,700,bloc_loop.csv,2023-08-24_15h23.12.081,PainUncertainty,2022.2.5,142.95435182165255,
grave,moderee,stimuli/330Hz,stimuli/moderee,bloc_3,prob80hthp_12trials.xlsx,2,24,80,20,0,,,,,0,2,2,2,1,3,15,0,,,,,,,,3,722.2292140999998,725.2336059000008,725.2337757100001,0.3049960000025749,725.6778319000005,725.6778319000005,n,0.6249737999969511,728.2218724000013,728.2218724000013,3,1.858,,,,,sub-044,75,110,700,bloc_loop.csv,2023-08-24_15h23.12.081,PainUncertainty,2022.2.5,142.95435182165255,
grave,moderee,stimuli/330Hz,stimuli/moderee,bloc_3,prob80hthp_12trials.xlsx,2,24,80,20,0,,,,,0,2,2,2,1,4,16,1,,,,,,,,4.1,728.2218724000013,732.3246006000008,732.3247422100001,0.30508049999843934,732.7687471999998,732.7687471999998,n,0.5242585999985749,736.8889593000022,736.8889593000022,1,3.525,,,,,sub-044,75,110,700,bloc_loop.csv,2023-08-24_15h23.12.081,PainUncertainty,2022.2.5,142.95435182165255,
aigu,forte,stimuli/660Hz,stimuli/forte,bloc_3,prob80hthp_12trials.xlsx,2,24,80,20,0,,,,,0,2,2,2,1,5,17,9,,,,,,,,4,736.8889593000022,740.8926796000014,740.8883836100001,0.304872400000022,741.3323015000024,741.3323015000024,m,0.6897953999978199,744.3989965000001,744.3989965000001,13,2.316,,,,,sub-044,75,110,700,bloc_loop.csv,2023-08-24_15h23.12.081,PainUncertainty,2022.2.5,142.95435182165255,
aigu,forte,stimuli/660Hz,stimuli/forte,bloc_3,prob80hthp_12trials.xlsx,2,24,80,20,0,,,,,0,2,2,2,1,6,18,6,,,,,,,,4,744.3989965000001,748.4032869000002,748.4033367100026,0.3018759999977192,748.8485999000004,748.8485999000004,m,0.5820735999986937,751.0164933000015,751.0164933000015,16,1.539,,,,,sub-044,75,110,700,bloc_loop.csv,2023-08-24_15h23.12.081,PainUncertainty,2022.2.5,142.95435182165255,
aigu,forte,stimuli/660Hz,stimuli/forte,bloc_3,prob80hthp_12trials.xlsx,2,24,80,20,0,,,,,0,2,2,2,1,7,19,7,,,,,,,,3.1,751.0164933000015,754.1192007999998,754.1192432100004,0.3048978000006173,754.5633052000012,754.5633052000012,m,0.5576189999956114,756.0051055000004,756.0051055000004,18,0.824,,,,,sub-044,75,110,700,bloc_loop.csv,2023-08-24_15h23.12.081,PainUncertainty,2022.2.5,142.95435182165255,
aigu,forte,stimuli/660Hz,stimuli/forte,bloc_3,prob80hthp_12trials.xlsx,2,24,80,20,0,,,,,0,2,2,2,1,8,20,8,,,,,,,,3.2,756.0051055000004,759.2100941000026,759.2101632100027,0.305161299998872,759.6581038000004,759.6581038000004,m,1.0215271999950346,763.1189219000007,763.1189219000007,18,2.366,,,,,sub-044,75,110,700,bloc_loop.csv,2023-08-24_15h23.12.081,PainUncertainty,2022.2.5,142.95435182165255,
aigu,moderee,stimuli/660Hz,stimuli/moderee,bloc_3,prob80hthp_12trials.xlsx,2,24,80,20,0,,,,,0,2,2,2,1,9,21,11,,,,,,,,3.2,763.1189219000007,766.3216541000002,766.3216165100027,0.30523059999904945,766.7661121000019,766.7661121000019,n,0.9139444999964326,768.6007170000012,768.6007170000012,2,0.859,,,,,sub-044,75,110,700,bloc_loop.csv,2023-08-24_15h23.12.081,PainUncertainty,2022.2.5,142.95435182165255,
grave,moderee,stimuli/330Hz,stimuli/moderee,bloc_3,prob80hthp_12trials.xlsx,2,24,80,20,0,,,,,0,2,2,2,1,10,22,2,,,,,,,,3.9,768.6007170000012,772.5029495000017,772.5029459100012,0.30189749999772175,772.9478154000026,772.9478154000026,n,0.5826016999963031,776.8483969000008,776.8483969000008,3,3.253,,,,,sub-044,75,110,700,bloc_loop.csv,2023-08-24_15h23.12.081,PainUncertainty,2022.2.5,142.95435182165255,
grave,forte,stimuli/330Hz,stimuli/forte,bloc_3,prob80hthp_12trials.xlsx,2,24,80,20,0,,,,,0,2,2,2,1,11,23,5,,,,,,,,4.1,776.8483969000008,780.9486821999999,780.9487582100016,0.3051024000014877,781.396236800003,781.396236800003,m,0.7567270999970788,784.808685,784.808685,17,2.601,,,,,sub-044,75,110,700,bloc_loop.csv,2023-08-24_15h23.12.081,PainUncertainty,2022.2.5,142.95435182165255,
aigu,forte,stimuli/660Hz,stimuli/forte,bloc_4,prob50_50_4trials.xlsx,2,8,50,50,1,,,,,0,3,3,3,0,0,0,3,,,,,,,,3.8,784.808685,788.6091202000025,788.6134479100008,0.30074079999758396,789.0567606000004,789.0567606000004,m,1.5327336999980616,792.4035006000013,792.4035006000013,18,1.734,,,,,sub-044,75,110,700,bloc_loop.csv,2023-08-24_15h23.12.081,PainUncertainty,2022.2.5,142.95435182165255,
grave,moderee,stimuli/330Hz,stimuli/moderee,bloc_4,prob50_50_4trials.xlsx,2,8,50,50,1,,,,,0,3,3,3,0,1,1,0,,,,,,,,4,792.4035006000013,796.4089755999994,796.4089811100027,0.3051656000025105,796.8555526000018,796.8555526000018,n,0.5123079999975744,800.2670281000028,800.2670281000028,4,2.829,,,,,sub-044,75,110,700,bloc_loop.csv,2023-08-24_15h23.12.081,PainUncertainty,2022.2.5,142.95435182165255,
aigu,moderee,stimuli/660Hz,stimuli/moderee,bloc_4,prob50_50_4trials.xlsx,2,8,50,50,1,,,,,0,3,3,3,0,2,2,2,,,,,,,,3.7,800.2670281000028,803.9720191000015,803.9719483100023,0.30562210000061896,804.4186555000015,804.4186555000015,n,0.6179757999962021,808.3574034000012,808.3574034000012,2,3.247,,,,,sub-044,75,110,700,bloc_loop.csv,2023-08-24_15h23.12.081,PainUncertainty,2022.2.5,142.95435182165255,
grave,forte,stimuli/330Hz,stimuli/forte,bloc_4,prob50_50_4trials.xlsx,2,8,50,50,1,,,,,0,3,3,3,0,3,3,1,,,,,,,,4.4,808.3574034000012,812.7578207000006,812.7580153100032,0.30479490000288934,813.2018671000005,813.2018671000005,m,0.7256483999990451,815.580601200003,815.580601200003,17,1.593,,,,,sub-044,75,110,700,bloc_loop.csv,2023-08-24_15h23.12.081,PainUncertainty,2022.2.5,142.95435182165255,
aigu,forte,stimuli/660Hz,stimuli/forte,bloc_4,prob50_50_4trials.xlsx,2,8,50,50,1,,,,,0,3,3,3,1,0,4,3,,,,,,,,3.1,815.580601200003,818.682021200002,818.6820587100017,0.3050827000006393,819.1264690000025,819.1264690000025,m,0.6519695999959367,820.9677085000003,820.9677085000003,17,1.115,,,,,sub-044,75,110,700,bloc_loop.csv,2023-08-24_15h23.12.081,PainUncertainty,2022.2.5,142.95435182165255,
grave,moderee,stimuli/330Hz,stimuli/moderee,bloc_4,prob50_50_4trials.xlsx,2,8,50,50,1,,,,,0,3,3,3,1,1,5,0,,,,,,,,4.1,820.9677085000003,825.0717541000013,825.0719183100016,0.3050452999996196,825.5162565000028,825.5162565000028,n,0.5054226999964158,828.3363151000012,828.3363151000012,3,2.26,,,,,sub-044,75,110,700,bloc_loop.csv,2023-08-24_15h23.12.081,PainUncertainty,2022.2.5,142.95435182165255,
aigu,moderee,stimuli/660Hz,stimuli/moderee,bloc_4,prob50_50_4trials.xlsx,2,8,50,50,1,,,,,0,3,3,3,1,2,6,2,,,,,,,,4.8,828.3363151000012,833.1358276000028,833.1356945100022,0.29973039999822504,833.5800496000011,833.5800496000011,n,0.6400818999973126,836.7458523999994,836.7458523999994,2,2.447,,,,,sub-044,75,110,700,bloc_loop.csv,2023-08-24_15h23.12.081,PainUncertainty,2022.2.5,142.95435182165255,
grave,forte,stimuli/330Hz,stimuli/forte,bloc_4,prob50_50_4trials.xlsx,2,8,50,50,1,,,,,0,3,3,3,1,3,7,1,,,,,,,,3.9,836.7458523999994,840.6504504000004,840.6506797100017,0.3047374999987369,841.0986616000009,841.0986616000009,m,0.5424457999979495,846.4171540999996,846.4171540999996,19,2.747,,,,,sub-044,75,110,700,bloc_loop.csv,2023-08-24_15h23.12.081,PainUncertainty,2022.2.5,142.95435182165255,
,,,,bloc_4,prob50_50_4trials.xlsx,2,8,50,50,1,,,,,0,3,3,3,,,,,0,0,0,0,,,,,,,,,,,,,,,,,846.4171540999996,890.7323036000016,,,sub-044,75,110,700,bloc_loop.csv,2023-08-24_15h23.12.081,PainUncertainty,2022.2.5,142.95435182165255,
aigu,moderee,stimuli/660Hz,stimuli/moderee,bloc_5,prob20hthp_12trials.xlsx,2,24,20,80,0,,,,,0,4,4,4,0,0,0,6,,,,,,,,5,893.3325135000014,898.3381936000005,898.3376473100004,0.30487880000146106,898.7814806000024,898.7814806000024,n,1.6583637999974599,903.9448161,903.9448161,0,3.435,,,,,sub-044,75,110,700,bloc_loop.csv,2023-08-24_15h23.12.081,PainUncertainty,2022.2.5,142.95435182165255,
grave,forte,stimuli/330Hz,stimuli/forte,bloc_5,prob20hthp_12trials.xlsx,2,24,20,80,0,,,,,0,4,4,4,0,1,1,3,,,,,,,,3.3,903.9448161,907.248161800002,907.2481802100017,0.3050413999990269,907.692787400003,907.692787400003,m,0.7493517999973847,911.1730798000026,911.1730798000026,16,2.649,,,,,sub-044,75,110,700,bloc_loop.csv,2023-08-24_15h23.12.081,PainUncertainty,2022.2.5,142.95435182165255,
grave,moderee,stimuli/330Hz,stimuli/moderee,bloc_5,prob20hthp_12trials.xlsx,2,24,20,80,0,,,,,0,4,4,4,0,2,2,5,,,,,,,,4.5,911.1730798000026,915.6729067000015,915.6727327100023,0.30499780000172905,916.1168872000017,916.1168872000017,n,0.5759252999996534,918.7948821000027,918.7948821000027,4,2.053,,,,,sub-044,75,110,700,bloc_loop.csv,2023-08-24_15h23.12.081,PainUncertainty,2022.2.5,142.95435182165255,
aigu,moderee,stimuli/660Hz,stimuli/moderee,bloc_5,prob20hthp_12trials.xlsx,2,24,20,80,0,,,,,0,4,4,4,0,3,3,9,,,,,,,,3.2,918.7948821000027,921.9999535999996,921.9999065100026,0.30513730000166106,922.4439826000016,922.4439826000016,m,1.4270135999977356,926.8993896000029,926.8993896000029,14,2.97,,,,,sub-044,75,110,700,bloc_loop.csv,2023-08-24_15h23.12.081,PainUncertainty,2022.2.5,142.95435182165255,
aigu,moderee,stimuli/660Hz,stimuli/moderee,bloc_5,prob20hthp_12trials.xlsx,2,24,20,80,0,,,,,0,4,4,4,0,4,4,8,,,,,,,,4.5,926.8993896000029,931.404161100003,931.4045497100021,0.3000425999998697,931.8484941999995,931.8484941999995,n,0.6638886000000639,936.1892455000016,936.1892455000016,2,3.594,,,,,sub-044,75,110,700,bloc_loop.csv,2023-08-24_15h23.12.081,PainUncertainty,2022.2.5,142.95435182165255,
grave,forte,stimuli/330Hz,stimuli/forte,bloc_5,prob20hthp_12trials.xlsx,2,24,20,80,0,,,,,0,4,4,4,0,5,5,2,,,,,,,,3,936.1892455000016,939.1894619000013,939.1895507100023,0.3047312000016973,939.6377577000021,939.6377577000021,m,0.6598638999967079,942.1176403999998,942.1176403999998,15,1.767,,,,,sub-044,75,110,700,bloc_loop.csv,2023-08-24_15h23.12.081,PainUncertainty,2022.2.5,142.95435182165255,
aigu,forte,stimuli/660Hz,stimuli/forte,bloc_5,prob20hthp_12trials.xlsx,2,24,20,80,0,,,,,0,4,4,4,0,6,6,11,,,,,,,,3.2,942.1176403999998,945.3222855000022,945.3222531100007,0.3045496999984607,945.7662328000006,945.7662328000006,m,0.612192699998559,947.6826753999994,947.6826753999994,18,1.231,,,,,sub-044,75,110,700,bloc_loop.csv,2023-08-24_15h23.12.081,PainUncertainty,2022.2.5,142.95435182165255,
grave,forte,stimuli/330Hz,stimuli/forte,bloc_5,prob20hthp_12trials.xlsx,2,24,20,80,0,,,,,0,4,4,4,0,7,7,4,,,,,,,,4.1,947.6826753999994,951.7880492000004,951.7881189100015,0.30521650000082445,952.239494700003,952.239494700003,m,0.6435727999996743,955.6252224000018,955.6252224000018,17,2.685,,,,,sub-044,75,110,700,bloc_loop.csv,2023-08-24_15h23.12.081,PainUncertainty,2022.2.5,142.95435182165255,
grave,forte,stimuli/330Hz,stimuli/forte,bloc_5,prob20hthp_12trials.xlsx,2,24,20,80,0,,,,,0,4,4,4,0,8,8,0,,,,,,,,3.2,955.6252224000018,958.8240179000022,958.8252811099999,0.30000570000265725,959.2686493000001,959.2686493000001,m,0.686734399994748,962.7069890000021,962.7069890000021,18,2.689,,,,,sub-044,75,110,700,bloc_loop.csv,2023-08-24_15h23.12.081,PainUncertainty,2022.2.5,142.95435182165255,
grave,forte,stimuli/330Hz,stimuli/forte,bloc_5,prob20hthp_12trials.xlsx,2,24,20,80,0,,,,,0,4,4,4,0,9,9,1,,,,,,,,3.3,962.7069890000021,966.0120234000024,966.0120838100017,0.30530720000024303,966.4564430999999,966.4564430999999,m,0.7085251999960747,969.4055671999995,969.4055671999995,22,2.17,,,,,sub-044,75,110,700,bloc_loop.csv,2023-08-24_15h23.12.081,PainUncertainty,2022.2.5,142.95435182165255,
aigu,moderee,stimuli/660Hz,stimuli/moderee,bloc_5,prob20hthp_12trials.xlsx,2,24,20,80,0,,,,,0,4,4,4,0,10,10,10,,,,,,,,4.3,969.4055671999995,973.7077035000002,973.7077031100023,0.3048944999973173,974.1518084000018,974.1518084000018,n,0.6330901999972411,976.0871818000014,976.0871818000014,2,1.24,,,,,sub-044,75,110,700,bloc_loop.csv,2023-08-24_15h23.12.081,PainUncertainty,2022.2.5,142.95435182165255,
aigu,moderee,stimuli/660Hz,stimuli/moderee,bloc_5,prob20hthp_12trials.xlsx,2,24,20,80,0,,,,,0,4,4,4,0,11,11,7,,,,,,,,3.8,976.0871818000014,979.8886100000018,979.8887831100008,0.30499090000012075,980.3328768000029,980.3328768000029,n,0.5368691999974544,982.274487900002,982.274487900002,1,1.331,,,,,sub-044,75,110,700,bloc_loop.csv,2023-08-24_15h23.12.081,PainUncertainty,2022.2.5,142.95435182165255,
grave,forte,stimuli/330Hz,stimuli/forte,bloc_5,prob20hthp_12trials.xlsx,2,24,20,80,0,,,,,0,4,4,4,1,0,12,3,,,,,,,,4.3,982.274487900002,986.5770260999998,986.5770783100022,0.3047930999964592,987.0211670999997,987.0211670999997,m,0.6757845999964047,989.6728505000028,989.6728505000028,16,1.921,,,,,sub-044,75,110,700,bloc_loop.csv,2023-08-24_15h23.12.081,PainUncertainty,2022.2.5,142.95435182165255,
grave,forte,stimuli/330Hz,stimuli/forte,bloc_5,prob20hthp_12trials.xlsx,2,24,20,80,0,,,,,0,4,4,4,1,1,13,2,,,,,,,,3.4,989.6728505000028,993.0775867000011,993.0776910100001,0.3052839000010863,993.5218266000011,993.5218266000011,m,0.733663399998477,995.5742575000004,995.5742575000004,17,1.241,,,,,sub-044,75,110,700,bloc_loop.csv,2023-08-24_15h23.12.081,PainUncertainty,2022.2.5,142.95435182165255,
aigu,moderee,stimuli/660Hz,stimuli/moderee,bloc_5,prob20hthp_12trials.xlsx,2,24,20,80,0,,,,,0,4,4,4,1,2,14,9,,,,,,,,4.2,995.5742575000004,999.7733902,999.7733664100022,0.29908960000102525,1000.2150667000024,1000.2150667000024,n,0.5446831000008387,1002.5735714000002,1002.5735714000002,3,1.754,,,,,sub-044,75,110,700,bloc_loop.csv,2023-08-24_15h23.12.081,PainUncertainty,2022.2.5,142.95435182165255,
grave,moderee,stimuli/330Hz,stimuli/moderee,bloc_5,prob20hthp_12trials.xlsx,2,24,20,80,0,,,,,0,4,4,4,1,3,15,5,,,,,,,,3.2,1002.5735714000002,1005.7736385000026,1005.7740032100016,0.30462039999838453,1006.2217877000003,1006.2217877000003,n,0.6402206999991904,1009.9583851999996,1009.9583851999996,1,3.04,,,,,sub-044,75,110,700,bloc_loop.csv,2023-08-24_15h23.12.081,PainUncertainty,2022.2.5,142.95435182165255,
aigu,moderee,stimuli/660Hz,stimuli/moderee,bloc_5,prob20hthp_12trials.xlsx,2,24,20,80,0,,,,,0,4,4,4,1,4,16,8,,,,,,,,4.5,1009.9583851999996,1014.4626621000025,1014.4624987100003,0.2992899999990186,1014.9050295000015,1014.9050295000015,n,0.6254459999981918,1016.4970991000009,1016.4970991000009,1,0.896,,,,,sub-044,75,110,700,bloc_loop.csv,2023-08-24_15h23.12.081,PainUncertainty,2022.2.5,142.95435182165255,
aigu,forte,stimuli/660Hz,stimuli/forte,bloc_5,prob20hthp_12trials.xlsx,2,24,20,80,0,,,,,0,4,4,4,1,5,17,11,,,,,,,,5,1016.4970991000009,1021.4980820000019,1021.4981744100012,0.3058046000005561,1021.9473983999997,1021.9473983999997,m,0.6168512999975064,1024.330659700001,1024.330659700001,19,1.698,,,,,sub-044,75,110,700,bloc_loop.csv,2023-08-24_15h23.12.081,PainUncertainty,2022.2.5,142.95435182165255,
grave,forte,stimuli/330Hz,stimuli/forte,bloc_5,prob20hthp_12trials.xlsx,2,24,20,80,0,,,,,0,4,4,4,1,6,18,1,,,,,,,,3.3,1024.330659700001,1027.6307701000005,1027.6309699100027,0.3047448999968765,1028.074755900001,1028.074755900001,m,0.6032012999967264,1029.7973471000005,1029.7973471000005,25,1.04,,,,,sub-044,75,110,700,bloc_loop.csv,2023-08-24_15h23.12.081,PainUncertainty,2022.2.5,142.95435182165255,
aigu,moderee,stimuli/660Hz,stimuli/moderee,bloc_5,prob20hthp_12trials.xlsx,2,24,20,80,0,,,,,0,4,4,4,1,7,19,6,,,,,,,,4.2,1029.7973471000005,1033.9994219,1033.9993412100018,0.30488139999943087,1034.4435836000011,1034.4435836000011,n,0.5674668999963615,1036.5729697999996,1036.5729697999996,3,1.512,,,,,sub-044,75,110,700,bloc_loop.csv,2023-08-24_15h23.12.081,PainUncertainty,2022.2.5,142.95435182165255,
aigu,moderee,stimuli/660Hz,stimuli/moderee,bloc_5,prob20hthp_12trials.xlsx,2,24,20,80,0,,,,,0,4,4,4,1,8,20,10,,,,,,,,4.6,1036.5729697999996,1041.1741545000004,1041.174132410001,0.3049209000018891,1041.6178839000022,1041.6178839000022,n,0.6577020999975502,1044.4053267000018,1044.4053267000018,1,2.08,,,,,sub-044,75,110,700,bloc_loop.csv,2023-08-24_15h23.12.081,PainUncertainty,2022.2.5,142.95435182165255,
aigu,moderee,stimuli/660Hz,stimuli/moderee,bloc_5,prob20hthp_12trials.xlsx,2,24,20,80,0,,,,,0,4,4,4,1,9,21,7,,,,,,,,3.7,1044.4053267000018,1048.1050810000015,1048.1051140100033,0.30531129999872064,1048.5538846000018,1048.5538846000018,m,1.3881192999979248,1053.023689900001,1053.023689900001,1,3.003,,,,,sub-044,75,110,700,bloc_loop.csv,2023-08-24_15h23.12.081,PainUncertainty,2022.2.5,142.95435182165255,
grave,forte,stimuli/330Hz,stimuli/forte,bloc_5,prob20hthp_12trials.xlsx,2,24,20,80,0,,,,,0,4,4,4,1,10,22,0,,,,,,,,3.9,1053.023689900001,1056.9256256000008,1056.9255398100001,0.30510919999869657,1057.3697299000014,1057.3697299000014,m,0.8976190999965183,1059.7355774999996,1059.7355774999996,19,1.414,,,,,sub-044,75,110,700,bloc_loop.csv,2023-08-24_15h23.12.081,PainUncertainty,2022.2.5,142.95435182165255,
grave,forte,stimuli/330Hz,stimuli/forte,bloc_5,prob20hthp_12trials.xlsx,2,24,20,80,0,,,,,0,4,4,4,1,11,23,4,,,,,,,,3.8,1059.7355774999996,1063.5375053000025,1063.5375798100001,0.3045760999993945,1063.9816119000025,1063.9816119000025,m,0.6064873999966949,1066.3066732000007,1066.3066732000007,24,1.657,,,,,sub-044,75,110,700,bloc_loop.csv,2023-08-24_15h23.12.081,PainUncertainty,2022.2.5,142.95435182165255,
aigu,forte,stimuli/660Hz,stimuli/forte,bloc_6,prob50_50_4trials.xlsx,2,8,50,50,0,,,,,0,5,5,5,0,0,0,3,,,,,,,,3.9,1066.3066732000007,1070.2119284,1070.2120493100017,0.30209149999791407,1070.658026000001,1070.658026000001,None,,1075.5620062000016,1075.5620062000016,14,2.399,,,1073.1247421000007,1073.1247421000007,sub-044,75,110,700,bloc_loop.csv,2023-08-24_15h23.12.081,PainUncertainty,2022.2.5,142.95435182165255,
grave,forte,stimuli/330Hz,stimuli/forte,bloc_6,prob50_50_4trials.xlsx,2,8,50,50,0,,,,,0,5,5,5,0,1,1,1,,,,,,,,3.6,1075.5620062000016,1079.1643565000013,1079.1644189100014,0.305027099999279,1079.6085472000013,1079.6085472000013,n,0.9756566999967617,1081.9881146000007,1081.9881146000007,5,1.323,,,,,sub-044,75,110,700,bloc_loop.csv,2023-08-24_15h23.12.081,PainUncertainty,2022.2.5,142.95435182165255,
grave,moderee,stimuli/330Hz,stimuli/moderee,bloc_6,prob50_50_4trials.xlsx,2,8,50,50,0,,,,,0,5,5,5,0,2,2,0,,,,,,,,3,1081.9881146000007,1084.991453300001,1084.99150841,0.30505619999894407,1085.4356154000016,1085.4356154000016,n,0.6032636999989336,1088.1721896000017,1088.1721896000017,3,2.073,,,,,sub-044,75,110,700,bloc_loop.csv,2023-08-24_15h23.12.081,PainUncertainty,2022.2.5,142.95435182165255,
aigu,moderee,stimuli/660Hz,stimuli/moderee,bloc_6,prob50_50_4trials.xlsx,2,8,50,50,0,,,,,0,5,5,5,0,3,3,2,,,,,,,,4.6,1088.1721896000017,1092.7772814000018,1092.7773375100012,0.30494999999791617,1093.2211662000009,1093.2211662000009,n,0.8724084999957995,1094.8872343000003,1094.8872343000003,2,0.731,,,,,sub-044,75,110,700,bloc_loop.csv,2023-08-24_15h23.12.081,PainUncertainty,2022.2.5,142.95435182165255,
aigu,moderee,stimuli/660Hz,stimuli/moderee,bloc_6,prob50_50_4trials.xlsx,2,8,50,50,0,,,,,0,5,5,5,1,0,4,2,,,,,,,,4.1,1094.8872343000003,1098.9931518000012,1098.9930345100008,0.3010141999984626,1099.4376464000015,1099.4376464000015,n,0.6550280999981624,1102.9743659000014,1102.9743659000014,1,2.823,,,,,sub-044,75,110,700,bloc_loop.csv,2023-08-24_15h23.12.081,PainUncertainty,2022.2.5,142.95435182165255,
grave,moderee,stimuli/330Hz,stimuli/moderee,bloc_6,prob50_50_4trials.xlsx,2,8,50,50,0,,,,,0,5,5,5,1,1,5,0,,,,,,,,4.2,1102.9743659000014,1107.1746156000008,1107.1745744100015,0.3055335999997624,1107.622648200002,1107.622648200002,n,0.5694325999975263,1109.5143810000009,1109.5143810000009,1,1.248,,,,,sub-044,75,110,700,bloc_loop.csv,2023-08-24_15h23.12.081,PainUncertainty,2022.2.5,142.95435182165255,
aigu,forte,stimuli/660Hz,stimuli/forte,bloc_6,prob50_50_4trials.xlsx,2,8,50,50,0,,,,,0,5,5,5,1,2,6,3,,,,,,,,4.5,1109.5143810000009,1114.0156463000021,1114.0158979100022,0.3047249000010197,1114.4598065999999,1114.4598065999999,m,1.2926778999972157,1118.4495502000027,1118.4495502000027,1,2.635,,,,,sub-044,75,110,700,bloc_loop.csv,2023-08-24_15h23.12.081,PainUncertainty,2022.2.5,142.95435182165255,
grave,forte,stimuli/330Hz,stimuli/forte,bloc_6,prob50_50_4trials.xlsx,2,8,50,50,0,,,,,0,5,5,5,1,3,7,1,,,,,,,,3,1118.4495502000027,1121.4544031000005,1121.4545752100028,0.30518970000048284,1121.9026697000008,1121.9026697000008,m,0.6036720999982208,1124.5896097000004,1124.5896097000004,17,2.006,,,,,sub-044,75,110,700,bloc_loop.csv,2023-08-24_15h23.12.081,PainUncertainty,2022.2.5,142.95435182165255,
grave,moderee,stimuli/330Hz,stimuli/moderee,bloc_7,prob80hthp_12trials.xlsx,2,24,80,20,1,,,,,0,6,6,6,0,0,0,4,,,,,,,,3.1,1124.5896097000004,1127.6912714000027,1127.6913653100025,0.30485780000162777,1128.135213900001,1128.135213900001,m,0.9613774999961606,1131.015048600002,1131.015048600002,17,1.837,,,,,sub-044,75,110,700,bloc_loop.csv,2023-08-24_15h23.12.081,PainUncertainty,2022.2.5,142.95435182165255,
grave,forte,stimuli/330Hz,stimuli/forte,bloc_7,prob80hthp_12trials.xlsx,2,24,80,20,1,,,,,0,6,6,6,0,1,1,5,,,,,,,,4.9,1131.015048600002,1135.9143901999996,1135.914359410003,0.3050763999999617,1136.3581468000011,1136.3581468000011,m,0.5460988999984693,1138.6529999000013,1138.6529999000013,20,1.698,,,,,sub-044,75,110,700,bloc_loop.csv,2023-08-24_15h23.12.081,PainUncertainty,2022.2.5,142.95435182165255,
aigu,forte,stimuli/660Hz,stimuli/forte,bloc_7,prob80hthp_12trials.xlsx,2,24,80,20,1,,,,,0,6,6,6,0,2,2,7,,,,,,,,4.6,1138.6529999000013,1143.2572044000008,1143.2555492100007,0.30490739999731886,1143.6993795000017,1143.6993795000017,m,0.5181210999980976,1147.0317955000028,1147.0317955000028,22,2.734,,,,,sub-044,75,110,700,bloc_loop.csv,2023-08-24_15h23.12.081,PainUncertainty,2022.2.5,142.95435182165255,
aigu,moderee,stimuli/660Hz,stimuli/moderee,bloc_7,prob80hthp_12trials.xlsx,2,24,80,20,1,,,,,0,6,6,6,0,3,3,11,,,,,,,,3.7,1147.0317955000028,1150.735279800003,1150.7354120100033,0.30026379999981145,1151.1803901000021,1151.1803901000021,n,1.0765717999966,1153.4260226000006,1153.4260226000006,2,1.087,,,,,sub-044,75,110,700,bloc_loop.csv,2023-08-24_15h23.12.081,PainUncertainty,2022.2.5,142.95435182165255,
aigu,forte,stimuli/660Hz,stimuli/forte,bloc_7,prob80hthp_12trials.xlsx,2,24,80,20,1,,,,,0,6,6,6,0,4,4,8,,,,,,,,4.7,1153.4260226000006,1158.1253319000025,1158.125319110001,0.3050455000011425,1158.5692221000027,1158.5692221000027,m,0.9132224999957543,1161.897920200001,1161.897920200001,19,2.336,,,,,sub-044,75,110,700,bloc_loop.csv,2023-08-24_15h23.12.081,PainUncertainty,2022.2.5,142.95435182165255,
grave,moderee,stimuli/330Hz,stimuli/moderee,bloc_7,prob80hthp_12trials.xlsx,2,24,80,20,1,,,,,0,6,6,6,0,5,5,1,,,,,,,,3.5,1161.897920200001,1165.3969638000017,1165.39704031,0.305294200003118,1165.844522200001,1165.844522200001,n,0.975530699997762,1169.5857020000003,1169.5857020000003,3,2.712,,,,,sub-044,75,110,700,bloc_loop.csv,2023-08-24_15h23.12.081,PainUncertainty,2022.2.5,142.95435182165255,
grave,moderee,stimuli/330Hz,stimuli/moderee,bloc_7,prob80hthp_12trials.xlsx,2,24,80,20,1,,,,,0,6,6,6,0,6,6,3,,,,,,,,4,1169.5857020000003,1173.5866533000008,1173.5856194100022,0.30055559999891557,1174.0300400000015,1174.0300400000015,n,0.6922429999976885,1177.5126640000017,1177.5126640000017,4,2.741,,,,,sub-044,75,110,700,bloc_loop.csv,2023-08-24_15h23.12.081,PainUncertainty,2022.2.5,142.95435182165255,
grave,moderee,stimuli/330Hz,stimuli/moderee,bloc_7,prob80hthp_12trials.xlsx,2,24,80,20,1,,,,,0,6,6,6,0,7,7,2,,,,,,,,4.5,1177.5126640000017,1182.017109100001,1182.0169883100032,0.30543110000144225,1182.4657012000025,1182.4657012000025,n,0.5399248999965494,1184.8832765000006,1184.8832765000006,2,1.824,,,,,sub-044,75,110,700,bloc_loop.csv,2023-08-24_15h23.12.081,PainUncertainty,2022.2.5,142.95435182165255,
grave,moderee,stimuli/330Hz,stimuli/moderee,bloc_7,prob80hthp_12trials.xlsx,2,24,80,20,1,,,,,0,6,6,6,0,8,8,0,,,,,,,,4.5,1184.8832765000006,1189.3858136000017,1189.3856746099998,0.30521220000082394,1189.829886200001,1189.829886200001,n,0.5910747999987507,1191.4870047000004,1191.4870047000004,0,0.996,,,,,sub-044,75,110,700,bloc_loop.csv,2023-08-24_15h23.12.081,PainUncertainty,2022.2.5,142.95435182165255,
aigu,forte,stimuli/660Hz,stimuli/forte,bloc_7,prob80hthp_12trials.xlsx,2,24,80,20,1,,,,,0,6,6,6,0,9,9,9,,,,,,,,4.3,1191.4870047000004,1195.7898539000016,1195.7899251100032,0.30519230000209063,1196.2389159000013,1196.2389159000013,m,0.5489308999967761,1198.0536582000022,1198.0536582000022,18,1.213,,,,,sub-044,75,110,700,bloc_loop.csv,2023-08-24_15h23.12.081,PainUncertainty,2022.2.5,142.95435182165255,
aigu,forte,stimuli/660Hz,stimuli/forte,bloc_7,prob80hthp_12trials.xlsx,2,24,80,20,1,,,,,0,6,6,6,0,10,10,10,,,,,,,,4.5,1198.0536582000022,1202.553865400001,1202.5539202100015,0.30513739999878453,1203.002263800001,1203.002263800001,m,0.771032099997683,1204.8796414999997,1204.8796414999997,72,1.054,,,,,sub-044,75,110,700,bloc_loop.csv,2023-08-24_15h23.12.081,PainUncertainty,2022.2.5,142.95435182165255,
aigu,forte,stimuli/660Hz,stimuli/forte,bloc_7,prob80hthp_12trials.xlsx,2,24,80,20,1,,,,,0,6,6,6,0,11,11,6,,,,,,,,3.9,1204.8796414999997,1208.7838692000005,1208.7840496100005,0.3047145000018645,1209.2279297999994,1209.2279297999994,m,0.7806404000002658,1213.210587200003,1213.210587200003,14,3.116,,,,,sub-044,75,110,700,bloc_loop.csv,2023-08-24_15h23.12.081,PainUncertainty,2022.2.5,142.95435182165255,
grave,moderee,stimuli/330Hz,stimuli/moderee,bloc_7,prob80hthp_12trials.xlsx,2,24,80,20,1,,,,,0,6,6,6,1,0,12,1,,,,,,,,3.4,1213.210587200003,1216.6111582000012,1216.6112135100018,0.30540380000093137,1217.0589588000003,1217.0589588000003,n,1.009741199999553,1220.0666812000018,1220.0666812000018,2,1.92,,,,,sub-044,75,110,700,bloc_loop.csv,2023-08-24_15h23.12.081,PainUncertainty,2022.2.5,142.95435182165255,
aigu,forte,stimuli/660Hz,stimuli/forte,bloc_7,prob80hthp_12trials.xlsx,2,24,80,20,1,,,,,0,6,6,6,1,1,13,10,,,,,,,,3.3,1220.0666812000018,1223.3688481999998,1223.368866110003,0.30558509999900707,1223.8176598000027,1223.8176598000027,m,0.5571139999992738,1227.7703231000014,1227.7703231000014,20,3.33,,,,,sub-044,75,110,700,bloc_loop.csv,2023-08-24_15h23.12.081,PainUncertainty,2022.2.5,142.95435182165255,
grave,moderee,stimuli/330Hz,stimuli/moderee,bloc_7,prob80hthp_12trials.xlsx,2,24,80,20,1,,,,,0,6,6,6,1,2,14,3,,,,,,,,4.4,1227.7703231000014,1232.175800500001,1232.1758632099998,0.30521800000133226,1232.6221710000027,1232.6221710000027,n,1.3405653000008897,1236.2261590000016,1236.2261590000016,3,2.206,,,,,sub-044,75,110,700,bloc_loop.csv,2023-08-24_15h23.12.081,PainUncertainty,2022.2.5,142.95435182165255,
aigu,moderee,stimuli/660Hz,stimuli/moderee,bloc_7,prob80hthp_12trials.xlsx,2,24,80,20,1,,,,,0,6,6,6,1,3,15,11,,,,,,,,3.6,1236.2261590000016,1239.8291688000027,1239.8293600100012,0.30544450000161305,1240.277804700003,1240.277804700003,n,0.5544303999959084,1243.6595510000006,1243.6595510000006,3,2.762,,,,,sub-044,75,110,700,bloc_loop.csv,2023-08-24_15h23.12.081,PainUncertainty,2022.2.5,142.95435182165255,
grave,moderee,stimuli/330Hz,stimuli/moderee,bloc_7,prob80hthp_12trials.xlsx,2,24,80,20,1,,,,,0,6,6,6,1,4,16,2,,,,,,,,4.8,1243.6595510000006,1248.462380500001,1248.462509110003,0.30464890000075684,1248.9064187000004,1248.9064187000004,n,0.7255446999988635,1252.5973860000013,1252.5973860000013,1,2.884,,,,,sub-044,75,110,700,bloc_loop.csv,2023-08-24_15h23.12.081,PainUncertainty,2022.2.5,142.95435182165255,
aigu,forte,stimuli/660Hz,stimuli/forte,bloc_7,prob80hthp_12trials.xlsx,2,24,80,20,1,,,,,0,6,6,6,1,5,17,9,,,,,,,,3.2,1252.5973860000013,1255.7967117000007,1255.7966994100032,0.3052468999994744,1256.2447969000023,1256.2447969000023,m,1.0845718999989913,1259.0208445000026,1259.0208445000026,22,1.636,,,,,sub-044,75,110,700,bloc_loop.csv,2023-08-24_15h23.12.081,PainUncertainty,2022.2.5,142.95435182165255,
aigu,forte,stimuli/660Hz,stimuli/forte,bloc_7,prob80hthp_12trials.xlsx,2,24,80,20,1,,,,,0,6,6,6,1,6,18,7,,,,,,,,4.5,1259.0208445000026,1263.519755600002,1263.5198901100018,0.3052451999974437,1263.9675416000027,1263.9675416000027,m,0.596850899997662,1265.7343507000005,1265.7343507000005,23,1.115,,,,,sub-044,75,110,700,bloc_loop.csv,2023-08-24_15h23.12.081,PainUncertainty,2022.2.5,142.95435182165255,
grave,forte,stimuli/330Hz,stimuli/forte,bloc_7,prob80hthp_12trials.xlsx,2,24,80,20,1,,,,,0,6,6,6,1,7,19,5,,,,,,,,4.8,1265.7343507000005,1270.5341262000002,1270.5341996100003,0.30031640000015614,1270.9790011000005,1270.9790011000005,m,0.6789207999972859,1274.6542147,1274.6542147,19,2.935,,,,,sub-044,75,110,700,bloc_loop.csv,2023-08-24_15h23.12.081,PainUncertainty,2022.2.5,142.95435182165255,
aigu,forte,stimuli/660Hz,stimuli/forte,bloc_7,prob80hthp_12trials.xlsx,2,24,80,20,1,,,,,0,6,6,6,1,8,20,8,,,,,,,,4.4,1274.6542147,1279.0559756000002,1279.056057210001,0.30492320000121254,1279.500119700002,1279.500119700002,m,0.5944245999962732,1282.040474700003,1282.040474700003,24,1.872,,,,,sub-044,75,110,700,bloc_loop.csv,2023-08-24_15h23.12.081,PainUncertainty,2022.2.5,142.95435182165255,
grave,moderee,stimuli/330Hz,stimuli/moderee,bloc_7,prob80hthp_12trials.xlsx,2,24,80,20,1,,,,,0,6,6,6,1,9,21,4,,,,,,,,4.8,1282.040474700003,1286.8423040000016,1286.8419756100018,0.3048817000017152,1287.285993900001,1287.285993900001,n,0.9839340999969863,1290.5431032000015,1290.5431032000015,22,2.212,,,,,sub-044,75,110,700,bloc_loop.csv,2023-08-24_15h23.12.081,PainUncertainty,2022.2.5,142.95435182165255,
grave,moderee,stimuli/330Hz,stimuli/moderee,bloc_7,prob80hthp_12trials.xlsx,2,24,80,20,1,,,,,0,6,6,6,1,10,22,0,,,,,,,,3.6,1290.5431032000015,1294.1484775000026,1294.1484824100014,0.30534439999973984,1294.5965194000019,1294.5965194000019,n,0.8819928999982949,1298.2809344000016,1298.2809344000016,3,2.712,,,,,sub-044,75,110,700,bloc_loop.csv,2023-08-24_15h23.12.081,PainUncertainty,2022.2.5,142.95435182165255,
aigu,forte,stimuli/660Hz,stimuli/forte,bloc_7,prob80hthp_12trials.xlsx,2,24,80,20,1,,,,,0,6,6,6,1,11,23,6,,,,,,,,4.4,1298.2809344000016,1302.6840884000012,1302.6840056100016,0.30498979999902076,1303.128399600002,1303.128399600002,m,0.6407545999973081,1309.1600424000026,1309.1600424000026,27,3.358,,,,,sub-044,75,110,700,bloc_loop.csv,2023-08-24_15h23.12.081,PainUncertainty,2022.2.5,142.95435182165255,
,,,,bloc_7,prob80hthp_12trials.xlsx,2,24,80,20,1,,,,,0,6,6,6,,,,,0,0,0,0,,,,,,,,,,,,,,,,,1309.1600424000026,1385.6727664000027,,,sub-044,75,110,700,bloc_loop.csv,2023-08-24_15h23.12.081,PainUncertainty,2022.2.5,142.95435182165255,
grave,moderee,stimuli/330Hz,stimuli/moderee,bloc_8,prob50_50_4trials.xlsx,3,12,50,50,0,,,,,0,7,7,7,0,0,0,0,,,,,,,,3.3,1386.632281600003,1389.9376138000007,1389.9374761100014,0.3050714999990305,1390.3813020000016,1390.3813020000016,n,0.6141635999956634,1392.9768455000012,1392.9768455000012,3,1.9,,,,,sub-044,75,110,700,bloc_loop.csv,2023-08-24_15h23.12.081,PainUncertainty,2022.2.5,142.95435182165255,
aigu,forte,stimuli/660Hz,stimuli/forte,bloc_8,prob50_50_4trials.xlsx,3,12,50,50,0,,,,,0,7,7,7,0,1,1,3,,,,,,,,4.7,1392.9768455000012,1397.6814586,1397.6814446100004,0.3050753999996232,1398.1292472999994,1398.1292472999994,m,0.530867199999193,1400.1865867000015,1400.1865867000015,22,1.449,,,,,sub-044,75,110,700,bloc_loop.csv,2023-08-24_15h23.12.081,PainUncertainty,2022.2.5,142.95435182165255,
aigu,moderee,stimuli/660Hz,stimuli/moderee,bloc_8,prob50_50_4trials.xlsx,3,12,50,50,0,,,,,0,7,7,7,0,2,2,2,,,,,,,,3.1,1400.1865867000015,1403.285911400002,1403.2859305099998,0.30531320000227424,1403.7300998000028,1403.7300998000028,n,0.7637122999985877,1407.0604789999998,1407.0604789999998,4,2.499,,,,,sub-044,75,110,700,bloc_loop.csv,2023-08-24_15h23.12.081,PainUncertainty,2022.2.5,142.95435182165255,
grave,forte,stimuli/330Hz,stimuli/forte,bloc_8,prob50_50_4trials.xlsx,3,12,50,50,0,,,,,0,7,7,7,0,3,3,1,,,,,,,,4.9,1407.0604789999998,1411.9606268999996,1411.9606519100023,0.30500469999969937,1412.4048963999994,1412.4048963999994,m,0.678704399997514,1415.7874136000028,1415.7874136000028,23,2.651,,,,,sub-044,75,110,700,bloc_loop.csv,2023-08-24_15h23.12.081,PainUncertainty,2022.2.5,142.95435182165255,
grave,forte,stimuli/330Hz,stimuli/forte,bloc_8,prob50_50_4trials.xlsx,3,12,50,50,0,,,,,0,7,7,7,1,0,4,1,,,,,,,,3.7,1415.7874136000028,1419.4894878000014,1419.4895588100014,0.3047028000000864,1419.9334479000026,1419.9334479000026,m,1.1909369999993942,1423.1232823999999,1423.1232823999999,23,1.933,,,,,sub-044,75,110,700,bloc_loop.csv,2023-08-24_15h23.12.081,PainUncertainty,2022.2.5,142.95435182165255,
aigu,forte,stimuli/660Hz,stimuli/forte,bloc_8,prob50_50_4trials.xlsx,3,12,50,50,0,,,,,0,7,7,7,1,1,5,3,,,,,,,,3.6,1423.1232823999999,1426.726958700001,1426.726924610001,0.30522930000006454,1427.173504100003,1427.173504100003,m,0.574363199997606,1428.8634483999995,1428.8634483999995,25,1.039,,,,,sub-044,75,110,700,bloc_loop.csv,2023-08-24_15h23.12.081,PainUncertainty,2022.2.5,142.95435182165255,
grave,moderee,stimuli/330Hz,stimuli/moderee,bloc_8,prob50_50_4trials.xlsx,3,12,50,50,0,,,,,0,7,7,7,1,2,6,0,,,,,,,,4.1,1428.8634483999995,1432.963188400001,1432.9633917100007,0.3046384000008402,1433.407517800002,1433.407517800002,n,0.5567713999989792,1437.0948921000017,1437.0948921000017,0,3.067,,,,,sub-044,75,110,700,bloc_loop.csv,2023-08-24_15h23.12.081,PainUncertainty,2022.2.5,142.95435182165255,
aigu,moderee,stimuli/660Hz,stimuli/moderee,bloc_8,prob50_50_4trials.xlsx,3,12,50,50,0,,,,,0,7,7,7,1,3,7,2,,,,,,,,4.4,1437.0948921000017,1441.4990287,1441.4989852100014,0.3048391000011179,1441.9435637000024,1441.9435637000024,n,0.7505059999966761,1445.0082253,1445.0082253,2,2.247,,,,,sub-044,75,110,700,bloc_loop.csv,2023-08-24_15h23.12.081,PainUncertainty,2022.2.5,142.95435182165255,
grave,forte,stimuli/330Hz,stimuli/forte,bloc_8,prob50_50_4trials.xlsx,3,12,50,50,0,,,,,0,7,7,7,2,0,8,1,,,,,,,,3.2,1445.0082253,1448.2079672,1448.2080956100006,0.30549079999764217,1448.6565523999998,1448.6565523999998,m,0.6485709999979008,1452.5844048,1452.5844048,22,3.213,,,,,sub-044,75,110,700,bloc_loop.csv,2023-08-24_15h23.12.081,PainUncertainty,2022.2.5,142.95435182165255,
grave,moderee,stimuli/330Hz,stimuli/moderee,bloc_8,prob50_50_4trials.xlsx,3,12,50,50,0,,,,,0,7,7,7,2,1,9,0,,,,,,,,4,1452.5844048,1456.5839182000018,1456.5840385100025,0.3004027999995742,1457.0286945000007,1457.0286945000007,n,1.551064999999653,1460.0342946000019,1460.0342946000019,2,1.372,,,,,sub-044,75,110,700,bloc_loop.csv,2023-08-24_15h23.12.081,PainUncertainty,2022.2.5,142.95435182165255,
aigu,forte,stimuli/660Hz,stimuli/forte,bloc_8,prob50_50_4trials.xlsx,3,12,50,50,0,,,,,0,7,7,7,2,2,10,3,,,,,,,,3.7,1460.0342946000019,1463.737879700002,1463.737866010001,0.30502049999995506,1464.1818488999997,1464.1818488999997,m,0.934073399999761,1466.3801041000006,1466.3801041000006,27,1.192,,,,,sub-044,75,110,700,bloc_loop.csv,2023-08-24_15h23.12.081,PainUncertainty,2022.2.5,142.95435182165255,
aigu,moderee,stimuli/660Hz,stimuli/moderee,bloc_8,prob50_50_4trials.xlsx,3,12,50,50,0,,,,,0,7,7,7,2,3,11,2,,,,,,,,3.2,1466.3801041000006,1469.5855864000005,1469.5856126100014,0.3053175999993982,1470.0321796000026,1470.0321796000026,n,0.6311739999982819,1473.5265163000004,1473.5265163000004,0,2.776,,,,,sub-044,75,110,700,bloc_loop.csv,2023-08-24_15h23.12.081,PainUncertainty,2022.2.5,142.95435182165255,
grave,forte,stimuli/330Hz,stimuli/forte,bloc_9,prob20hthp_12trials.xlsx,3,36,80,20,0,,,,,0,8,8,8,0,0,0,2,,,,,,,,3,1473.5265163000004,1476.5310209000017,1476.531090010002,0.30141379999986384,1476.9755556000018,1476.9755556000018,m,0.6362215999979526,1478.8145330000007,1478.8145330000007,25,1.143,,,,,sub-044,75,110,700,bloc_loop.csv,2023-08-24_15h23.12.081,PainUncertainty,2022.2.5,142.95435182165255,
grave,forte,stimuli/330Hz,stimuli/forte,bloc_9,prob20hthp_12trials.xlsx,3,36,80,20,0,,,,,0,8,8,8,0,1,1,1,,,,,,,,4.5,1478.8145330000007,1483.3162405000003,1483.3163533100021,0.3048577000008663,1483.7650742000005,1483.7650742000005,n,0.6248567999973602,1486.4083519000014,1486.4083519000014,0,1.948,,,,,sub-044,75,110,700,bloc_loop.csv,2023-08-24_15h23.12.081,PainUncertainty,2022.2.5,142.95435182165255,
aigu,moderee,stimuli/660Hz,stimuli/moderee,bloc_9,prob20hthp_12trials.xlsx,3,36,80,20,0,,,,,0,8,8,8,0,2,2,8,,,,,,,,3.3,1486.4083519000014,1489.712771800001,1489.7129059100014,0.30492940000112867,1490.1608492000014,1490.1608492000014,n,0.620028999997885,1492.1139957000014,1492.1139957000014,1,1.275,,,,,sub-044,75,110,700,bloc_loop.csv,2023-08-24_15h23.12.081,PainUncertainty,2022.2.5,142.95435182165255,
aigu,moderee,stimuli/660Hz,stimuli/moderee,bloc_9,prob20hthp_12trials.xlsx,3,36,80,20,0,,,,,0,8,8,8,0,3,3,10,,,,,,,,3.8,1492.1139957000014,1495.9149460000008,1495.9149116100023,0.3051187999990361,1496.3591455000023,1496.3591455000023,n,0.8562918999959948,1498.6059897000014,1498.6059897000014,1,1.308,,,,,sub-044,75,110,700,bloc_loop.csv,2023-08-24_15h23.12.081,PainUncertainty,2022.2.5,142.95435182165255,
grave,forte,stimuli/330Hz,stimuli/forte,bloc_9,prob20hthp_12trials.xlsx,3,36,80,20,0,,,,,0,8,8,8,0,4,4,0,,,,,,,,3.4,1498.6059897000014,1502.0064611000016,1502.006366510003,0.29968409999855794,1502.4508013000013,1502.4508013000013,m,0.5947187999991002,1504.5197219000001,1504.5197219000001,24,1.405,,,,,sub-044,75,110,700,bloc_loop.csv,2023-08-24_15h23.12.081,PainUncertainty,2022.2.5,142.95435182165255,
aigu,moderee,stimuli/660Hz,stimuli/moderee,bloc_9,prob20hthp_12trials.xlsx,3,36,80,20,0,,,,,0,8,8,8,0,5,5,6,,,,,,,,3,1504.5197219000001,1507.5204207999996,1507.5207737099997,0.3053622000006726,1507.9673619000023,1507.9673619000023,n,0.5339196999993874,1511.6315396999998,1511.6315396999998,0,3.074,,,,,sub-044,75,110,700,bloc_loop.csv,2023-08-24_15h23.12.081,PainUncertainty,2022.2.5,142.95435182165255,
aigu,moderee,stimuli/660Hz,stimuli/moderee,bloc_9,prob20hthp_12trials.xlsx,3,36,80,20,0,,,,,0,8,8,8,0,6,6,7,,,,,,,,3.7,1511.6315396999998,1515.3340224000021,1515.334134810001,0.3006690999973216,1515.7783426000024,1515.7783426000024,n,0.5821469999973488,1519.9782551000026,1519.9782551000026,0,3.539,,,,,sub-044,75,110,700,bloc_loop.csv,2023-08-24_15h23.12.081,PainUncertainty,2022.2.5,142.95435182165255,
aigu,forte,stimuli/660Hz,stimuli/forte,bloc_9,prob20hthp_12trials.xlsx,3,36,80,20,0,,,,,0,8,8,8,0,7,7,11,,,,,,,,4.9,1519.9782551000026,1524.8836198999998,1524.8837087100007,0.30506160000004456,1525.3278132000014,1525.3278132000014,m,0.640959299995302,1530.5261054000002,1530.5261054000002,17,4.497,,,,,sub-044,75,110,700,bloc_loop.csv,2023-08-24_15h23.12.081,PainUncertainty,2022.2.5,142.95435182165255,
grave,forte,stimuli/330Hz,stimuli/forte,bloc_9,prob20hthp_12trials.xlsx,3,36,80,20,0,,,,,0,8,8,8,0,8,8,4,,,,,,,,4.7,1530.5261054000002,1535.2251509000016,1535.2251637100023,0.30501100000037695,1535.6693333000003,1535.6693333000003,m,1.772417599997425,1539.334069200002,1539.334069200002,17,1.835,,,,,sub-044,75,110,700,bloc_loop.csv,2023-08-24_15h23.12.081,PainUncertainty,2022.2.5,142.95435182165255,
grave,forte,stimuli/330Hz,stimuli/forte,bloc_9,prob20hthp_12trials.xlsx,3,36,80,20,0,,,,,0,8,8,8,0,9,9,3,,,,,,,,5,1539.334069200002,1544.3374798000004,1544.3375146100013,0.30498569999690517,1544.7816090000015,1544.7816090000015,m,0.7358969999986584,1547.7269068000023,1547.7269068000023,19,2.142,,,,,sub-044,75,110,700,bloc_loop.csv,2023-08-24_15h23.12.081,PainUncertainty,2022.2.5,142.95435182165255,
grave,moderee,stimuli/330Hz,stimuli/moderee,bloc_9,prob20hthp_12trials.xlsx,3,36,80,20,0,,,,,0,8,8,8,0,10,10,5,,,,,,,,3.1,1547.7269068000023,1550.8314382999997,1550.8313581100017,0.3048587999983283,1551.275353500001,1551.275353500001,n,0.7945091999972647,1555.1751803000006,1555.1751803000006,2,3.038,,,,,sub-044,75,110,700,bloc_loop.csv,2023-08-24_15h23.12.081,PainUncertainty,2022.2.5,142.95435182165255,
aigu,moderee,stimuli/660Hz,stimuli/moderee,bloc_9,prob20hthp_12trials.xlsx,3,36,80,20,0,,,,,0,8,8,8,0,11,11,9,,,,,,,,4.8,1555.1751803000006,1559.9782438000002,1559.9783619100024,0.30479750000085915,1560.4265068000022,1560.4265068000022,n,0.5794818999966083,1563.5528962999997,1563.5528962999997,2,2.47,,,,,sub-044,75,110,700,bloc_loop.csv,2023-08-24_15h23.12.081,PainUncertainty,2022.2.5,142.95435182165255,
grave,forte,stimuli/330Hz,stimuli/forte,bloc_9,prob20hthp_12trials.xlsx,3,36,80,20,0,,,,,0,8,8,8,1,0,12,4,,,,,,,,3.9,1563.5528962999997,1567.4586058000023,1567.4585944100006,0.3050061999965692,1567.902517300001,1567.902517300001,m,0.4629051999982039,1569.6113501,1569.6113501,22,1.163,,,,,sub-044,75,110,700,bloc_loop.csv,2023-08-24_15h23.12.081,PainUncertainty,2022.2.5,142.95435182165255,
aigu,moderee,stimuli/660Hz,stimuli/moderee,bloc_9,prob20hthp_12trials.xlsx,3,36,80,20,0,,,,,0,8,8,8,1,1,13,9,,,,,,,,4.9,1569.6113501,1574.5148995000018,1574.5161344100022,0.3037197000012384,1574.958778100001,1574.958778100001,n,0.7861268999949971,1578.3539203,1578.3539203,2,2.532,,,,,sub-044,75,110,700,bloc_loop.csv,2023-08-24_15h23.12.081,PainUncertainty,2022.2.5,142.95435182165255,
grave,forte,stimuli/330Hz,stimuli/forte,bloc_9,prob20hthp_12trials.xlsx,3,36,80,20,0,,,,,0,8,8,8,1,2,14,1,,,,,,,,3.3,1578.3539203,1581.6542625000002,1581.654186110002,0.3052099000015005,1582.102367200001,1582.102367200001,m,0.5840315999994345,1584.4112747,1584.4112747,25,1.659,,,,,sub-044,75,110,700,bloc_loop.csv,2023-08-24_15h23.12.081,PainUncertainty,2022.2.5,142.95435182165255,
grave,forte,stimuli/330Hz,stimuli/forte,bloc_9,prob20hthp_12trials.xlsx,3,36,80,20,0,,,,,0,8,8,8,1,3,15,3,,,,,,,,4.4,1584.4112747,1588.8151091,1588.814848310002,0.30531860000337474,1589.2609008,1589.2609008,m,0.8284087999963958,1591.493491600002,1591.493491600002,21,1.323,,,,,sub-044,75,110,700,bloc_loop.csv,2023-08-24_15h23.12.081,PainUncertainty,2022.2.5,142.95435182165255,
aigu,moderee,stimuli/660Hz,stimuli/moderee,bloc_9,prob20hthp_12trials.xlsx,3,36,80,20,0,,,,,0,8,8,8,1,4,16,10,,,,,,,,3.2,1591.493491600002,1594.6974788000007,1594.6974959100014,0.30536039999788045,1595.1455599,1595.1455599,n,1.0124406999966595,1597.5684414999996,1597.5684414999996,3,1.329,,,,,sub-044,75,110,700,bloc_loop.csv,2023-08-24_15h23.12.081,PainUncertainty,2022.2.5,142.95435182165255,
grave,forte,stimuli/330Hz,stimuli/forte,bloc_9,prob20hthp_12trials.xlsx,3,36,80,20,0,,,,,0,8,8,8,1,5,17,0,,,,,,,,3.1,1597.5684414999996,1600.6706306000015,1600.670515810002,0.30521760000192444,1601.1145572000023,1601.1145572000023,m,0.51217149999502,1602.7621029000002,1602.7621029000002,21,1.071,,,,,sub-044,75,110,700,bloc_loop.csv,2023-08-24_15h23.12.081,PainUncertainty,2022.2.5,142.95435182165255,
grave,forte,stimuli/330Hz,stimuli/forte,bloc_9,prob20hthp_12trials.xlsx,3,36,80,20,0,,,,,0,8,8,8,1,6,18,2,,,,,,,,4.4,1602.7621029000002,1607.1642649000023,1607.1643455100027,0.3012101000022085,1607.6088679000022,1607.6088679000022,m,0.5364601999972365,1609.4769723999998,1609.4769723999998,21,1.259,,,,,sub-044,75,110,700,bloc_loop.csv,2023-08-24_15h23.12.081,PainUncertainty,2022.2.5,142.95435182165255,
grave,moderee,stimuli/330Hz,stimuli/moderee,bloc_9,prob20hthp_12trials.xlsx,3,36,80,20,0,,,,,0,8,8,8,1,7,19,5,,,,,,,,3.8,1609.4769723999998,1613.2761401000025,1613.2760467100022,0.30518600000141305,1613.7202971000006,1613.7202971000006,n,1.1231658999968204,1617.277959500003,1617.277959500003,2,2.359,,,,,sub-044,75,110,700,bloc_loop.csv,2023-08-24_15h23.12.081,PainUncertainty,2022.2.5,142.95435182165255,
aigu,forte,stimuli/660Hz,stimuli/forte,bloc_9,prob20hthp_12trials.xlsx,3,36,80,20,0,,,,,0,8,8,8,1,8,20,11,,,,,,,,3.4,1617.277959500003,1620.6802762000007,1620.6804973100013,0.3048345999995945,1621.1244146999998,1621.1244146999998,m,0.5006690999980492,1624.279061600002,1624.279061600002,22,2.574,,,,,sub-044,75,110,700,bloc_loop.csv,2023-08-24_15h23.12.081,PainUncertainty,2022.2.5,142.95435182165255,
aigu,moderee,stimuli/660Hz,stimuli/moderee,bloc_9,prob20hthp_12trials.xlsx,3,36,80,20,0,,,,,0,8,8,8,1,9,21,8,,,,,,,,3.5,1624.279061600002,1627.785144900001,1627.7846557100027,0.3008601000001363,1628.229376000003,1628.229376000003,n,0.9414923999975144,1631.135881600003,1631.135881600003,2,1.914,,,,,sub-044,75,110,700,bloc_loop.csv,2023-08-24_15h23.12.081,PainUncertainty,2022.2.5,142.95435182165255,
aigu,moderee,stimuli/660Hz,stimuli/moderee,bloc_9,prob20hthp_12trials.xlsx,3,36,80,20,0,,,,,0,8,8,8,1,10,22,7,,,,,,,,4.3,1631.135881600003,1635.4384540000028,1635.4384710100028,0.3051138999981049,1635.8826036000028,1635.8826036000028,n,0.5302940999972634,1640.054697800002,1640.054697800002,0,3.581,,,,,sub-044,75,110,700,bloc_loop.csv,2023-08-24_15h23.12.081,PainUncertainty,2022.2.5,142.95435182165255,
aigu,moderee,stimuli/660Hz,stimuli/moderee,bloc_9,prob20hthp_12trials.xlsx,3,36,80,20,0,,,,,0,8,8,8,1,11,23,6,,,,,,,,4,1640.054697800002,1644.0575592000023,1644.057626810002,0.30504479999945033,1644.5089946000007,1644.5089946000007,n,0.7364479999960167,1647.9855860000025,1647.9855860000025,1,2.677,,,,,sub-044,75,110,700,bloc_loop.csv,2023-08-24_15h23.12.081,PainUncertainty,2022.2.5,142.95435182165255,
aigu,moderee,stimuli/660Hz,stimuli/moderee,bloc_9,prob20hthp_12trials.xlsx,3,36,80,20,0,,,,,0,8,8,8,2,0,24,6,,,,,,,,5,1647.9855860000025,1652.9890425000012,1652.9890456100009,0.30508629999894765,1653.4334316000022,1653.4334316000022,n,0.6563534999986587,1658.1998297999999,1658.1998297999999,0,4.048,,,,,sub-044,75,110,700,bloc_loop.csv,2023-08-24_15h23.12.081,PainUncertainty,2022.2.5,142.95435182165255,
aigu,moderee,stimuli/660Hz,stimuli/moderee,bloc_9,prob20hthp_12trials.xlsx,3,36,80,20,0,,,,,0,8,8,8,2,1,25,7,,,,,,,,3.8,1658.1998297999999,1662.0044191000015,1662.0044625100024,0.3007730999997875,1662.4492516999999,1662.4492516999999,n,0.987782199998037,1666.7673661000008,1666.7673661000008,1,3.253,,,,,sub-044,75,110,700,bloc_loop.csv,2023-08-24_15h23.12.081,PainUncertainty,2022.2.5,142.95435182165255,
grave,forte,stimuli/330Hz,stimuli/forte,bloc_9,prob20hthp_12trials.xlsx,3,36,80,20,0,,,,,0,8,8,8,2,2,26,3,,,,,,,,4.1,1666.7673661000008,1670.8730961,1670.8731291100019,0.305266199997277,1671.3173005999997,1671.3173005999997,m,0.5777554999986023,1674.471963600001,1674.471963600001,22,2.498,,,,,sub-044,75,110,700,bloc_loop.csv,2023-08-24_15h23.12.081,PainUncertainty,2022.2.5,142.95435182165255,
aigu,moderee,stimuli/660Hz,stimuli/moderee,bloc_9,prob20hthp_12trials.xlsx,3,36,80,20,0,,,,,0,8,8,8,2,3,27,10,,,,,,,,4.8,1674.471963600001,1679.2768928000005,1679.2770246100015,0.30514750000293134,1679.7218190000021,1679.7218190000021,n,0.6641959999979008,1682.7520700999994,1682.7520700999994,2,2.288,,,,,sub-044,75,110,700,bloc_loop.csv,2023-08-24_15h23.12.081,PainUncertainty,2022.2.5,142.95435182165255,
grave,forte,stimuli/330Hz,stimuli/forte,bloc_9,prob20hthp_12trials.xlsx,3,36,80,20,0,,,,,0,8,8,8,2,4,28,2,,,,,,,,5,1682.7520700999994,1687.757112700001,1687.7570773100022,0.305110400000558,1688.2012281000025,1688.2012281000025,m,0.7433941999988747,1690.552668100001,1690.552668100001,22,1.532,,,,,sub-044,75,110,700,bloc_loop.csv,2023-08-24_15h23.12.081,PainUncertainty,2022.2.5,142.95435182165255,
grave,moderee,stimuli/330Hz,stimuli/moderee,bloc_9,prob20hthp_12trials.xlsx,3,36,80,20,0,,,,,0,8,8,8,2,5,29,5,,,,,,,,4.3,1690.552668100001,1694.8556293000001,1694.8556092100014,0.29979219999950146,1695.3000428000014,1695.3000428000014,m,1.9171399999977439,1700.25518,1700.25518,18,2.982,,,,,sub-044,75,110,700,bloc_loop.csv,2023-08-24_15h23.12.081,PainUncertainty,2022.2.5,142.95435182165255,
aigu,moderee,stimuli/660Hz,stimuli/moderee,bloc_9,prob20hthp_12trials.xlsx,3,36,80,20,0,,,,,0,8,8,8,2,6,30,9,,,,,,,,5,1700.25518,1705.2591649999995,1705.2593208100013,0.30498249999800464,1705.7033026999998,1705.7033026999998,n,0.632305199997063,1709.1600246000016,1709.1600246000016,3,2.755,,,,,sub-044,75,110,700,bloc_loop.csv,2023-08-24_15h23.12.081,PainUncertainty,2022.2.5,142.95435182165255,
aigu,forte,stimuli/660Hz,stimuli/forte,bloc_9,prob20hthp_12trials.xlsx,3,36,80,20,0,,,,,0,8,8,8,2,7,31,11,,,,,,,,4.3,1709.1600246000016,1713.4619496000014,1713.4619408100014,0.3063321999979962,1713.9133330000004,1713.9133330000004,m,0.518584399997053,1716.5930695999996,1716.5930695999996,19,2.081,,,,,sub-044,75,110,700,bloc_loop.csv,2023-08-24_15h23.12.081,PainUncertainty,2022.2.5,142.95435182165255,
aigu,moderee,stimuli/660Hz,stimuli/moderee,bloc_9,prob20hthp_12trials.xlsx,3,36,80,20,0,,,,,0,8,8,8,2,8,32,8,,,,,,,,4.5,1716.5930695999996,1721.0945958000011,1721.0947963100014,0.30472419999932754,1721.5388480000001,1721.5388480000001,n,0.5575808999965375,1726.503909500003,1726.503909500003,1,4.323,,,,,sub-044,75,110,700,bloc_loop.csv,2023-08-24_15h23.12.081,PainUncertainty,2022.2.5,142.95435182165255,
grave,forte,stimuli/330Hz,stimuli/forte,bloc_9,prob20hthp_12trials.xlsx,3,36,80,20,0,,,,,0,8,8,8,2,9,33,4,,,,,,,,3.1,1726.503909500003,1729.6091917000012,1729.6093252100006,0.3051038999983575,1730.053645600001,1730.053645600001,m,0.5913243999966653,1732.3850717000023,1732.3850717000023,28,1.686,,,,,sub-044,75,110,700,bloc_loop.csv,2023-08-24_15h23.12.081,PainUncertainty,2022.2.5,142.95435182165255,
grave,forte,stimuli/330Hz,stimuli/forte,bloc_9,prob20hthp_12trials.xlsx,3,36,80,20,0,,,,,0,8,8,8,2,10,34,0,,,,,,,,4.9,1732.3850717000023,1737.2904662,1737.2909680100026,0.30458079999880283,1737.7349246000012,1737.7349246000012,m,0.61989149999863,1740.1846000000005,1740.1846000000005,25,1.768,,,,,sub-044,75,110,700,bloc_loop.csv,2023-08-24_15h23.12.081,PainUncertainty,2022.2.5,142.95435182165255,
grave,forte,stimuli/330Hz,stimuli/forte,bloc_9,prob20hthp_12trials.xlsx,3,36,80,20,0,,,,,0,8,8,8,2,11,35,1,,,,,,,,5,1740.1846000000005,1745.1880046000006,1745.1879140099998,0.3052642000002379,1745.6356651999995,1745.6356651999995,m,0.5352926999948977,1747.408105800001,1747.408105800001,26,1.212,,,,,sub-044,75,110,700,bloc_loop.csv,2023-08-24_15h23.12.081,PainUncertainty,2022.2.5,142.95435182165255,
