cue_,stimulus_,cue_fichier,stimulus_fichier,block_name,block_trials_file,block_n_reps,block_ntrials,block_prob_highP_highT,block_prob_highP_lowT,block_pause_after,Bloc_essai.thisRepN,Bloc_essai.thisTrialN,Bloc_essai.thisN,Bloc_essai.thisIndex,blocks.thisRepN,blocks.thisTrialN,blocks.thisN,blocks.thisIndex,trials.thisRepN,trials.thisTrialN,trials.thisN,trials.thisIndex,pause_loop.thisRepN,pause_loop.thisTrialN,pause_loop.thisN,pause_loop.thisIndex,key_resp_5.started,start_calib.started,key_resp_2.started,ISI_duration,pause.started,pause.stopped,cue.started,ISI.started,choice_pain.started,Choice.started,choice_pain.keys,choice_pain.rt,main_text.started,confirm_text.started,ratingScale.response,ratingScale.rt,participant,low_ma,high_ma,failsafe_ma,block_file,date,expName,psychopyVersion,frameRate
grave,forte,stimuli/330Hz,stimuli/forte,,,,,,,,0,0,0,1,,,,,,,,,,,,,17.465528200002154,19.296319300003233,42.042512400003034,4.8,42.918965300006676,47.72526010000729,47.730597839996335,0.30612910000490956,48.16890420000709,48.16890420000709,m,1.4129366999986814,52.70616770000197,52.70616770000197,53,2.916,sub-017,40,80,700,bloc_loop.csv,2023-05-31_10h45.06.921,PainUncertainty,2022.2.5,144.63512174018058
grave,moderee,stimuli/330Hz,stimuli/moderee,,,,,,,,0,1,1,0,,,,,,,,,,,,,,,,3.1,52.70616770000197,55.807961200000136,55.8079269200025,0.3051488000055542,56.25240029999986,56.25240029999986,n,0.7981063999905018,59.99387150000257,59.99387150000257,11,2.734,sub-017,40,80,700,bloc_loop.csv,2023-05-31_10h45.06.921,PainUncertainty,2022.2.5,144.63512174018058
aigu,moderee,stimuli/660Hz,stimuli/moderee,,,,,,,,0,2,2,2,,,,,,,,,,,,,,,,3.4,59.99387150000257,63.399460100001306,63.39976752000075,0.30475410001236014,63.843863100002636,63.843863100002636,n,0.8930806999997003,67.29413540000678,67.29413540000678,11,2.353,sub-017,40,80,700,bloc_loop.csv,2023-05-31_10h45.06.921,PainUncertainty,2022.2.5,144.63512174018058
aigu,forte,stimuli/660Hz,stimuli/forte,,,,,,,,0,3,3,3,,,,,,,,,,,,,,,,4.2,67.29413540000678,71.49750589999894,71.4974477200085,0.30194760000449605,71.94294490000175,71.94294490000175,m,0.5167457000061404,74.4816645999963,74.4816645999963,61,1.997,sub-017,40,80,700,bloc_loop.csv,2023-05-31_10h45.06.921,PainUncertainty,2022.2.5,144.63512174018058
grave,forte,stimuli/330Hz,stimuli/forte,bloc_1,prob20hthp_12trials.xlsx,4,48,20,80,0,,,,,0,0,0,0,0,0,0,2,,,,,,,,3.5,91.94950630000676,95.45178980000492,95.45183772000746,0.3049732999934349,95.89616980000574,95.89616980000574,m,1.4952990999881877,98.8533854999987,98.8533854999987,70,1.242,sub-017,40,80,700,bloc_loop.csv,2023-05-31_10h45.06.921,PainUncertainty,2022.2.5,144.63512174018058
grave,moderee,stimuli/330Hz,stimuli/moderee,bloc_1,prob20hthp_12trials.xlsx,4,48,20,80,0,,,,,0,0,0,0,0,1,1,5,,,,,,,,4.8,98.8533854999987,103.6542075000034,103.65407762000541,0.3023838000081014,104.09869159999653,104.09869159999653,n,0.46366529999068007,108.61577180000313,108.61577180000313,10,3.831,sub-017,40,80,700,bloc_loop.csv,2023-05-31_10h45.06.921,PainUncertainty,2022.2.5,144.63512174018058
grave,forte,stimuli/330Hz,stimuli/forte,bloc_1,prob20hthp_12trials.xlsx,4,48,20,80,0,,,,,0,0,0,0,0,2,2,0,,,,,,,,3.7,108.61577180000313,112.31544459999714,112.31527342000481,0.3041330999985803,112.76676700000826,112.76676700000826,m,0.5083297999954084,116.69986560000689,116.69986560000689,90,3.22,sub-017,40,80,700,bloc_loop.csv,2023-05-31_10h45.06.921,PainUncertainty,2022.2.5,144.63512174018058
aigu,moderee,stimuli/660Hz,stimuli/moderee,bloc_1,prob20hthp_12trials.xlsx,4,48,20,80,0,,,,,0,0,0,0,0,3,3,10,,,,,,,,3.7,116.69986560000689,120.39947600000596,120.39931142000569,0.302721100000781,120.845493300003,120.845493300003,n,0.48756520000461023,124.44754720000492,124.44754720000492,7,2.914,sub-017,40,80,700,bloc_loop.csv,2023-05-31_10h45.06.921,PainUncertainty,2022.2.5,144.63512174018058
grave,forte,stimuli/330Hz,stimuli/forte,bloc_1,prob20hthp_12trials.xlsx,4,48,20,80,0,,,,,0,0,0,0,0,4,4,3,,,,,,,,4.7,124.44754720000492,129.15038710000226,129.15031351999642,0.30523869999160524,129.59460650000256,129.59460650000256,m,0.4647129000077257,131.7494635000039,131.7494635000039,66,1.497,sub-017,40,80,700,bloc_loop.csv,2023-05-31_10h45.06.921,PainUncertainty,2022.2.5,144.63512174018058
aigu,moderee,stimuli/660Hz,stimuli/moderee,bloc_1,prob20hthp_12trials.xlsx,4,48,20,80,0,,,,,0,0,0,0,0,5,5,9,,,,,,,,4.9,131.7494635000039,136.65133870000136,136.6513306199995,0.3052959000051487,137.09987560000445,137.09987560000445,n,0.4929478999983985,139.59668060000695,139.59668060000695,4,1.797,sub-017,40,80,700,bloc_loop.csv,2023-05-31_10h45.06.921,PainUncertainty,2022.2.5,144.63512174018058
grave,forte,stimuli/330Hz,stimuli/forte,bloc_1,prob20hthp_12trials.xlsx,4,48,20,80,0,,,,,0,0,0,0,0,6,6,4,,,,,,,,3,139.59668060000695,142.5968920000014,142.59686502000113,0.3047853999887593,143.04114450000634,143.04114450000634,m,0.43493190000299364,145.71514860000752,145.71514860000752,72,2.032,sub-017,40,80,700,bloc_loop.csv,2023-05-31_10h45.06.921,PainUncertainty,2022.2.5,144.63512174018058
aigu,moderee,stimuli/660Hz,stimuli/moderee,bloc_1,prob20hthp_12trials.xlsx,4,48,20,80,0,,,,,0,0,0,0,0,7,7,7,,,,,,,,4.7,145.71514860000752,150.41691230000288,150.41687032000482,0.3003121000074316,150.86180710000917,150.86180710000917,n,0.3710741999966558,154.27928270000848,154.27928270000848,2,2.838,sub-017,40,80,700,bloc_loop.csv,2023-05-31_10h45.06.921,PainUncertainty,2022.2.5,144.63512174018058
aigu,moderee,stimuli/660Hz,stimuli/moderee,bloc_1,prob20hthp_12trials.xlsx,4,48,20,80,0,,,,,0,0,0,0,0,8,8,6,,,,,,,,4.2,154.27928270000848,158.4821423000103,158.48065672000666,0.3007134999934351,158.92524540000886,158.92524540000886,n,0.40368170000147074,161.1668631000066,161.1668631000066,5,1.637,sub-017,40,80,700,bloc_loop.csv,2023-05-31_10h45.06.921,PainUncertainty,2022.2.5,144.63512174018058
grave,forte,stimuli/330Hz,stimuli/forte,bloc_1,prob20hthp_12trials.xlsx,4,48,20,80,0,,,,,0,0,0,0,0,9,9,1,,,,,,,,4.3,161.1668631000066,165.4674204000039,165.46754102000705,0.3032372000016039,165.91263010000694,165.91263010000694,m,0.40263409999897704,169.13924760000373,169.13924760000373,82,2.623,sub-017,40,80,700,bloc_loop.csv,2023-05-31_10h45.06.921,PainUncertainty,2022.2.5,144.63512174018058
aigu,moderee,stimuli/660Hz,stimuli/moderee,bloc_1,prob20hthp_12trials.xlsx,4,48,20,80,0,,,,,0,0,0,0,0,10,10,8,,,,,,,,4.7,169.13924760000373,173.8436708000081,173.84375262000685,0.3036403000005521,174.28788550000172,174.28788550000172,n,0.44184929999755695,176.6339439000003,176.6339439000003,2,1.685,sub-017,40,80,700,bloc_loop.csv,2023-05-31_10h45.06.921,PainUncertainty,2022.2.5,144.63512174018058
aigu,forte,stimuli/660Hz,stimuli/forte,bloc_1,prob20hthp_12trials.xlsx,4,48,20,80,0,,,,,0,0,0,0,0,11,11,11,,,,,,,,3.4,176.6339439000003,180.03857859999698,180.03845932000695,0.2998645000043325,180.48313320000307,180.48313320000307,m,0.43625149999570567,183.24791060001007,183.24791060001007,80,2.118,sub-017,40,80,700,bloc_loop.csv,2023-05-31_10h45.06.921,PainUncertainty,2022.2.5,144.63512174018058
grave,moderee,stimuli/330Hz,stimuli/moderee,bloc_1,prob20hthp_12trials.xlsx,4,48,20,80,0,,,,,0,0,0,0,1,0,12,5,,,,,,,,3.8,183.24791060001007,187.05339159999858,187.05328372000804,0.3005847000022186,187.50022040000476,187.50022040000476,n,0.4009259000013117,189.44983019999927,189.44983019999927,5,1.326,sub-017,40,80,700,bloc_loop.csv,2023-05-31_10h45.06.921,PainUncertainty,2022.2.5,144.63512174018058
grave,forte,stimuli/330Hz,stimuli/forte,bloc_1,prob20hthp_12trials.xlsx,4,48,20,80,0,,,,,0,0,0,0,1,1,13,3,,,,,,,,3.3,189.44983019999927,192.7557128000044,192.75739282000723,0.30039650000981055,193.19991320000554,193.19991320000554,n,0.2651780000014696,195.83879200000956,195.83879200000956,78,2.163,sub-017,40,80,700,bloc_loop.csv,2023-05-31_10h45.06.921,PainUncertainty,2022.2.5,144.63512174018058
aigu,moderee,stimuli/660Hz,stimuli/moderee,bloc_1,prob20hthp_12trials.xlsx,4,48,20,80,0,,,,,0,0,0,0,1,2,14,7,,,,,,,,3.8,195.83879200000956,199.6382239000086,199.63823432000208,0.30273789999773726,200.0828451999987,200.0828451999987,n,0.400941400002921,203.0785026000085,203.0785026000085,2,2.386,sub-017,40,80,700,bloc_loop.csv,2023-05-31_10h45.06.921,PainUncertainty,2022.2.5,144.63512174018058
grave,forte,stimuli/330Hz,stimuli/forte,bloc_1,prob20hthp_12trials.xlsx,4,48,20,80,0,,,,,0,0,0,0,1,3,15,4,,,,,,,,3,203.0785026000085,206.08357319999777,206.08372532000794,0.30188929999712855,206.52806320000673,206.52806320000673,m,0.46920049999607727,209.66259819999686,209.66259819999686,92,2.443,sub-017,40,80,700,bloc_loop.csv,2023-05-31_10h45.06.921,PainUncertainty,2022.2.5,144.63512174018058
grave,forte,stimuli/330Hz,stimuli/forte,bloc_1,prob20hthp_12trials.xlsx,4,48,20,80,0,,,,,0,0,0,0,1,4,16,2,,,,,,,,3.2,209.66259819999686,212.86459209999884,212.8626985200026,0.3046693000069354,213.30674280000676,213.30674280000676,m,0.4529030999983661,215.69951610000862,215.69951610000862,95,1.733,sub-017,40,80,700,bloc_loop.csv,2023-05-31_10h45.06.921,PainUncertainty,2022.2.5,144.63512174018058
aigu,moderee,stimuli/660Hz,stimuli/moderee,bloc_1,prob20hthp_12trials.xlsx,4,48,20,80,0,,,,,0,0,0,0,1,5,17,6,,,,,,,,3.4,215.69951610000862,219.09902310000325,219.09908412000368,0.2998790999990888,219.5441021000006,219.5441021000006,n,0.4050215999886859,221.70897190000687,221.70897190000687,5,1.533,sub-017,40,80,700,bloc_loop.csv,2023-05-31_10h45.06.921,PainUncertainty,2022.2.5,144.63512174018058
aigu,moderee,stimuli/660Hz,stimuli/moderee,bloc_1,prob20hthp_12trials.xlsx,4,48,20,80,0,,,,,0,0,0,0,1,6,18,8,,,,,,,,4.5,221.70897190000687,226.2109380000038,226.21100682000542,0.30063610000070184,226.65635839999595,226.65635839999595,n,0.3828794000146445,229.93730950000463,229.93730950000463,3,2.705,sub-017,40,80,700,bloc_loop.csv,2023-05-31_10h45.06.921,PainUncertainty,2022.2.5,144.63512174018058
grave,forte,stimuli/330Hz,stimuli/forte,bloc_1,prob20hthp_12trials.xlsx,4,48,20,80,0,,,,,0,0,0,0,1,7,19,1,,,,,,,,3.5,229.93730950000463,233.44128980000096,233.44125271999656,0.3051490000070771,233.88592040000367,233.88592040000367,m,0.8311564999894472,236.13634700000694,236.13634700000694,85,1.213,sub-017,40,80,700,bloc_loop.csv,2023-05-31_10h45.06.921,PainUncertainty,2022.2.5,144.63512174018058
grave,forte,stimuli/330Hz,stimuli/forte,bloc_1,prob20hthp_12trials.xlsx,4,48,20,80,0,,,,,0,0,0,0,1,8,20,0,,,,,,,,4.3,236.13634700000694,240.44192470000417,240.4419268200072,0.3018632000021171,240.88657129999774,240.88657129999774,m,0.33106799999950454,243.42338000000746,243.42338000000746,97,1.998,sub-017,40,80,700,bloc_loop.csv,2023-05-31_10h45.06.921,PainUncertainty,2022.2.5,144.63512174018058
aigu,forte,stimuli/660Hz,stimuli/forte,bloc_1,prob20hthp_12trials.xlsx,4,48,20,80,0,,,,,0,0,0,0,1,9,21,11,,,,,,,,3.1,243.42338000000746,246.52639009999984,246.5262972200071,0.30392660001234617,246.97790150000947,246.97790150000947,m,0.5076818999950774,252.10059270000784,252.10059270000784,92,4.385,sub-017,40,80,700,bloc_loop.csv,2023-05-31_10h45.06.921,PainUncertainty,2022.2.5,144.63512174018058
aigu,moderee,stimuli/660Hz,stimuli/moderee,bloc_1,prob20hthp_12trials.xlsx,4,48,20,80,0,,,,,0,0,0,0,1,10,22,10,,,,,,,,3,252.10059270000784,255.10408859999734,255.10365392000676,0.30071169999428093,255.54788490000647,255.54788490000647,n,0.4563584000134142,258.60320359999605,258.60320359999605,7,2.375,sub-017,40,80,700,bloc_loop.csv,2023-05-31_10h45.06.921,PainUncertainty,2022.2.5,144.63512174018058
aigu,moderee,stimuli/660Hz,stimuli/moderee,bloc_1,prob20hthp_12trials.xlsx,4,48,20,80,0,,,,,0,0,0,0,1,11,23,9,,,,,,,,4.2,258.60320359999605,262.80581079999683,262.8056346200101,0.30064619999029674,263.25027400000545,263.25027400000545,n,0.48277109999617096,265.2662566000072,265.2662566000072,3,1.324,sub-017,40,80,700,bloc_loop.csv,2023-05-31_10h45.06.921,PainUncertainty,2022.2.5,144.63512174018058
grave,forte,stimuli/330Hz,stimuli/forte,bloc_1,prob20hthp_12trials.xlsx,4,48,20,80,0,,,,,0,0,0,0,2,0,24,3,,,,,,,,3.7,265.2662566000072,268.96628210000927,268.9660736200094,0.3002053999953205,269.41077329999825,269.41077329999825,m,0.3591660999954911,271.6906306000019,271.6906306000019,83,1.712,sub-017,40,80,700,bloc_loop.csv,2023-05-31_10h45.06.921,PainUncertainty,2022.2.5,144.63512174018058
grave,forte,stimuli/330Hz,stimuli/forte,bloc_1,prob20hthp_12trials.xlsx,4,48,20,80,0,,,,,0,0,0,0,2,1,25,1,,,,,,,,3.9,271.6906306000019,275.5924093000067,275.59230712000135,0.3048708999995142,276.036294000005,276.036294000005,m,0.4510576000029687,278.0172426000063,278.0172426000063,93,1.324,sub-017,40,80,700,bloc_loop.csv,2023-05-31_10h45.06.921,PainUncertainty,2022.2.5,144.63512174018058
aigu,forte,stimuli/660Hz,stimuli/forte,bloc_1,prob20hthp_12trials.xlsx,4,48,20,80,0,,,,,0,0,0,0,2,2,26,11,,,,,,,,4.6,278.0172426000063,282.6208154000051,282.62104642000486,0.3007278999866685,283.0654779000033,283.0654779000033,m,0.4605950999975903,286.5323925999983,286.5323925999983,92,2.81,sub-017,40,80,700,bloc_loop.csv,2023-05-31_10h45.06.921,PainUncertainty,2022.2.5,144.63512174018058
grave,moderee,stimuli/330Hz,stimuli/moderee,bloc_1,prob20hthp_12trials.xlsx,4,48,20,80,0,,,,,0,0,0,0,2,3,27,5,,,,,,,,4,286.5323925999983,290.5383984000073,290.5383046200077,0.3019064999971306,290.9826966999972,290.9826966999972,n,0.46187720001034904,293.8691487000033,293.8691487000033,2,2.206,sub-017,40,80,700,bloc_loop.csv,2023-05-31_10h45.06.921,PainUncertainty,2022.2.5,144.63512174018058
aigu,moderee,stimuli/660Hz,stimuli/moderee,bloc_1,prob20hthp_12trials.xlsx,4,48,20,80,0,,,,,0,0,0,0,2,4,28,7,,,,,,,,4.1,293.8691487000033,297.9698139999964,297.96971812000993,0.3054876000096556,298.41768630000297,298.41768630000297,n,0.49964530000579543,301.761078800002,301.761078800002,3,2.631,sub-017,40,80,700,bloc_loop.csv,2023-05-31_10h45.06.921,PainUncertainty,2022.2.5,144.63512174018058
grave,forte,stimuli/330Hz,stimuli/forte,bloc_1,prob20hthp_12trials.xlsx,4,48,20,80,0,,,,,0,0,0,0,2,5,29,2,,,,,,,,4.1,301.761078800002,305.86665060000087,305.8665722200021,0.3050599999987753,306.31080000000657,306.31080000000657,m,0.9844479000021238,309.28798170000664,309.28798170000664,68,1.775,sub-017,40,80,700,bloc_loop.csv,2023-05-31_10h45.06.921,PainUncertainty,2022.2.5,144.63512174018058
grave,forte,stimuli/330Hz,stimuli/forte,bloc_1,prob20hthp_12trials.xlsx,4,48,20,80,0,,,,,0,0,0,0,2,6,30,0,,,,,,,,3.9,309.28798170000664,313.19380999999703,313.19398761999764,0.30468240000482183,313.638059799996,313.638059799996,m,0.5538937000092119,315.9014048000099,315.9014048000099,97,1.491,sub-017,40,80,700,bloc_loop.csv,2023-05-31_10h45.06.921,PainUncertainty,2022.2.5,144.63512174018058
aigu,moderee,stimuli/660Hz,stimuli/moderee,bloc_1,prob20hthp_12trials.xlsx,4,48,20,80,0,,,,,0,0,0,0,2,7,31,6,,,,,,,,3.2,315.9014048000099,319.10433440000634,319.1042339199994,0.304728500006604,319.5488417000015,319.5488417000015,n,0.5580797000147868,321.8757435000007,321.8757435000007,3,1.56,sub-017,40,80,700,bloc_loop.csv,2023-05-31_10h45.06.921,PainUncertainty,2022.2.5,144.63512174018058
grave,forte,stimuli/330Hz,stimuli/forte,bloc_1,prob20hthp_12trials.xlsx,4,48,20,80,0,,,,,0,0,0,0,2,8,32,4,,,,,,,,4.4,321.8757435000007,326.2788528000092,326.2787235200012,0.30512600000656676,326.7232909000013,326.7232909000013,m,0.8098726999887731,330.1045419000002,330.1045419000002,97,2.372,sub-017,40,80,700,bloc_loop.csv,2023-05-31_10h45.06.921,PainUncertainty,2022.2.5,144.63512174018058
aigu,moderee,stimuli/660Hz,stimuli/moderee,bloc_1,prob20hthp_12trials.xlsx,4,48,20,80,0,,,,,0,0,0,0,2,9,33,9,,,,,,,,4.3,330.1045419000002,334.40595450000546,334.405401420001,0.30405989999417216,334.849240800002,334.849240800002,n,0.4603095999918878,337.1199484000099,337.1199484000099,14,1.601,sub-017,40,80,700,bloc_loop.csv,2023-05-31_10h45.06.921,PainUncertainty,2022.2.5,144.63512174018058
aigu,moderee,stimuli/660Hz,stimuli/moderee,bloc_1,prob20hthp_12trials.xlsx,4,48,20,80,0,,,,,0,0,0,0,2,10,34,8,,,,,,,,4,337.1199484000099,341.12102970000706,341.1209559199997,0.30487140000332147,341.5653577000048,341.5653577000048,n,0.4963306999998167,343.7179502000072,343.7179502000072,14,1.448,sub-017,40,80,700,bloc_loop.csv,2023-05-31_10h45.06.921,PainUncertainty,2022.2.5,144.63512174018058
aigu,moderee,stimuli/660Hz,stimuli/moderee,bloc_1,prob20hthp_12trials.xlsx,4,48,20,80,0,,,,,0,0,0,0,2,11,35,10,,,,,,,,4.5,343.7179502000072,348.21946809999645,348.21974701999716,0.30164640001021326,348.66445530000783,348.66445530000783,m,2.2696080999885453,353.22607289999723,353.22607289999723,45,2.071,sub-017,40,80,700,bloc_loop.csv,2023-05-31_10h45.06.921,PainUncertainty,2022.2.5,144.63512174018058
grave,moderee,stimuli/330Hz,stimuli/moderee,bloc_1,prob20hthp_12trials.xlsx,4,48,20,80,0,,,,,0,0,0,0,3,0,36,5,,,,,,,,3.3,353.22607289999723,356.52569320000475,356.5255780200023,0.3050937000080012,356.96979460000875,356.96979460000875,m,0.9849086000031093,359.85696790000657,359.85696790000657,43,1.705,sub-017,40,80,700,bloc_loop.csv,2023-05-31_10h45.06.921,PainUncertainty,2022.2.5,144.63512174018058
aigu,forte,stimuli/660Hz,stimuli/forte,bloc_1,prob20hthp_12trials.xlsx,4,48,20,80,0,,,,,0,0,0,0,3,1,37,11,,,,,,,,3.4,359.85696790000657,363.26262270000007,363.2626200200102,0.305420700009563,363.71104550000746,363.71104550000746,m,0.5517404999991413,367.0357479000086,367.0357479000086,97,2.602,sub-017,40,80,700,bloc_loop.csv,2023-05-31_10h45.06.921,PainUncertainty,2022.2.5,144.63512174018058
grave,forte,stimuli/330Hz,stimuli/forte,bloc_1,prob20hthp_12trials.xlsx,4,48,20,80,0,,,,,0,0,0,0,3,2,38,4,,,,,,,,4.9,367.0357479000086,371.93729860000894,371.9372475199998,0.3051615000003949,372.3857769000024,372.3857769000024,n,0.5387388000090141,374.0980169999966,374.0980169999966,0,1.044,sub-017,40,80,700,bloc_loop.csv,2023-05-31_10h45.06.921,PainUncertainty,2022.2.5,144.63512174018058
aigu,moderee,stimuli/660Hz,stimuli/moderee,bloc_1,prob20hthp_12trials.xlsx,4,48,20,80,0,,,,,0,0,0,0,3,3,39,10,,,,,,,,4.7,374.0980169999966,378.7992518999963,378.7992641200035,0.30489529999613296,379.247815900002,379.247815900002,n,0.6265232000005199,381.04349090000323,381.04349090000323,0,1.046,sub-017,40,80,700,bloc_loop.csv,2023-05-31_10h45.06.921,PainUncertainty,2022.2.5,144.63512174018058
grave,forte,stimuli/330Hz,stimuli/forte,bloc_1,prob20hthp_12trials.xlsx,4,48,20,80,0,,,,,0,0,0,0,3,4,40,0,,,,,,,,4.5,381.04349090000323,385.5431573000096,385.5433132200051,0.30505760000960436,385.99447200000577,385.99447200000577,n,0.4946098000073107,387.98861749999924,387.98861749999924,0,1.373,sub-017,40,80,700,bloc_loop.csv,2023-05-31_10h45.06.921,PainUncertainty,2022.2.5,144.63512174018058
aigu,moderee,stimuli/660Hz,stimuli/moderee,bloc_1,prob20hthp_12trials.xlsx,4,48,20,80,0,,,,,0,0,0,0,3,5,41,6,,,,,,,,3.5,387.98861749999924,391.48877840000205,391.4885922199974,0.2995956999948248,391.93273130001035,391.93273130001035,n,0.5125757999921916,393.3386476000014,393.3386476000014,0,0.768,sub-017,40,80,700,bloc_loop.csv,2023-05-31_10h45.06.921,PainUncertainty,2022.2.5,144.63512174018058
aigu,moderee,stimuli/660Hz,stimuli/moderee,bloc_1,prob20hthp_12trials.xlsx,4,48,20,80,0,,,,,0,0,0,0,3,6,42,7,,,,,,,,4.2,393.3386476000014,397.5446654999978,397.54448171999684,0.3000611999887042,397.98897659999784,397.98897659999784,n,0.4044321000110358,400.3949683999963,400.3949683999963,0,1.873,sub-017,40,80,700,bloc_loop.csv,2023-05-31_10h45.06.921,PainUncertainty,2022.2.5,144.63512174018058
grave,forte,stimuli/330Hz,stimuli/forte,bloc_1,prob20hthp_12trials.xlsx,4,48,20,80,0,,,,,0,0,0,0,3,7,43,2,,,,,,,,4.2,400.3949683999963,404.5940421999985,404.59402742000384,0.3062664000026416,405.03935629999614,405.03935629999614,n,0.4658013000007486,407.0120392000099,407.0120392000099,0,1.38,sub-017,40,80,700,bloc_loop.csv,2023-05-31_10h45.06.921,PainUncertainty,2022.2.5,144.63512174018058
grave,forte,stimuli/330Hz,stimuli/forte,bloc_1,prob20hthp_12trials.xlsx,4,48,20,80,0,,,,,0,0,0,0,3,8,44,1,,,,,,,,3.9,407.0120392000099,410.91606810000667,410.91463372,0.2999590999970678,411.35919640000793,411.35919640000793,n,0.3596916999958921,413.4292451000074,413.4292451000074,0,1.587,sub-017,40,80,700,bloc_loop.csv,2023-05-31_10h45.06.921,PainUncertainty,2022.2.5,144.63512174018058
aigu,moderee,stimuli/660Hz,stimuli/moderee,bloc_1,prob20hthp_12trials.xlsx,4,48,20,80,0,,,,,0,0,0,0,3,9,45,8,,,,,,,,4.9,413.4292451000074,418.3318411000073,418.3317398200088,0.3056217999983346,418.78028040000936,418.78028040000936,n,0.5328761999990093,421.2500648999994,421.2500648999994,0,1.811,sub-017,40,80,700,bloc_loop.csv,2023-05-31_10h45.06.921,PainUncertainty,2022.2.5,144.63512174018058
grave,forte,stimuli/330Hz,stimuli/forte,bloc_1,prob20hthp_12trials.xlsx,4,48,20,80,0,,,,,0,0,0,0,3,10,46,3,,,,,,,,4.3,421.2500648999994,425.5552883000055,425.5564344200029,0.3037070999998832,425.99937230000796,425.99937230000796,n,0.4467658999928972,427.70375790000253,427.70375790000253,0,1.13,sub-017,40,80,700,bloc_loop.csv,2023-05-31_10h45.06.921,PainUncertainty,2022.2.5,144.63512174018058
aigu,moderee,stimuli/660Hz,stimuli/moderee,bloc_1,prob20hthp_12trials.xlsx,4,48,20,80,0,,,,,0,0,0,0,3,11,47,9,,,,,,,,3.2,427.70375790000253,430.9033742000029,430.9033506199994,0.30619600000500213,431.35467739999876,431.35467739999876,n,0.4377798000059556,433.7755338999996,433.7755338999996,0,1.858,sub-017,40,80,700,bloc_loop.csv,2023-05-31_10h45.06.921,PainUncertainty,2022.2.5,144.63512174018058
aigu,moderee,stimuli/660Hz,stimuli/moderee,bloc_2,prob50_50_4trials.xlsx,2,8,50,50,0,,,,,0,0,0,0,0,0,0,2,,,,,21.11309739999706,27.395661399990786,42.042512400003034,4.1,29.59274259999802,33.69582490000175,33.70147137999302,0.3097719999932451,34.14606319999439,34.14606319999439,m,1.0201803000090877,37.477505699993344,37.477505699993344,34,2.091,sub-017,40,80,700,bloc_loopcontinue.csv,2023-05-31_10h57.03.779,PainUncertainty,2022.2.5,142.87837049962965
grave,forte,stimuli/330Hz,stimuli/forte,bloc_2,prob50_50_4trials.xlsx,2,8,50,50,0,,,,,0,0,0,0,0,1,1,1,,,,,,,,3.6,37.477505699993344,41.077734699996654,41.07797888999194,0.3087603999883868,41.52966469999228,41.52966469999228,m,0.822286400012672,44.857657399988966,44.857657399988966,66,2.294,sub-017,40,80,700,bloc_loopcontinue.csv,2023-05-31_10h57.03.779,PainUncertainty,2022.2.5,142.87837049962965
aigu,forte,stimuli/660Hz,stimuli/forte,bloc_2,prob50_50_4trials.xlsx,2,8,50,50,0,,,,,0,0,0,0,0,2,2,3,,,,,,,,3.2,44.857657399988966,48.05753249999543,48.057593489992726,0.3032762999937404,48.503474500001175,48.503474500001175,m,0.5154970000148751,51.10572519998823,51.10572519998823,87,1.859,sub-017,40,80,700,bloc_loopcontinue.csv,2023-05-31_10h57.03.779,PainUncertainty,2022.2.5,142.87837049962965
grave,moderee,stimuli/330Hz,stimuli/moderee,bloc_2,prob50_50_4trials.xlsx,2,8,50,50,0,,,,,0,0,0,0,0,3,3,0,,,,,,,,4.9,51.10572519998823,56.009799299994484,56.0097238900009,0.3000367000058759,56.44845179999538,56.44845179999538,n,0.47266130000934936,59.39334660000168,59.39334660000168,4,2.276,sub-017,40,80,700,bloc_loopcontinue.csv,2023-05-31_10h57.03.779,PainUncertainty,2022.2.5,142.87837049962965
grave,forte,stimuli/330Hz,stimuli/forte,bloc_2,prob50_50_4trials.xlsx,2,8,50,50,0,,,,,0,0,0,0,1,0,4,1,,,,,,,,3.6,59.39334660000168,62.99673919999623,62.996698189988095,0.2990147000091383,63.434849099998246,63.434849099998246,m,1.0988354000000982,66.1345497000002,66.1345497000002,88,1.386,sub-017,40,80,700,bloc_loopcontinue.csv,2023-05-31_10h57.03.779,PainUncertainty,2022.2.5,142.87837049962965
aigu,forte,stimuli/660Hz,stimuli/forte,bloc_2,prob50_50_4trials.xlsx,2,8,50,50,0,,,,,0,0,0,0,1,1,5,3,,,,,,,,4.3,66.1345497000002,70.43527239999094,70.43507048999454,0.30530239999643527,70.87934119999409,70.87934119999409,m,0.9918575000046985,73.94835099999909,73.94835099999909,73,1.851,sub-017,40,80,700,bloc_loopcontinue.csv,2023-05-31_10h57.03.779,PainUncertainty,2022.2.5,142.87837049962965
aigu,moderee,stimuli/660Hz,stimuli/moderee,bloc_2,prob50_50_4trials.xlsx,2,8,50,50,0,,,,,0,0,0,0,1,2,6,2,,,,,,,,4,73.94835099999909,77.95020110000041,77.95031799000135,0.2993770000030054,78.39432999999553,78.39432999999553,n,0.506693000002997,80.8005445000017,80.8005445000017,9,1.708,sub-017,40,80,700,bloc_loopcontinue.csv,2023-05-31_10h57.03.779,PainUncertainty,2022.2.5,142.87837049962965
grave,moderee,stimuli/330Hz,stimuli/moderee,bloc_2,prob50_50_4trials.xlsx,2,8,50,50,0,,,,,0,0,0,0,1,3,7,0,,,,,,,,4.3,80.8005445000017,85.10350810000091,85.10352628999244,0.3051681000069948,85.54770029999781,85.54770029999781,n,0.5592750000068918,87.76443989999825,87.76443989999825,7,1.447,sub-017,40,80,700,bloc_loopcontinue.csv,2023-05-31_10h57.03.779,PainUncertainty,2022.2.5,142.87837049962965
grave,moderee,stimuli/330Hz,stimuli/moderee,bloc_3,prob80hthp_12trials.xlsx,2,24,80,20,0,,,,,0,1,1,1,0,0,0,0,,,,,,,,4.6,87.76443989999825,92.36891359998845,92.36906408999785,0.3013509000011254,92.81387169999653,92.81387169999653,n,0.4798453000112204,95.99193379998906,95.99193379998906,4,2.483,sub-017,40,80,700,bloc_loopcontinue.csv,2023-05-31_10h57.03.779,PainUncertainty,2022.2.5,142.87837049962965
aigu,forte,stimuli/660Hz,stimuli/forte,bloc_3,prob80hthp_12trials.xlsx,2,24,80,20,0,,,,,0,1,1,1,0,1,1,6,,,,,,,,3.8,95.99193379998906,99.79276789999858,99.7932194900015,0.30468249999103136,100.23692640000081,100.23692640000081,m,0.8565737000026274,102.62211159999424,102.62211159999424,93,1.324,sub-017,40,80,700,bloc_loopcontinue.csv,2023-05-31_10h57.03.779,PainUncertainty,2022.2.5,142.87837049962965
grave,forte,stimuli/330Hz,stimuli/forte,bloc_3,prob80hthp_12trials.xlsx,2,24,80,20,0,,,,,0,1,1,1,0,2,2,5,,,,,,,,4.7,102.62211159999424,107.32170190000033,107.32164558999212,0.3047876000055112,107.7660298999981,107.7660298999981,m,0.535044000018388,111.39062069999636,111.39062069999636,81,2.886,sub-017,40,80,700,bloc_loopcontinue.csv,2023-05-31_10h57.03.779,PainUncertainty,2022.2.5,142.87837049962965
aigu,forte,stimuli/660Hz,stimuli/forte,bloc_3,prob80hthp_12trials.xlsx,2,24,80,20,0,,,,,0,1,1,1,0,3,3,10,,,,,,,,5,111.39062069999636,116.3927202999912,116.39264318999922,0.30491669999901205,116.83636950000073,116.83636950000073,m,0.8367050000088057,119.39094430000114,119.39094430000114,88,1.505,sub-017,40,80,700,bloc_loopcontinue.csv,2023-05-31_10h57.03.779,PainUncertainty,2022.2.5,142.87837049962965
grave,moderee,stimuli/330Hz,stimuli/moderee,bloc_3,prob80hthp_12trials.xlsx,2,24,80,20,0,,,,,0,1,1,1,0,4,4,1,,,,,,,,4.4,119.39094430000114,123.79562039999291,123.79575808999216,0.30517320000217296,124.24032689999149,124.24032689999149,n,0.9842307000071742,126.90421759999299,126.90421759999299,6,1.481,sub-017,40,80,700,bloc_loopcontinue.csv,2023-05-31_10h57.03.779,PainUncertainty,2022.2.5,142.87837049962965
aigu,forte,stimuli/660Hz,stimuli/forte,bloc_3,prob80hthp_12trials.xlsx,2,24,80,20,0,,,,,0,1,1,1,0,5,5,8,,,,,,,,4,126.90421759999299,130.9076081999956,130.9076496899899,0.3020344999968074,131.3524452999991,131.3524452999991,m,0.7441805000125896,133.82184409999172,133.82184409999172,84,1.504,sub-017,40,80,700,bloc_loopcontinue.csv,2023-05-31_10h57.03.779,PainUncertainty,2022.2.5,142.87837049962965
aigu,moderee,stimuli/660Hz,stimuli/moderee,bloc_3,prob80hthp_12trials.xlsx,2,24,80,20,0,,,,,0,1,1,1,0,6,6,11,,,,,,,,3,133.82184409999172,136.82508229999803,136.82501618998793,0.3006979999918258,137.26999489999434,137.26999489999434,n,0.47933620000549126,139.93789489999472,139.93789489999472,11,1.991,sub-017,40,80,700,bloc_loopcontinue.csv,2023-05-31_10h57.03.779,PainUncertainty,2022.2.5,142.87837049962965
grave,moderee,stimuli/330Hz,stimuli/moderee,bloc_3,prob80hthp_12trials.xlsx,2,24,80,20,0,,,,,0,1,1,1,0,7,7,4,,,,,,,,3.7,139.93789489999472,143.6387776999909,143.63869309,0.299148599995533,144.08107739999832,144.08107739999832,n,0.6185701000067638,146.36168239999097,146.36168239999097,16,1.447,sub-017,40,80,700,bloc_loopcontinue.csv,2023-05-31_10h57.03.779,PainUncertainty,2022.2.5,142.87837049962965
aigu,forte,stimuli/660Hz,stimuli/forte,bloc_3,prob80hthp_12trials.xlsx,2,24,80,20,0,,,,,0,1,1,1,0,8,8,9,,,,,,,,4.7,146.36168239999097,151.06534749999992,151.06353619000146,0.3048311000020476,151.50916499999585,151.50916499999585,m,0.7804752000083681,153.83794159999525,153.83794159999525,78,1.331,sub-017,40,80,700,bloc_loopcontinue.csv,2023-05-31_10h57.03.779,PainUncertainty,2022.2.5,142.87837049962965
grave,moderee,stimuli/330Hz,stimuli/moderee,bloc_3,prob80hthp_12trials.xlsx,2,24,80,20,0,,,,,0,1,1,1,0,9,9,2,,,,,,,,4.9,153.83794159999525,158.73736339999596,158.73734188999077,0.3051821000117343,159.18156139999337,159.18156139999337,m,0.8037178000085987,163.02392690000124,163.02392690000124,40,2.817,sub-017,40,80,700,bloc_loopcontinue.csv,2023-05-31_10h57.03.779,PainUncertainty,2022.2.5,142.87837049962965
aigu,forte,stimuli/660Hz,stimuli/forte,bloc_3,prob80hthp_12trials.xlsx,2,24,80,20,0,,,,,0,1,1,1,0,10,10,7,,,,,,,,3.7,163.02392690000124,166.72446739999577,166.72463108998926,0.30073869999614544,167.1688587999961,167.1688587999961,m,0.4412641000089934,169.38107319999835,169.38107319999835,87,1.551,sub-017,40,80,700,bloc_loopcontinue.csv,2023-05-31_10h57.03.779,PainUncertainty,2022.2.5,142.87837049962965
grave,moderee,stimuli/330Hz,stimuli/moderee,bloc_3,prob80hthp_12trials.xlsx,2,24,80,20,0,,,,,0,1,1,1,0,11,11,3,,,,,,,,4.2,169.38107319999835,173.58638539999083,173.5865378900009,0.305006599999615,174.0308856999909,174.0308856999909,n,0.4483672000205843,175.48141079999914,175.48141079999914,20,0.804,sub-017,40,80,700,bloc_loopcontinue.csv,2023-05-31_10h57.03.779,PainUncertainty,2022.2.5,142.87837049962965
grave,moderee,stimuli/330Hz,stimuli/moderee,bloc_3,prob80hthp_12trials.xlsx,2,24,80,20,0,,,,,0,1,1,1,1,0,12,2,,,,,,,,4.1,175.48141079999914,179.58709799998906,179.58713528999505,0.3052114000020083,180.03116969999974,180.03116969999974,n,0.793916700014961,182.15910989999247,182.15910989999247,15,1.123,sub-017,40,80,700,bloc_loopcontinue.csv,2023-05-31_10h57.03.779,PainUncertainty,2022.2.5,142.87837049962965
aigu,forte,stimuli/660Hz,stimuli/forte,bloc_3,prob80hthp_12trials.xlsx,2,24,80,20,0,,,,,0,1,1,1,1,1,13,10,,,,,,,,3.3,182.15910989999247,185.46279119999963,185.4631041899949,0.3049919999903068,185.90725299999758,185.90725299999758,m,0.37929590001294855,188.90129650000017,188.90129650000017,86,2.415,sub-017,40,80,700,bloc_loopcontinue.csv,2023-05-31_10h57.03.779,PainUncertainty,2022.2.5,142.87837049962965
aigu,forte,stimuli/660Hz,stimuli/forte,bloc_3,prob80hthp_12trials.xlsx,2,24,80,20,0,,,,,0,1,1,1,1,2,14,7,,,,,,,,3.8,188.90129650000017,192.70698399998946,192.70699058999452,0.30514229999971576,193.15090149999014,193.15090149999014,m,0.41377390001434833,194.65234529999725,194.65234529999725,95,0.878,sub-017,40,80,700,bloc_loopcontinue.csv,2023-05-31_10h57.03.779,PainUncertainty,2022.2.5,142.87837049962965
grave,moderee,stimuli/330Hz,stimuli/moderee,bloc_3,prob80hthp_12trials.xlsx,2,24,80,20,0,,,,,0,1,1,1,1,3,15,4,,,,,,,,3.8,194.65234529999725,198.45745679999527,198.4574601899905,0.30927100000553764,198.90942929999437,198.90942929999437,n,0.5635978000209434,202.97532169999613,202.97532169999613,14,3.276,sub-017,40,80,700,bloc_loopcontinue.csv,2023-05-31_10h57.03.779,PainUncertainty,2022.2.5,142.87837049962965
aigu,forte,stimuli/660Hz,stimuli/forte,bloc_3,prob80hthp_12trials.xlsx,2,24,80,20,0,,,,,0,1,1,1,1,4,16,9,,,,,,,,5,202.97532169999613,207.97956999999587,207.97958058998773,0.30259490000025835,208.42408649998833,208.42408649998833,m,0.4912824000202818,211.21685029999935,211.21685029999935,90,2.095,sub-017,40,80,700,bloc_loopcontinue.csv,2023-05-31_10h57.03.779,PainUncertainty,2022.2.5,142.87837049962965
aigu,forte,stimuli/660Hz,stimuli/forte,bloc_3,prob80hthp_12trials.xlsx,2,24,80,20,0,,,,,0,1,1,1,1,5,17,6,,,,,,,,4.7,211.21685029999935,215.91808769998897,215.91795708999706,0.3040113000024576,216.36241819999123,216.36241819999123,m,0.4556105000083335,219.63514709999436,219.63514709999436,93,2.616,sub-017,40,80,700,bloc_loopcontinue.csv,2023-05-31_10h57.03.779,PainUncertainty,2022.2.5,142.87837049962965
grave,moderee,stimuli/330Hz,stimuli/moderee,bloc_3,prob80hthp_12trials.xlsx,2,24,80,20,0,,,,,0,1,1,1,1,6,18,3,,,,,,,,4.8,219.63514709999436,224.4397609000007,224.4397943899923,0.30147419999411795,224.88418880000245,224.88418880000245,n,0.9429366000113077,227.5899223000015,227.5899223000015,19,1.56,sub-017,40,80,700,bloc_loopcontinue.csv,2023-05-31_10h57.03.779,PainUncertainty,2022.2.5,142.87837049962965
aigu,moderee,stimuli/660Hz,stimuli/moderee,bloc_3,prob80hthp_12trials.xlsx,2,24,80,20,0,,,,,0,1,1,1,1,7,19,11,,,,,,,,3.8,227.5899223000015,231.39207439999154,231.39209889000193,0.30282209999859333,231.8363573999959,231.8363573999959,n,0.6258468000014545,235.38784789999772,235.38784789999772,8,2.677,sub-017,40,80,700,bloc_loopcontinue.csv,2023-05-31_10h57.03.779,PainUncertainty,2022.2.5,142.87837049962965
grave,moderee,stimuli/330Hz,stimuli/moderee,bloc_3,prob80hthp_12trials.xlsx,2,24,80,20,0,,,,,0,1,1,1,1,8,20,1,,,,,,,,5,235.38784789999772,240.39304529999208,240.39298169000102,0.29931180000130553,240.8310543999978,240.8310543999978,n,1.6544571000122232,243.30937669999548,243.30937669999548,20,0.623,sub-017,40,80,700,bloc_loopcontinue.csv,2023-05-31_10h57.03.779,PainUncertainty,2022.2.5,142.87837049962965
grave,moderee,stimuli/330Hz,stimuli/moderee,bloc_3,prob80hthp_12trials.xlsx,2,24,80,20,0,,,,,0,1,1,1,1,9,21,0,,,,,,,,3.5,243.30937669999548,246.8104114000016,246.81045919000024,0.30504649999784306,247.25461269999505,247.25461269999505,n,0.8732546000101138,248.91788480000105,248.91788480000105,10,0.588,sub-017,40,80,700,bloc_loopcontinue.csv,2023-05-31_10h57.03.779,PainUncertainty,2022.2.5,142.87837049962965
grave,forte,stimuli/330Hz,stimuli/forte,bloc_3,prob80hthp_12trials.xlsx,2,24,80,20,0,,,,,0,1,1,1,1,10,22,5,,,,,,,,4.9,248.91788480000105,253.81866259999515,253.81863458999868,0.3039454000099795,254.26258679998864,254.26258679998864,m,0.5930529000179376,256.8717289999913,256.8717289999913,54,1.812,sub-017,40,80,700,bloc_loopcontinue.csv,2023-05-31_10h57.03.779,PainUncertainty,2022.2.5,142.87837049962965
aigu,forte,stimuli/660Hz,stimuli/forte,bloc_3,prob80hthp_12trials.xlsx,2,24,80,20,0,,,,,0,1,1,1,1,11,23,8,,,,,,,,3.5,256.8717289999913,260.3749817999924,260.3763560899926,0.30344329999934416,260.81889450000017,260.81889450000017,m,0.5029080000094837,262.56040969998867,262.56040969998867,86,1.04,sub-017,40,80,700,bloc_loopcontinue.csv,2023-05-31_10h57.03.779,PainUncertainty,2022.2.5,142.87837049962965
aigu,forte,stimuli/660Hz,stimuli/forte,bloc_4,prob50_50_4trials.xlsx,2,8,50,50,1,,,,,0,2,2,2,0,0,0,3,,,,,,,,4.5,262.56040969998867,267.0629532999883,267.06287248999723,0.2990293000038946,267.50085599999875,267.50085599999875,m,0.5566374000045471,270.80467789999966,270.80467789999966,89,2.517,sub-017,40,80,700,bloc_loopcontinue.csv,2023-05-31_10h57.03.779,PainUncertainty,2022.2.5,142.87837049962965
grave,forte,stimuli/330Hz,stimuli/forte,bloc_4,prob50_50_4trials.xlsx,2,8,50,50,1,,,,,0,2,2,2,0,1,1,1,,,,,,,,3.7,270.80467789999966,274.5082144999906,274.50830508999496,0.3037910999992164,274.9550473999989,274.9550473999989,m,0.7930668000044534,276.7607777999947,276.7607777999947,90,0.803,sub-017,40,80,700,bloc_loopcontinue.csv,2023-05-31_10h57.03.779,PainUncertainty,2022.2.5,142.87837049962965
aigu,moderee,stimuli/660Hz,stimuli/moderee,bloc_4,prob50_50_4trials.xlsx,2,8,50,50,1,,,,,0,2,2,2,0,2,2,2,,,,,,,,3,276.7607777999947,279.76581749999605,279.76587508999654,0.305055299992091,280.21022609999636,280.21022609999636,m,2.1479995000117924,283.93265919999976,283.93265919999976,55,1.374,sub-017,40,80,700,bloc_loopcontinue.csv,2023-05-31_10h57.03.779,PainUncertainty,2022.2.5,142.87837049962965
grave,moderee,stimuli/330Hz,stimuli/moderee,bloc_4,prob50_50_4trials.xlsx,2,8,50,50,1,,,,,0,2,2,2,0,3,3,0,,,,,,,,4.2,283.93265919999976,288.13485799999034,288.13503169000177,0.30081249999057036,288.5793163999915,288.5793163999915,n,0.43549140001414344,290.81957149998925,290.81957149998925,7,1.595,sub-017,40,80,700,bloc_loopcontinue.csv,2023-05-31_10h57.03.779,PainUncertainty,2022.2.5,142.87837049962965
grave,forte,stimuli/330Hz,stimuli/forte,bloc_4,prob50_50_4trials.xlsx,2,8,50,50,1,,,,,0,2,2,2,1,0,4,1,,,,,,,,4.6,290.81957149998925,295.4208224999893,295.4207027899931,0.30586480000056326,295.86794309999095,295.86794309999095,m,0.42878940000082366,297.62243930000113,297.62243930000113,82,1.122,sub-017,40,80,700,bloc_loopcontinue.csv,2023-05-31_10h57.03.779,PainUncertainty,2022.2.5,142.87837049962965
aigu,moderee,stimuli/660Hz,stimuli/moderee,bloc_4,prob50_50_4trials.xlsx,2,8,50,50,1,,,,,0,2,2,2,1,1,5,2,,,,,,,,4.2,297.62243930000113,301.82439599999634,301.8245141899926,0.30087079999793787,302.26838080000016,302.26838080000016,n,0.6984255000133999,305.22765439999057,305.22765439999057,8,2.039,sub-017,40,80,700,bloc_loopcontinue.csv,2023-05-31_10h57.03.779,PainUncertainty,2022.2.5,142.87837049962965
grave,moderee,stimuli/330Hz,stimuli/moderee,bloc_4,prob50_50_4trials.xlsx,2,8,50,50,1,,,,,0,2,2,2,1,2,6,0,,,,,,,,5,305.22765439999057,310.2277916000021,310.2277961899919,0.29987610000534914,310.6722837999987,310.6722837999987,n,0.8019007000111742,315.67531189999136,315.67531189999136,13,3.997,sub-017,40,80,700,bloc_loopcontinue.csv,2023-05-31_10h57.03.779,PainUncertainty,2022.2.5,142.87837049962965
aigu,forte,stimuli/660Hz,stimuli/forte,bloc_4,prob50_50_4trials.xlsx,2,8,50,50,1,,,,,0,2,2,2,1,3,7,3,,,,,,,,5,315.67531189999136,320.68030039999576,320.68039438999693,0.30516390000411775,321.12453789998835,321.12453789998835,m,0.580117200006498,325.5406673999969,325.5406673999969,86,1.805,sub-017,40,80,700,bloc_loopcontinue.csv,2023-05-31_10h57.03.779,PainUncertainty,2022.2.5,142.87837049962965
grave,forte,stimuli/330Hz,stimuli/forte,bloc_5,prob20hthp_12trials.xlsx,2,24,20,80,0,,,,,0,3,3,3,0,0,0,2,,,,,,,,4.9,351.5697688999935,356.47000989998924,356.4698807899942,0.29991790000349283,356.91419389999646,356.91419389999646,m,0.49353240001073573,359.68540199998824,359.68540199998824,90,2.066,sub-017,40,80,700,bloc_loopcontinue.csv,2023-05-31_10h57.03.779,PainUncertainty,2022.2.5,142.87837049962965
aigu,moderee,stimuli/660Hz,stimuli/moderee,bloc_5,prob20hthp_12trials.xlsx,2,24,20,80,0,,,,,0,3,3,3,0,1,1,10,,,,,,,,4.6,359.68540199998824,364.2899163999973,364.2899018900018,0.30384770000819117,364.7342567000014,364.7342567000014,n,0.46272660000249743,367.38533579999057,367.38533579999057,7,1.962,sub-017,40,80,700,bloc_loopcontinue.csv,2023-05-31_10h57.03.779,PainUncertainty,2022.2.5,142.87837049962965
aigu,moderee,stimuli/660Hz,stimuli/moderee,bloc_5,prob20hthp_12trials.xlsx,2,24,20,80,0,,,,,0,3,3,3,0,2,2,6,,,,,,,,3.9,367.38533579999057,371.29122169999755,371.2911024899906,0.3048106999922311,371.73478969999996,371.73478969999996,n,0.4955770000087796,373.7766444000008,373.7766444000008,5,1.331,sub-017,40,80,700,bloc_loopcontinue.csv,2023-05-31_10h57.03.779,PainUncertainty,2022.2.5,142.87837049962965
grave,forte,stimuli/330Hz,stimuli/forte,bloc_5,prob20hthp_12trials.xlsx,2,24,20,80,0,,,,,0,3,3,3,0,3,3,0,,,,,,,,4.3,373.7766444000008,378.07648619999236,378.07640248999377,0.3046260999981314,378.5205983999913,378.5205983999913,m,0.9102769000164699,382.00232709999545,382.00232709999545,49,2.364,sub-017,40,80,700,bloc_loopcontinue.csv,2023-05-31_10h57.03.779,PainUncertainty,2022.2.5,142.87837049962965
grave,forte,stimuli/330Hz,stimuli/forte,bloc_5,prob20hthp_12trials.xlsx,2,24,20,80,0,,,,,0,3,3,3,0,4,4,3,,,,,,,,3,382.00232709999545,385.0077050999971,385.00790018999686,0.30571499999496154,385.4525882000016,385.4525882000016,m,0.8142845000111265,388.7931271999987,388.7931271999987,72,2.302,sub-017,40,80,700,bloc_loopcontinue.csv,2023-05-31_10h57.03.779,PainUncertainty,2022.2.5,142.87837049962965
grave,forte,stimuli/330Hz,stimuli/forte,bloc_5,prob20hthp_12trials.xlsx,2,24,20,80,0,,,,,0,3,3,3,0,5,5,1,,,,,,,,4.1,388.7931271999987,392.8975538999948,392.8976850899882,0.3046357999992324,393.3416376999958,393.3416376999958,m,0.5010438000026625,395.3400404999993,395.3400404999993,69,1.296,sub-017,40,80,700,bloc_loopcontinue.csv,2023-05-31_10h57.03.779,PainUncertainty,2022.2.5,142.87837049962965
aigu,moderee,stimuli/660Hz,stimuli/moderee,bloc_5,prob20hthp_12trials.xlsx,2,24,20,80,0,,,,,0,3,3,3,0,6,6,7,,,,,,,,4.5,395.3400404999993,399.8437422999996,399.84316349,0.30499950000375975,400.29060519998893,400.29060519998893,n,0.7470460000185994,403.5829095999943,403.5829095999943,9,2.324,sub-017,40,80,700,bloc_loopcontinue.csv,2023-05-31_10h57.03.779,PainUncertainty,2022.2.5,142.87837049962965
aigu,moderee,stimuli/660Hz,stimuli/moderee,bloc_5,prob20hthp_12trials.xlsx,2,24,20,80,0,,,,,0,3,3,3,0,7,7,9,,,,,,,,3.1,403.5829095999943,406.6842242999992,406.6844703899944,0.3045241000072565,407.1281070999976,407.1281070999976,n,0.5393105000111973,410.72638729999017,410.72638729999017,7,2.838,sub-017,40,80,700,bloc_loopcontinue.csv,2023-05-31_10h57.03.779,PainUncertainty,2022.2.5,142.87837049962965
grave,forte,stimuli/330Hz,stimuli/forte,bloc_5,prob20hthp_12trials.xlsx,2,24,20,80,0,,,,,0,3,3,3,0,8,8,4,,,,,,,,5,410.72638729999017,415.72646389999136,415.7266383899943,0.3049765000032494,416.1706329000008,416.1706329000008,m,1.361791200004518,419.04645699998946,419.04645699998946,80,1.31,sub-017,40,80,700,bloc_loopcontinue.csv,2023-05-31_10h57.03.779,PainUncertainty,2022.2.5,142.87837049962965
aigu,forte,stimuli/660Hz,stimuli/forte,bloc_5,prob20hthp_12trials.xlsx,2,24,20,80,0,,,,,0,3,3,3,0,9,9,11,,,,,,,,3,419.04645699998946,422.0466968999972,422.04667099000216,0.30517340000369586,422.49105789999885,422.49105789999885,m,0.7977180000161752,424.65544599998975,424.65544599998975,85,1.157,sub-017,40,80,700,bloc_loopcontinue.csv,2023-05-31_10h57.03.779,PainUncertainty,2022.2.5,142.87837049962965
aigu,moderee,stimuli/660Hz,stimuli/moderee,bloc_5,prob20hthp_12trials.xlsx,2,24,20,80,0,,,,,0,3,3,3,0,10,10,8,,,,,,,,3,424.65544599998975,427.65910160000203,427.6591348899921,0.30797969999548513,428.11039589998836,428.11039589998836,n,1.1643443000066327,431.5242552999989,431.5242552999989,14,2.033,sub-017,40,80,700,bloc_loopcontinue.csv,2023-05-31_10h57.03.779,PainUncertainty,2022.2.5,142.87837049962965
grave,moderee,stimuli/330Hz,stimuli/moderee,bloc_5,prob20hthp_12trials.xlsx,2,24,20,80,0,,,,,0,3,3,3,0,11,11,5,,,,,,,,3.1,431.5242552999989,434.6250280999957,434.6249668899938,0.30517649999819696,435.07231319999846,435.07231319999846,n,0.5070415000081994,437.46670079999603,437.46670079999603,4,1.686,sub-017,40,80,700,bloc_loopcontinue.csv,2023-05-31_10h57.03.779,PainUncertainty,2022.2.5,142.87837049962965
grave,forte,stimuli/330Hz,stimuli/forte,bloc_5,prob20hthp_12trials.xlsx,2,24,20,80,0,,,,,0,3,3,3,1,0,12,2,,,,,,,,4.8,437.46670079999603,442.2716696999996,442.2716610899908,0.3014547000057064,442.7160212000017,442.7160212000017,m,0.7486825000087265,445.7583040999889,445.7583040999889,85,2.081,sub-017,40,80,700,bloc_loopcontinue.csv,2023-05-31_10h57.03.779,PainUncertainty,2022.2.5,142.87837049962965
grave,forte,stimuli/330Hz,stimuli/forte,bloc_5,prob20hthp_12trials.xlsx,2,24,20,80,0,,,,,0,3,3,3,1,1,13,4,,,,,,,,4.8,445.7583040999889,450.56421820000105,450.5642571899909,0.3047202000016114,451.00814340000215,451.00814340000215,m,0.4463675000151852,453.6002926999936,453.6002926999936,86,1.919,sub-017,40,80,700,bloc_loopcontinue.csv,2023-05-31_10h57.03.779,PainUncertainty,2022.2.5,142.87837049962965
aigu,moderee,stimuli/660Hz,stimuli/moderee,bloc_5,prob20hthp_12trials.xlsx,2,24,20,80,0,,,,,0,3,3,3,1,2,14,6,,,,,,,,3.5,453.6002926999936,457.0996177999914,457.0996392899935,0.3058107000106247,457.5444375999941,457.5444375999941,n,0.4848774000129197,460.74163989999215,460.74163989999215,9,2.497,sub-017,40,80,700,bloc_loopcontinue.csv,2023-05-31_10h57.03.779,PainUncertainty,2022.2.5,142.87837049962965
aigu,moderee,stimuli/660Hz,stimuli/moderee,bloc_5,prob20hthp_12trials.xlsx,2,24,20,80,0,,,,,0,3,3,3,1,3,15,10,,,,,,,,4.2,460.74163989999215,464.9410850999993,464.9414400899943,0.3037647000019206,465.38838530000066,465.38838530000066,n,0.5998298000195064,468.551761499999,468.551761499999,4,2.345,sub-017,40,80,700,bloc_loopcontinue.csv,2023-05-31_10h57.03.779,PainUncertainty,2022.2.5,142.87837049962965
aigu,moderee,stimuli/660Hz,stimuli/moderee,bloc_5,prob20hthp_12trials.xlsx,2,24,20,80,0,,,,,0,3,3,3,1,4,16,7,,,,,,,,3.7,468.551761499999,472.25454409999656,472.2547609899877,0.299017700002878,472.69258229999105,472.69258229999105,n,0.6357080000161659,476.4620350999903,476.4620350999903,9,2.909,sub-017,40,80,700,bloc_loopcontinue.csv,2023-05-31_10h57.03.779,PainUncertainty,2022.2.5,142.87837049962965
grave,forte,stimuli/330Hz,stimuli/forte,bloc_5,prob20hthp_12trials.xlsx,2,24,20,80,0,,,,,0,3,3,3,1,5,17,3,,,,,,,,3.6,476.4620350999903,480.0675226000021,480.06772329000086,0.3044023999973433,480.51173030000064,480.51173030000064,m,0.5065292000217596,484.3359621999989,484.3359621999989,85,3.109,sub-017,40,80,700,bloc_loopcontinue.csv,2023-05-31_10h57.03.779,PainUncertainty,2022.2.5,142.87837049962965
grave,forte,stimuli/330Hz,stimuli/forte,bloc_5,prob20hthp_12trials.xlsx,2,24,20,80,0,,,,,0,3,3,3,1,6,18,0,,,,,,,,4.3,484.3359621999989,488.63829319999786,488.6383315899977,0.30397499998798594,489.0824203999946,489.0824203999946,m,0.8023859000095399,493.5372917999921,493.5372917999921,84,3.428,sub-017,40,80,700,bloc_loopcontinue.csv,2023-05-31_10h57.03.779,PainUncertainty,2022.2.5,142.87837049962965
grave,moderee,stimuli/330Hz,stimuli/moderee,bloc_5,prob20hthp_12trials.xlsx,2,24,20,80,0,,,,,0,3,3,3,1,7,19,5,,,,,,,,3.8,493.5372917999921,497.340509799993,497.34029088999813,0.30603819999669213,497.78948890000174,497.78948890000174,n,0.7645969000150217,500.18175489999703,500.18175489999703,2,1.415,sub-017,40,80,700,bloc_loopcontinue.csv,2023-05-31_10h57.03.779,PainUncertainty,2022.2.5,142.87837049962965
aigu,moderee,stimuli/660Hz,stimuli/moderee,bloc_5,prob20hthp_12trials.xlsx,2,24,20,80,0,,,,,0,3,3,3,1,8,20,8,,,,,,,,3,500.18175489999703,503.1814519999898,503.1814900900019,0.29905329999746755,503.62011629999324,503.62011629999324,n,0.5775321000110125,506.10714279999956,506.10714279999956,7,1.713,sub-017,40,80,700,bloc_loopcontinue.csv,2023-05-31_10h57.03.779,PainUncertainty,2022.2.5,142.87837049962965
aigu,moderee,stimuli/660Hz,stimuli/moderee,bloc_5,prob20hthp_12trials.xlsx,2,24,20,80,0,,,,,0,3,3,3,1,9,21,9,,,,,,,,3,506.10714279999956,509.11259849999624,509.1126282899888,0.3052428999944823,509.5568185000011,509.5568185000011,n,0.5359939000045415,511.49172330000147,511.49172330000147,10,1.179,sub-017,40,80,700,bloc_loopcontinue.csv,2023-05-31_10h57.03.779,PainUncertainty,2022.2.5,142.87837049962965
grave,forte,stimuli/330Hz,stimuli/forte,bloc_5,prob20hthp_12trials.xlsx,2,24,20,80,0,,,,,0,3,3,3,1,10,22,1,,,,,,,,4.8,511.49172330000147,516.294473499991,516.2945578899919,0.3053437000053236,516.7423604999931,516.7423604999931,m,0.5332782000186853,518.7765049000009,518.7765049000009,83,1.282,sub-017,40,80,700,bloc_loopcontinue.csv,2023-05-31_10h57.03.779,PainUncertainty,2022.2.5,142.87837049962965
aigu,forte,stimuli/660Hz,stimuli/forte,bloc_5,prob20hthp_12trials.xlsx,2,24,20,80,0,,,,,0,3,3,3,1,11,23,11,,,,,,,,4.5,518.7765049000009,523.2811547999881,523.2809906899886,0.29982870000822004,523.7255709000019,523.7255709000019,m,0.5120930999983102,525.7093983999948,525.7093983999948,83,1.248,sub-017,40,80,700,bloc_loopcontinue.csv,2023-05-31_10h57.03.779,PainUncertainty,2022.2.5,142.87837049962965
grave,forte,stimuli/330Hz,stimuli/forte,bloc_6,prob50_50_4trials.xlsx,2,8,50,50,0,,,,,0,4,4,4,0,0,0,1,,,,,,,,3.9,525.7093983999948,529.6085460999893,529.6086725899906,0.30661070000496693,530.056506199995,530.056506199995,m,1.0077971999999136,532.2117843000015,532.2117843000015,60,0.934,sub-017,40,80,700,bloc_loopcontinue.csv,2023-05-31_10h57.03.779,PainUncertainty,2022.2.5,142.87837049962965
aigu,forte,stimuli/660Hz,stimuli/forte,bloc_6,prob50_50_4trials.xlsx,2,8,50,50,0,,,,,0,4,4,4,0,1,1,3,,,,,,,,3.9,532.2117843000015,536.1182704999956,536.116388589998,0.2995504999998957,536.5607947999961,536.5607947999961,m,0.5327098000125261,539.4803477999958,539.4803477999958,89,2.172,sub-017,40,80,700,bloc_loopcontinue.csv,2023-05-31_10h57.03.779,PainUncertainty,2022.2.5,142.87837049962965
grave,moderee,stimuli/330Hz,stimuli/moderee,bloc_6,prob50_50_4trials.xlsx,2,8,50,50,0,,,,,0,4,4,4,0,2,2,0,,,,,,,,3.1,539.4803477999958,542.581889699999,542.5820234899977,0.30094800000370014,543.0266291000007,543.0266291000007,m,1.156146200009971,545.9027735999989,545.9027735999989,35,1.503,sub-017,40,80,700,bloc_loopcontinue.csv,2023-05-31_10h57.03.779,PainUncertainty,2022.2.5,142.87837049962965
aigu,moderee,stimuli/660Hz,stimuli/moderee,bloc_6,prob50_50_4trials.xlsx,2,8,50,50,0,,,,,0,4,4,4,0,3,3,2,,,,,,,,3.2,545.9027735999989,549.1040066999994,549.1041844899985,0.3005973000108497,549.5488191999902,549.5488191999902,n,0.5474340000073425,552.3397752000019,552.3397752000019,25,2.033,sub-017,40,80,700,bloc_loopcontinue.csv,2023-05-31_10h57.03.779,PainUncertainty,2022.2.5,142.87837049962965
aigu,moderee,stimuli/660Hz,stimuli/moderee,bloc_6,prob50_50_4trials.xlsx,2,8,50,50,0,,,,,0,4,4,4,1,0,4,2,,,,,,,,3.2,552.3397752000019,555.5422693,555.5423372899925,0.2997083000082057,555.986302499994,555.986302499994,n,0.5840740000130609,557.5941941999918,557.5941941999918,31,0.817,sub-017,40,80,700,bloc_loopcontinue.csv,2023-05-31_10h57.03.779,PainUncertainty,2022.2.5,142.87837049962965
grave,moderee,stimuli/330Hz,stimuli/moderee,bloc_6,prob50_50_4trials.xlsx,2,8,50,50,0,,,,,0,4,4,4,1,1,5,0,,,,,,,,4.6,557.5941941999918,562.1953682000021,562.1954657900017,0.3050344000075711,562.6397282999969,562.6397282999969,n,0.5966774000116857,564.5575691999984,564.5575691999984,18,1.114,sub-017,40,80,700,bloc_loopcontinue.csv,2023-05-31_10h57.03.779,PainUncertainty,2022.2.5,142.87837049962965
aigu,forte,stimuli/660Hz,stimuli/forte,bloc_6,prob50_50_4trials.xlsx,2,8,50,50,0,,,,,0,4,4,4,1,2,6,3,,,,,,,,4.6,564.5575691999984,569.161846899995,569.1618163899941,0.3020805999985896,569.6059947999893,569.6059947999893,m,0.5231294000113849,571.7144164999918,571.7144164999918,82,1.383,sub-017,40,80,700,bloc_loopcontinue.csv,2023-05-31_10h57.03.779,PainUncertainty,2022.2.5,142.87837049962965
grave,forte,stimuli/330Hz,stimuli/forte,bloc_6,prob50_50_4trials.xlsx,2,8,50,50,0,,,,,0,4,4,4,1,3,7,1,,,,,,,,3.8,571.7144164999918,575.5166602999961,575.5164372899992,0.30523740001081023,575.9608473999979,575.9608473999979,m,0.474191500004963,579.0319968999975,579.0319968999975,87,2.393,sub-017,40,80,700,bloc_loopcontinue.csv,2023-05-31_10h57.03.779,PainUncertainty,2022.2.5,142.87837049962965
grave,moderee,stimuli/330Hz,stimuli/moderee,bloc_7,prob80hthp_12trials.xlsx,2,24,80,20,0,,,,,0,5,5,5,0,0,0,2,,,,,,,,3.5,579.0319968999975,582.5313042999915,582.5313758899968,0.3017905999877257,582.9768331999949,582.9768331999949,n,0.5585319000092568,584.8930312000011,584.8930312000011,13,1.158,sub-017,40,80,700,bloc_loopcontinue.csv,2023-05-31_10h57.03.779,PainUncertainty,2022.2.5,142.87837049962965
grave,moderee,stimuli/330Hz,stimuli/moderee,bloc_7,prob80hthp_12trials.xlsx,2,24,80,20,0,,,,,0,5,5,5,0,1,1,3,,,,,,,,3.2,584.8930312000011,588.0944832999958,588.0944741899978,0.30515870000817813,588.538698599994,588.538698599994,n,0.7254010000033304,590.6611345999991,590.6611345999991,20,1.184,sub-017,40,80,700,bloc_loopcontinue.csv,2023-05-31_10h57.03.779,PainUncertainty,2022.2.5,142.87837049962965
grave,forte,stimuli/330Hz,stimuli/forte,bloc_7,prob80hthp_12trials.xlsx,2,24,80,20,0,,,,,0,5,5,5,0,2,2,5,,,,,,,,4.3,590.6611345999991,594.9633343999885,594.9633868899939,0.30308500000683125,595.4095258000016,595.4095258000016,m,0.47126430000935216,597.3542636999919,597.3542636999919,89,1.261,sub-017,40,80,700,bloc_loopcontinue.csv,2023-05-31_10h57.03.779,PainUncertainty,2022.2.5,142.87837049962965
aigu,forte,stimuli/660Hz,stimuli/forte,bloc_7,prob80hthp_12trials.xlsx,2,24,80,20,0,,,,,0,5,5,5,0,3,3,8,,,,,,,,4,597.3542636999919,601.3597995000018,601.3598404899924,0.30031740000413265,601.8042770999891,601.8042770999891,m,0.5340795000083745,603.9829477000021,603.9829477000021,94,1.449,sub-017,40,80,700,bloc_loopcontinue.csv,2023-05-31_10h57.03.779,PainUncertainty,2022.2.5,142.87837049962965
aigu,forte,stimuli/660Hz,stimuli/forte,bloc_7,prob80hthp_12trials.xlsx,2,24,80,20,0,,,,,0,5,5,5,0,4,4,9,,,,,,,,3.1,603.9829477000021,607.0830313999904,607.0832036899913,0.30165280000073835,607.5273869999946,607.5273869999946,m,0.4129370000155177,610.1185088999919,610.1185088999919,94,1.963,sub-017,40,80,700,bloc_loopcontinue.csv,2023-05-31_10h57.03.779,PainUncertainty,2022.2.5,142.87837049962965
grave,moderee,stimuli/330Hz,stimuli/moderee,bloc_7,prob80hthp_12trials.xlsx,2,24,80,20,0,,,,,0,5,5,5,0,5,5,4,,,,,,,,4.9,610.1185088999919,615.0211309000006,615.0211566899918,0.3031801000033738,615.4655529000011,615.4655529000011,n,0.547656900016591,616.8747023999895,616.8747023999895,20,0.664,sub-017,40,80,700,bloc_loopcontinue.csv,2023-05-31_10h57.03.779,PainUncertainty,2022.2.5,142.87837049962965
aigu,forte,stimuli/660Hz,stimuli/forte,bloc_7,prob80hthp_12trials.xlsx,2,24,80,20,0,,,,,0,5,5,5,0,6,6,7,,,,,,,,3.6,616.8747023999895,620.4736152999976,620.4737717899945,0.3010059999942314,620.9175700999913,620.9175700999913,m,0.45198970001365524,623.8081173999963,623.8081173999963,93,2.234,sub-017,40,80,700,bloc_loopcontinue.csv,2023-05-31_10h57.03.779,PainUncertainty,2022.2.5,142.87837049962965
aigu,moderee,stimuli/660Hz,stimuli/moderee,bloc_7,prob80hthp_12trials.xlsx,2,24,80,20,0,,,,,0,5,5,5,0,7,7,11,,,,,,,,4.8,623.8081173999963,628.6131738999975,628.613062389991,0.3054664999945089,629.0578891999903,629.0578891999903,n,0.7755647000158206,631.4292593999999,631.4292593999999,9,1.371,sub-017,40,80,700,bloc_loopcontinue.csv,2023-05-31_10h57.03.779,PainUncertainty,2022.2.5,142.87837049962965
grave,moderee,stimuli/330Hz,stimuli/moderee,bloc_7,prob80hthp_12trials.xlsx,2,24,80,20,0,,,,,0,5,5,5,0,8,8,1,,,,,,,,4.7,631.4292593999999,636.1354604999942,636.1349134899895,0.3050604000018211,636.5789309999964,636.5789309999964,n,0.7462353000155417,639.2714163999917,639.2714163999917,10,1.733,sub-017,40,80,700,bloc_loopcontinue.csv,2023-05-31_10h57.03.779,PainUncertainty,2022.2.5,142.87837049962965
aigu,forte,stimuli/660Hz,stimuli/forte,bloc_7,prob80hthp_12trials.xlsx,2,24,80,20,0,,,,,0,5,5,5,0,9,9,6,,,,,,,,3.8,639.2714163999917,643.0731611999945,643.0731898899933,0.3020706999959657,643.5183436999941,643.5183436999941,m,0.7321586000034586,645.9011490999983,645.9011490999983,93,1.435,sub-017,40,80,700,bloc_loopcontinue.csv,2023-05-31_10h57.03.779,PainUncertainty,2022.2.5,142.87837049962965
grave,moderee,stimuli/330Hz,stimuli/moderee,bloc_7,prob80hthp_12trials.xlsx,2,24,80,20,0,,,,,0,5,5,5,0,10,10,0,,,,,,,,3.9,645.9011490999983,649.8031866999954,649.8033346900004,0.302244199992856,650.2491387999908,650.2491387999908,n,0.8024155000166502,652.3065002999938,652.3065002999938,12,1.041,sub-017,40,80,700,bloc_loopcontinue.csv,2023-05-31_10h57.03.779,PainUncertainty,2022.2.5,142.87837049962965
aigu,forte,stimuli/660Hz,stimuli/forte,bloc_7,prob80hthp_12trials.xlsx,2,24,80,20,0,,,,,0,5,5,5,0,11,11,10,,,,,,,,3.3,652.3065002999938,655.6094050999964,655.6095266899895,0.29968889999145176,656.0538327999966,656.0538327999966,m,0.41831560000719037,658.152898699991,658.152898699991,92,1.468,sub-017,40,80,700,bloc_loopcontinue.csv,2023-05-31_10h57.03.779,PainUncertainty,2022.2.5,142.87837049962965
grave,moderee,stimuli/330Hz,stimuli/moderee,bloc_7,prob80hthp_12trials.xlsx,2,24,80,20,0,,,,,0,5,5,5,1,0,12,2,,,,,,,,4.9,658.152898699991,663.0546918999898,663.0546940899906,0.3051836000086041,663.49887879999,663.49887879999,n,0.6275543000228936,668.1684647999937,668.1684647999937,6,3.831,sub-017,40,80,700,bloc_loopcontinue.csv,2023-05-31_10h57.03.779,PainUncertainty,2022.2.5,142.87837049962965
aigu,forte,stimuli/660Hz,stimuli/forte,bloc_7,prob80hthp_12trials.xlsx,2,24,80,20,0,,,,,0,5,5,5,1,1,13,9,,,,,,,,4.7,668.1684647999937,672.8684171999921,672.8684560899958,0.30414930000551976,673.3127067999885,673.3127067999885,m,0.5247343000082765,675.4206409999897,675.4206409999897,70,1.379,sub-017,40,80,700,bloc_loopcontinue.csv,2023-05-31_10h57.03.779,PainUncertainty,2022.2.5,142.87837049962965
aigu,forte,stimuli/660Hz,stimuli/forte,bloc_7,prob80hthp_12trials.xlsx,2,24,80,20,0,,,,,0,5,5,5,1,2,14,6,,,,,,,,4.9,675.4206409999897,680.3207581000024,680.320741889994,0.3037287000042852,680.7651925999962,680.7651925999962,m,0.6016665000061039,682.6892198999994,682.6892198999994,87,1.122,sub-017,40,80,700,bloc_loopcontinue.csv,2023-05-31_10h57.03.779,PainUncertainty,2022.2.5,142.87837049962965
grave,moderee,stimuli/330Hz,stimuli/moderee,bloc_7,prob80hthp_12trials.xlsx,2,24,80,20,0,,,,,0,5,5,5,1,3,15,3,,,,,,,,4.2,682.6892198999994,686.8912854999944,686.8913596899904,0.30135530000552535,687.3353766999935,687.3353766999935,n,0.7507986000127858,690.2138902000006,690.2138902000006,23,1.907,sub-017,40,80,700,bloc_loopcontinue.csv,2023-05-31_10h57.03.779,PainUncertainty,2022.2.5,142.87837049962965
aigu,moderee,stimuli/660Hz,stimuli/moderee,bloc_7,prob80hthp_12trials.xlsx,2,24,80,20,0,,,,,0,5,5,5,1,4,16,11,,,,,,,,3.3,690.2138902000006,693.5168808000017,693.5168492899932,0.30534130000160076,693.9652319000015,693.9652319000015,n,0.6533252000226639,695.8542084999935,695.8542084999935,18,1.025,sub-017,40,80,700,bloc_loopcontinue.csv,2023-05-31_10h57.03.779,PainUncertainty,2022.2.5,142.87837049962965
aigu,forte,stimuli/660Hz,stimuli/forte,bloc_7,prob80hthp_12trials.xlsx,2,24,80,20,0,,,,,0,5,5,5,1,5,17,7,,,,,,,,3.4,695.8542084999935,699.2536765999976,699.2536745899954,0.3015655999915907,699.6982101999893,699.6982101999893,m,0.41470430001209024,701.4118746999884,701.4118746999884,81,1.087,sub-017,40,80,700,bloc_loopcontinue.csv,2023-05-31_10h57.03.779,PainUncertainty,2022.2.5,142.87837049962965
grave,moderee,stimuli/330Hz,stimuli/moderee,bloc_7,prob80hthp_12trials.xlsx,2,24,80,20,0,,,,,0,5,5,5,1,6,18,1,,,,,,,,5,701.4118746999884,706.414128599994,706.4143551900008,0.2995787999971071,706.859126299998,706.859126299998,n,0.5048824999976205,711.9880534999975,711.9880534999975,7,4.429,sub-017,40,80,700,bloc_loopcontinue.csv,2023-05-31_10h57.03.779,PainUncertainty,2022.2.5,142.87837049962965
aigu,forte,stimuli/660Hz,stimuli/forte,bloc_7,prob80hthp_12trials.xlsx,2,24,80,20,0,,,,,0,5,5,5,1,7,19,8,,,,,,,,3.8,711.9880534999975,715.7910035999957,715.791017990002,0.3003171000018483,716.235073399992,716.235073399992,m,0.5274625000020023,718.4242745999945,718.4242745999945,81,1.463,sub-017,40,80,700,bloc_loopcontinue.csv,2023-05-31_10h57.03.779,PainUncertainty,2022.2.5,142.87837049962965
grave,moderee,stimuli/330Hz,stimuli/moderee,bloc_7,prob80hthp_12trials.xlsx,2,24,80,20,0,,,,,0,5,5,5,1,8,20,4,,,,,,,,5,718.4242745999945,723.4300020999945,723.4300819899902,0.3026659000024665,723.8757217999955,723.8757217999955,n,0.5356917000171961,726.4603499999939,726.4603499999939,8,1.822,sub-017,40,80,700,bloc_loopcontinue.csv,2023-05-31_10h57.03.779,PainUncertainty,2022.2.5,142.87837049962965
grave,moderee,stimuli/330Hz,stimuli/moderee,bloc_7,prob80hthp_12trials.xlsx,2,24,80,20,0,,,,,0,5,5,5,1,9,21,0,,,,,,,,4.6,726.4603499999939,731.0633794000023,731.0634242899935,0.3050680000014836,731.511067799991,731.511067799991,n,0.7911233000049833,734.5439344999904,734.5439344999904,8,2.039,sub-017,40,80,700,bloc_loopcontinue.csv,2023-05-31_10h57.03.779,PainUncertainty,2022.2.5,142.87837049962965
grave,forte,stimuli/330Hz,stimuli/forte,bloc_7,prob80hthp_12trials.xlsx,2,24,80,20,0,,,,,0,5,5,5,1,10,22,5,,,,,,,,3.7,734.5439344999904,738.2442524999933,738.244435589989,0.3005451999924844,738.6887837999966,738.6887837999966,m,0.4831457000109367,742.1144280000008,742.1144280000008,78,2.727,sub-017,40,80,700,bloc_loopcontinue.csv,2023-05-31_10h57.03.779,PainUncertainty,2022.2.5,142.87837049962965
aigu,forte,stimuli/660Hz,stimuli/forte,bloc_7,prob80hthp_12trials.xlsx,2,24,80,20,0,,,,,0,5,5,5,1,11,23,10,,,,,,,,4,742.1144280000008,746.1135969999887,746.1136200899884,0.2996988999948371,746.5578423999978,746.5578423999978,m,0.48552050000580493,748.7602465999953,748.7602465999953,87,1.518,sub-017,40,80,700,bloc_loopcontinue.csv,2023-05-31_10h57.03.779,PainUncertainty,2022.2.5,142.87837049962965
aigu,moderee,stimuli/660Hz,stimuli/moderee,bloc_8,prob50_50_4trials.xlsx,3,12,50,50,0,,,,,0,6,6,6,0,0,0,2,,,,,,,,3.2,748.7602465999953,751.9612418999895,751.9612509899991,0.29970160000084434,752.4042869999976,752.4042869999976,n,0.4606771000107983,754.6230356000015,754.6230356000015,8,1.554,sub-017,40,80,700,bloc_loopcontinue.csv,2023-05-31_10h57.03.779,PainUncertainty,2022.2.5,142.87837049962965
aigu,forte,stimuli/660Hz,stimuli/forte,bloc_8,prob50_50_4trials.xlsx,3,12,50,50,0,,,,,0,6,6,6,0,1,1,3,,,,,,,,4.9,754.6230356000015,759.5246743999887,759.5246082899932,0.2996329000015976,759.9670112000022,759.9670112000022,m,0.4553643999970518,761.8112312000012,761.8112312000012,83,1.178,sub-017,40,80,700,bloc_loopcontinue.csv,2023-05-31_10h57.03.779,PainUncertainty,2022.2.5,142.87837049962965
grave,forte,stimuli/330Hz,stimuli/forte,bloc_8,prob50_50_4trials.xlsx,3,12,50,50,0,,,,,0,6,6,6,0,2,2,1,,,,,,,,4.7,761.8112312000012,766.5115940999967,766.5116083899877,0.30167739999888,766.9561355999904,766.9561355999904,m,0.7774270000081742,768.8562202999892,768.8562202999892,90,0.926,sub-017,40,80,700,bloc_loopcontinue.csv,2023-05-31_10h57.03.779,PainUncertainty,2022.2.5,142.87837049962965
grave,moderee,stimuli/330Hz,stimuli/moderee,bloc_8,prob50_50_4trials.xlsx,3,12,50,50,0,,,,,0,6,6,6,0,3,3,0,,,,,,,,3.6,768.8562202999892,772.4568418999988,772.4569568899999,0.3049732000072254,772.9082875000022,772.9082875000022,n,0.9969334000197705,775.5989084999892,775.5989084999892,16,1.469,sub-017,40,80,700,bloc_loopcontinue.csv,2023-05-31_10h57.03.779,PainUncertainty,2022.2.5,142.87837049962965
grave,moderee,stimuli/330Hz,stimuli/moderee,bloc_8,prob50_50_4trials.xlsx,3,12,50,50,0,,,,,0,6,6,6,1,0,4,0,,,,,,,,3,775.5989084999892,778.6035031999927,778.6033431899953,0.305104900005972,779.0474438999954,779.0474438999954,n,0.5000514000130352,781.2870245999948,781.2870245999948,11,1.518,sub-017,40,80,700,bloc_loopcontinue.csv,2023-05-31_10h57.03.779,PainUncertainty,2022.2.5,142.87837049962965
aigu,forte,stimuli/660Hz,stimuli/forte,bloc_8,prob50_50_4trials.xlsx,3,12,50,50,0,,,,,0,6,6,6,1,1,5,3,,,,,,,,3.5,781.2870245999948,784.7915231999941,784.7915439899909,0.3050878000067314,785.2358042999986,785.2358042999986,m,0.7159408000152325,787.7236793999909,787.7236793999909,79,1.56,sub-017,40,80,700,bloc_loopcontinue.csv,2023-05-31_10h57.03.779,PainUncertainty,2022.2.5,142.87837049962965
aigu,moderee,stimuli/660Hz,stimuli/moderee,bloc_8,prob50_50_4trials.xlsx,3,12,50,50,0,,,,,0,6,6,6,1,2,6,2,,,,,,,,4.7,787.7236793999909,792.4244036000018,792.4244341900005,0.30503640000824817,792.8688173999981,792.8688173999981,n,0.47638810001080856,796.7485422999889,796.7485422999889,6,3.199,sub-017,40,80,700,bloc_loopcontinue.csv,2023-05-31_10h57.03.779,PainUncertainty,2022.2.5,142.87837049962965
grave,forte,stimuli/330Hz,stimuli/forte,bloc_8,prob50_50_4trials.xlsx,3,12,50,50,0,,,,,0,6,6,6,1,3,7,1,,,,,,,,4.5,796.7485422999889,801.2518830999907,801.2537512899974,0.30389139999169856,801.6962039999926,801.6962039999926,m,1.0314860000071349,805.8083864999935,805.8083864999935,85,2.865,sub-017,40,80,700,bloc_loopcontinue.csv,2023-05-31_10h57.03.779,PainUncertainty,2022.2.5,142.87837049962965
aigu,moderee,stimuli/660Hz,stimuli/moderee,bloc_8,prob50_50_4trials.xlsx,3,12,50,50,0,,,,,0,6,6,6,2,0,8,2,,,,,,,,4.1,805.8083864999935,809.9125845999952,809.9126155899969,0.304940500005614,810.3572354999924,810.3572354999924,n,0.4333896000025561,813.5543685000011,813.5543685000011,3,2.538,sub-017,40,80,700,bloc_loopcontinue.csv,2023-05-31_10h57.03.779,PainUncertainty,2022.2.5,142.87837049962965
aigu,forte,stimuli/660Hz,stimuli/forte,bloc_8,prob50_50_4trials.xlsx,3,12,50,50,0,,,,,0,6,6,6,2,1,9,3,,,,,,,,4.1,813.5543685000011,817.6569979999913,817.6570616899946,0.3047614000097383,818.1011748000019,818.1011748000019,m,0.454189200012479,820.4544059999898,820.4544059999898,85,1.698,sub-017,40,80,700,bloc_loopcontinue.csv,2023-05-31_10h57.03.779,PainUncertainty,2022.2.5,142.87837049962965
grave,forte,stimuli/330Hz,stimuli/forte,bloc_8,prob50_50_4trials.xlsx,3,12,50,50,0,,,,,0,6,6,6,2,2,10,1,,,,,,,,4.7,820.4544059999898,825.1575025999919,825.1575838899983,0.3050137999962317,825.6053582000022,825.6053582000022,m,0.5497840000170982,828.0263617000019,828.0263617000019,93,1.672,sub-017,40,80,700,bloc_loopcontinue.csv,2023-05-31_10h57.03.779,PainUncertainty,2022.2.5,142.87837049962965
grave,moderee,stimuli/330Hz,stimuli/moderee,bloc_8,prob50_50_4trials.xlsx,3,12,50,50,0,,,,,0,6,6,6,2,3,11,0,,,,,,,,3.5,828.0263617000019,831.5263363999984,831.5262906899982,0.29942539999319706,831.9640780999907,831.9640780999907,n,0.41703470001812093,833.3302018999966,833.3302018999966,10,0.74,sub-017,40,80,700,bloc_loopcontinue.csv,2023-05-31_10h57.03.779,PainUncertainty,2022.2.5,142.87837049962965
aigu,moderee,stimuli/660Hz,stimuli/moderee,bloc_9,prob20hthp_12trials.xlsx,3,36,80,20,0,,,,,0,7,7,7,0,0,0,6,,,,,,,,3.2,833.3302018999966,836.5337650000001,836.533881089995,0.30561880000459496,836.9826783999888,836.9826783999888,n,0.5909292000142159,839.3219625999918,839.3219625999918,15,1.525,sub-017,40,80,700,bloc_loopcontinue.csv,2023-05-31_10h57.03.779,PainUncertainty,2022.2.5,142.87837049962965
aigu,moderee,stimuli/660Hz,stimuli/moderee,bloc_9,prob20hthp_12trials.xlsx,3,36,80,20,0,,,,,0,7,7,7,0,1,1,7,,,,,,,,4.7,839.3219625999918,844.0211011999927,844.0212679899953,0.29908830000204034,844.4590895000001,844.4590895000001,n,0.4527576999971643,848.298421799991,848.298421799991,6,3.179,sub-017,40,80,700,bloc_loopcontinue.csv,2023-05-31_10h57.03.779,PainUncertainty,2022.2.5,142.87837049962965
aigu,moderee,stimuli/660Hz,stimuli/moderee,bloc_9,prob20hthp_12trials.xlsx,3,36,80,20,0,,,,,0,7,7,7,0,2,2,9,,,,,,,,3.2,848.298421799991,851.5009073999972,851.5008564900011,0.3001571999920998,851.9453170999914,851.9453170999914,n,0.4459870000137016,853.6668816999882,853.6668816999882,9,1.053,sub-017,40,80,700,bloc_loopcontinue.csv,2023-05-31_10h57.03.779,PainUncertainty,2022.2.5,142.87837049962965
grave,forte,stimuli/330Hz,stimuli/forte,bloc_9,prob20hthp_12trials.xlsx,3,36,80,20,0,,,,,0,7,7,7,0,3,3,2,,,,,,,,3.2,853.6668816999882,856.8695922999905,856.8696913900014,0.29945190000580624,857.3080137999932,857.3080137999932,m,0.5503859000164084,859.656192399998,859.656192399998,86,1.603,sub-017,40,80,700,bloc_loopcontinue.csv,2023-05-31_10h57.03.779,PainUncertainty,2022.2.5,142.87837049962965
grave,moderee,stimuli/330Hz,stimuli/moderee,bloc_9,prob20hthp_12trials.xlsx,3,36,80,20,0,,,,,0,7,7,7,0,4,4,5,,,,,,,,3.2,859.656192399998,862.8564409999963,862.8565819899916,0.3049526000104379,863.3006046999944,863.3006046999944,n,0.5499421000131406,866.6211340000009,866.6211340000009,7,2.574,sub-017,40,80,700,bloc_loopcontinue.csv,2023-05-31_10h57.03.779,PainUncertainty,2022.2.5,142.87837049962965
grave,forte,stimuli/330Hz,stimuli/forte,bloc_9,prob20hthp_12trials.xlsx,3,36,80,20,0,,,,,0,7,7,7,0,5,5,4,,,,,,,,3.2,866.6211340000009,869.822565399998,869.8226070899939,0.299796300008893,870.2654203999991,870.2654203999991,m,0.5978311000071699,872.2294116999983,872.2294116999983,90,1.155,sub-017,40,80,700,bloc_loopcontinue.csv,2023-05-31_10h57.03.779,PainUncertainty,2022.2.5,142.87837049962965
aigu,moderee,stimuli/660Hz,stimuli/moderee,bloc_9,prob20hthp_12trials.xlsx,3,36,80,20,0,,,,,0,7,7,7,0,6,6,10,,,,,,,,3,872.2294116999983,875.2328754999908,875.2330145900007,0.30508210000698455,875.6773308999982,875.6773308999982,n,0.5447994000132894,878.5234177999955,878.5234177999955,8,2.081,sub-017,40,80,700,bloc_loopcontinue.csv,2023-05-31_10h57.03.779,PainUncertainty,2022.2.5,142.87837049962965
grave,forte,stimuli/330Hz,stimuli/forte,bloc_9,prob20hthp_12trials.xlsx,3,36,80,20,0,,,,,0,7,7,7,0,7,7,0,,,,,,,,4.9,878.5234177999955,883.4283638999914,883.428391189994,0.3076415999967139,883.8802995000005,883.8802995000005,n,1.4333833000127925,886.0939306999935,886.0939306999935,30,0.575,sub-017,40,80,700,bloc_loopcontinue.csv,2023-05-31_10h57.03.779,PainUncertainty,2022.2.5,142.87837049962965
grave,forte,stimuli/330Hz,stimuli/forte,bloc_9,prob20hthp_12trials.xlsx,3,36,80,20,0,,,,,0,7,7,7,0,8,8,3,,,,,,,,4.3,886.0939306999935,890.394458499999,890.3945535899941,0.3048642999929143,890.8426566999988,890.8426566999988,m,0.5923104000103194,893.2026832999982,893.2026832999982,61,1.573,sub-017,40,80,700,bloc_loopcontinue.csv,2023-05-31_10h57.03.779,PainUncertainty,2022.2.5,142.87837049962965
grave,forte,stimuli/330Hz,stimuli/forte,bloc_9,prob20hthp_12trials.xlsx,3,36,80,20,0,,,,,0,7,7,7,0,9,9,1,,,,,,,,3.5,893.2026832999982,896.7076241999894,896.7078073900004,0.3049641000106931,897.1520677999943,897.1520677999943,m,0.7909395000169752,899.3547259999905,899.3547259999905,87,1.206,sub-017,40,80,700,bloc_loopcontinue.csv,2023-05-31_10h57.03.779,PainUncertainty,2022.2.5,142.87837049962965
aigu,moderee,stimuli/660Hz,stimuli/moderee,bloc_9,prob20hthp_12trials.xlsx,3,36,80,20,0,,,,,0,7,7,7,0,10,10,8,,,,,,,,3.4,899.3547259999905,902.7577784000023,902.7573158900007,0.30506050000258256,903.2015309999988,903.2015309999988,n,0.509436000007554,904.9947390000016,904.9947390000016,7,1.06,sub-017,40,80,700,bloc_loopcontinue.csv,2023-05-31_10h57.03.779,PainUncertainty,2022.2.5,142.87837049962965
aigu,forte,stimuli/660Hz,stimuli/forte,bloc_9,prob20hthp_12trials.xlsx,3,36,80,20,0,,,,,0,7,7,7,0,11,11,11,,,,,,,,3.5,904.9947390000016,908.4939245999994,908.4938424899985,0.3016521000099601,908.9383765999955,908.9383765999955,m,0.4539186000038171,911.4791771000018,911.4791771000018,89,1.874,sub-017,40,80,700,bloc_loopcontinue.csv,2023-05-31_10h57.03.779,PainUncertainty,2022.2.5,142.87837049962965
aigu,moderee,stimuli/660Hz,stimuli/moderee,bloc_9,prob20hthp_12trials.xlsx,3,36,80,20,0,,,,,0,7,7,7,1,0,12,6,,,,,,,,4.6,911.4791771000018,916.0780991999927,916.0782753899941,0.30258560000220314,916.5235409000015,916.5235409000015,n,0.5060355000168784,919.292000299989,919.292000299989,7,2.053,sub-017,40,80,700,bloc_loopcontinue.csv,2023-05-31_10h57.03.779,PainUncertainty,2022.2.5,142.87837049962965
grave,forte,stimuli/330Hz,stimuli/forte,bloc_9,prob20hthp_12trials.xlsx,3,36,80,20,0,,,,,0,7,7,7,1,1,13,2,,,,,,,,4.1,919.292000299989,923.3919078999897,923.3917598899964,0.2993791000044439,923.834222999998,923.834222999998,m,0.9418322999990778,926.3843357000005,926.3843357000005,89,1.391,sub-017,40,80,700,bloc_loopcontinue.csv,2023-05-31_10h57.03.779,PainUncertainty,2022.2.5,142.87837049962965
aigu,moderee,stimuli/660Hz,stimuli/moderee,bloc_9,prob20hthp_12trials.xlsx,3,36,80,20,0,,,,,0,7,7,7,1,2,14,7,,,,,,,,3.3,926.3843357000005,929.6845927999966,929.6845355899961,0.30467850000422914,930.1283365999989,930.1283365999989,n,0.45582329999888316,931.9899729999888,931.9899729999888,3,1.185,sub-017,40,80,700,bloc_loopcontinue.csv,2023-05-31_10h57.03.779,PainUncertainty,2022.2.5,142.87837049962965
grave,forte,stimuli/330Hz,stimuli/forte,bloc_9,prob20hthp_12trials.xlsx,3,36,80,20,0,,,,,0,7,7,7,1,3,15,4,,,,,,,,4,931.9899729999888,935.9910864999983,935.9909263900001,0.3050807999970857,936.4397562999948,936.4397562999948,m,1.0009579000034137,939.0825890999986,939.0825890999986,77,1.42,sub-017,40,80,700,bloc_loopcontinue.csv,2023-05-31_10h57.03.779,PainUncertainty,2022.2.5,142.87837049962965
aigu,moderee,stimuli/660Hz,stimuli/moderee,bloc_9,prob20hthp_12trials.xlsx,3,36,80,20,0,,,,,0,7,7,7,1,4,16,8,,,,,,,,4.4,939.0825890999986,943.4845354999998,943.4846655899994,0.30049439999856986,943.9287945999968,943.9287945999968,n,0.47391060000518337,945.7281599999988,945.7281599999988,6,1.101,sub-017,40,80,700,bloc_loopcontinue.csv,2023-05-31_10h57.03.779,PainUncertainty,2022.2.5,142.87837049962965
aigu,moderee,stimuli/660Hz,stimuli/moderee,bloc_9,prob20hthp_12trials.xlsx,3,36,80,20,0,,,,,0,7,7,7,1,5,17,9,,,,,,,,3.5,945.7281599999988,949.2284014999896,949.2295754899926,0.30537590000312775,949.6821038999915,949.6821038999915,n,0.509291900016251,952.1348744999996,952.1348744999996,6,1.726,sub-017,40,80,700,bloc_loopcontinue.csv,2023-05-31_10h57.03.779,PainUncertainty,2022.2.5,142.87837049962965
aigu,forte,stimuli/660Hz,stimuli/forte,bloc_9,prob20hthp_12trials.xlsx,3,36,80,20,0,,,,,0,7,7,7,1,6,18,11,,,,,,,,4.6,952.1348744999996,956.735815699998,956.7359156900013,0.3050489000015659,957.1837852999888,957.1837852999888,m,0.8483869000192499,961.1892328999966,961.1892328999966,85,2.582,sub-017,40,80,700,bloc_loopcontinue.csv,2023-05-31_10h57.03.779,PainUncertainty,2022.2.5,142.87837049962965
grave,moderee,stimuli/330Hz,stimuli/moderee,bloc_9,prob20hthp_12trials.xlsx,3,36,80,20,0,,,,,0,7,7,7,1,7,19,5,,,,,,,,3.8,961.1892328999966,964.9937458999921,964.9937550899879,0.30489299999317154,965.4401553999924,965.4401553999924,n,0.5008946000161814,967.115573499992,967.115573499992,7,0.956,sub-017,40,80,700,bloc_loopcontinue.csv,2023-05-31_10h57.03.779,PainUncertainty,2022.2.5,142.87837049962965
grave,forte,stimuli/330Hz,stimuli/forte,bloc_9,prob20hthp_12trials.xlsx,3,36,80,20,0,,,,,0,7,7,7,1,8,20,3,,,,,,,,4.6,967.115573499992,971.7167354999983,971.716808790002,0.3049382999888621,972.1608350999886,972.1608350999886,m,0.476232400018489,974.2251153999969,974.2251153999969,87,1.373,sub-017,40,80,700,bloc_loopcontinue.csv,2023-05-31_10h57.03.779,PainUncertainty,2022.2.5,142.87837049962965
aigu,moderee,stimuli/660Hz,stimuli/moderee,bloc_9,prob20hthp_12trials.xlsx,3,36,80,20,0,,,,,0,7,7,7,1,9,21,10,,,,,,,,4.1,974.2251153999969,978.3286891999887,978.3286958899946,0.3018164999957662,978.7729231999983,978.7729231999983,n,0.46483950001129415,980.3729964999948,980.3729964999948,11,0.928,sub-017,40,80,700,bloc_loopcontinue.csv,2023-05-31_10h57.03.779,PainUncertainty,2022.2.5,142.87837049962965
grave,forte,stimuli/330Hz,stimuli/forte,bloc_9,prob20hthp_12trials.xlsx,3,36,80,20,0,,,,,0,7,7,7,1,10,22,1,,,,,,,,3.2,980.3729964999948,983.5726789999899,983.5728523899991,0.30507390000275336,984.0170057999931,984.0170057999931,m,0.3964402000128757,986.8756638999912,986.8756638999912,88,2.262,sub-017,40,80,700,bloc_loopcontinue.csv,2023-05-31_10h57.03.779,PainUncertainty,2022.2.5,142.87837049962965
grave,forte,stimuli/330Hz,stimuli/forte,bloc_9,prob20hthp_12trials.xlsx,3,36,80,20,0,,,,,0,7,7,7,1,11,23,0,,,,,,,,4.3,986.8756638999912,991.1774554000003,991.1773289899968,0.30540209999890067,991.6287162999943,991.6287162999943,m,2.1874774000025354,996.381569899997,996.381569899997,79,2.347,sub-017,40,80,700,bloc_loopcontinue.csv,2023-05-31_10h57.03.779,PainUncertainty,2022.2.5,142.87837049962965
aigu,moderee,stimuli/660Hz,stimuli/moderee,bloc_9,prob20hthp_12trials.xlsx,3,36,80,20,0,,,,,0,7,7,7,2,0,24,9,,,,,,,,3.9,996.381569899997,1000.2826964999986,1000.2826347899929,0.3053116999944905,1000.7294243999931,1000.7294243999931,n,0.4288797000190243,1002.6896770999883,1002.6896770999883,3,1.338,sub-017,40,80,700,bloc_loopcontinue.csv,2023-05-31_10h57.03.779,PainUncertainty,2022.2.5,142.87837049962965
grave,forte,stimuli/330Hz,stimuli/forte,bloc_9,prob20hthp_12trials.xlsx,3,36,80,20,0,,,,,0,7,7,7,2,1,25,4,,,,,,,,5,1002.6896770999883,1007.6936368000024,1007.6947837899891,0.30361119999724906,1008.1373751999927,1008.1373751999927,m,0.6623617000150261,1010.6785386999982,1010.6785386999982,91,1.657,sub-017,40,80,700,bloc_loopcontinue.csv,2023-05-31_10h57.03.779,PainUncertainty,2022.2.5,142.87837049962965
aigu,moderee,stimuli/660Hz,stimuli/moderee,bloc_9,prob20hthp_12trials.xlsx,3,36,80,20,0,,,,,0,7,7,7,2,2,26,7,,,,,,,,3.1,1010.6785386999982,1013.7842174999969,1013.7842776899881,0.30509100000199396,1014.2283740999992,1014.2283740999992,n,1.1064064000092912,1016.429658699999,1016.429658699999,12,0.872,sub-017,40,80,700,bloc_loopcontinue.csv,2023-05-31_10h57.03.779,PainUncertainty,2022.2.5,142.87837049962965
aigu,moderee,stimuli/660Hz,stimuli/moderee,bloc_9,prob20hthp_12trials.xlsx,3,36,80,20,0,,,,,0,7,7,7,2,3,27,6,,,,,,,,3.8,1016.429658699999,1020.2294417999947,1020.2296532899884,0.3019761999894399,1020.6745860999945,1020.6745860999945,n,1.0404451000213157,1022.7878765999922,1022.7878765999922,13,0.859,sub-017,40,80,700,bloc_loopcontinue.csv,2023-05-31_10h57.03.779,PainUncertainty,2022.2.5,142.87837049962965
aigu,forte,stimuli/660Hz,stimuli/forte,bloc_9,prob20hthp_12trials.xlsx,3,36,80,20,0,,,,,0,7,7,7,2,4,28,11,,,,,,,,4.7,1022.7878765999922,1027.4879819999915,1027.4877207899947,0.30474160000449046,1027.9314441000024,1027.9314441000024,m,0.8904761000158032,1029.8152188999957,1029.8152188999957,30,0.789,sub-017,40,80,700,bloc_loopcontinue.csv,2023-05-31_10h57.03.779,PainUncertainty,2022.2.5,142.87837049962965
grave,forte,stimuli/330Hz,stimuli/forte,bloc_9,prob20hthp_12trials.xlsx,3,36,80,20,0,,,,,0,7,7,7,2,5,29,0,,,,,,,,3.6,1029.8152188999957,1033.4184908999887,1033.4185357899944,0.30484000001160894,1033.8626262999896,1033.8626262999896,m,0.58613300001889,1036.843326599992,1036.843326599992,65,2.185,sub-017,40,80,700,bloc_loopcontinue.csv,2023-05-31_10h57.03.779,PainUncertainty,2022.2.5,142.87837049962965
aigu,moderee,stimuli/660Hz,stimuli/moderee,bloc_9,prob20hthp_12trials.xlsx,3,36,80,20,0,,,,,0,7,7,7,2,6,30,8,,,,,,,,3,1036.843326599992,1039.8428496999986,1039.8429572900016,0.30159570000250824,1040.287336399997,1040.287336399997,n,0.9700006000202848,1043.3476364999951,1043.3476364999951,4,1.893,sub-017,40,80,700,bloc_loopcontinue.csv,2023-05-31_10h57.03.779,PainUncertainty,2022.2.5,142.87837049962965
aigu,moderee,stimuli/660Hz,stimuli/moderee,bloc_9,prob20hthp_12trials.xlsx,3,36,80,20,0,,,,,0,7,7,7,2,7,31,10,,,,,,,,4.4,1043.3476364999951,1047.7471391,1047.7471240900006,0.30514909999328665,1048.1950630999927,1048.1950630999927,n,0.42751120001776144,1052.4848857999896,1052.4848857999896,3,3.662,sub-017,40,80,700,bloc_loopcontinue.csv,2023-05-31_10h57.03.779,PainUncertainty,2022.2.5,142.87837049962965
grave,forte,stimuli/330Hz,stimuli/forte,bloc_9,prob20hthp_12trials.xlsx,3,36,80,20,0,,,,,0,7,7,7,2,8,32,3,,,,,,,,3.6,1052.4848857999896,1056.0883909999975,1056.088675989998,0.3076883000030648,1056.5395375999942,1056.5395375999942,m,0.7694470000133151,1058.8094500000007,1058.8094500000007,47,1.297,sub-017,40,80,700,bloc_loopcontinue.csv,2023-05-31_10h57.03.779,PainUncertainty,2022.2.5,142.87837049962965
grave,moderee,stimuli/330Hz,stimuli/moderee,bloc_9,prob20hthp_12trials.xlsx,3,36,80,20,0,,,,,0,7,7,7,2,9,33,5,,,,,,,,3.3,1058.8094500000007,1062.1096020999976,1062.109427789993,0.30416510000941344,1062.5539112999977,1062.5539112999977,n,0.463336500004516,1065.520791899995,1065.520791899995,1,2.301,sub-017,40,80,700,bloc_loopcontinue.csv,2023-05-31_10h57.03.779,PainUncertainty,2022.2.5,142.87837049962965
grave,forte,stimuli/330Hz,stimuli/forte,bloc_9,prob20hthp_12trials.xlsx,3,36,80,20,0,,,,,0,7,7,7,2,10,34,2,,,,,,,,3.8,1065.520791899995,1069.3257558999903,1069.325791089995,0.30501969999750145,1069.7701242999901,1069.7701242999901,m,0.9888360000186367,1072.4038348999893,1072.4038348999893,75,1.442,sub-017,40,80,700,bloc_loopcontinue.csv,2023-05-31_10h57.03.779,PainUncertainty,2022.2.5,142.87837049962965
grave,forte,stimuli/330Hz,stimuli/forte,bloc_9,prob20hthp_12trials.xlsx,3,36,80,20,0,,,,,0,7,7,7,2,11,35,1,,,,,,,,3.3,1072.4038348999893,1075.7084341000009,1075.7085485899981,0.3049038000026485,1076.1526729999896,1076.1526729999896,m,0.8063609000091674,1077.9914401999995,1077.9914401999995,79,1.005,sub-017,40,80,700,bloc_loopcontinue.csv,2023-05-31_10h57.03.779,PainUncertainty,2022.2.5,142.87837049962965