cue_,stimulus_,cue_fichier,stimulus_fichier,block_name,block_trials_file,block_n_reps,block_ntrials,block_prob_highP_highT,block_prob_highP_lowT,block_pause_after,Bloc_essai.thisRepN,Bloc_essai.thisTrialN,Bloc_essai.thisN,Bloc_essai.thisIndex,blocks.thisRepN,blocks.thisTrialN,blocks.thisN,blocks.thisIndex,trials.thisRepN,trials.thisTrialN,trials.thisN,trials.thisIndex,pause_loop.thisRepN,pause_loop.thisTrialN,pause_loop.thisN,pause_loop.thisIndex,key_resp_5.started,start_calib.started,key_resp_2.started,ISI_duration,pause.started,pause.stopped,cue.started,ISI.started,choice_pain.started,Choice.started,choice_pain.keys,choice_pain.rt,main_text.started,confirm_text.started,ratingScale.response,ratingScale.rt,key_resp_3.started,key_resp_6.started,choice_pain.stopped,Choice.stopped,participant,low_ma,high_ma,failsafe_ma,block_file,date,expName,psychopyVersion,frameRate,
grave,forte,stimuli/330Hz,stimuli/forte,,,,,,,,0,0,0,1,,,,,,,,,,,,,23.545486699999856,32.32636150000053,180.05925540000044,3.7,182.89759790000062,186.60596890000033,186.60858324000003,0.30642919999991136,187.04762800000026,187.04762800000026,m,1.3257873000002292,192.01747400000022,192.01747400000022,72,3.557,,,,,sub-026,20,55,700,bloc_loop.csv,2023-06-19_16h34.09.091,PainUncertainty,2022.2.5,143.88261480795444,
grave,moderee,stimuli/330Hz,stimuli/moderee,,,,,,,,0,1,1,0,,,,,,,,,,,,,,,,3.7,192.01747400000022,195.7209472000004,195.72090616999986,0.30524119999972754,196.1658569000001,196.1658569000001,n,1.0269900000002963,201.17907680000008,201.17907680000008,9,3.936,,,,,sub-026,20,55,700,bloc_loop.csv,2023-06-19_16h34.09.091,PainUncertainty,2022.2.5,143.88261480795444,
aigu,moderee,stimuli/660Hz,stimuli/moderee,,,,,,,,0,2,2,2,,,,,,,,,,,,,,,,3.5,201.17907680000008,204.68182010000055,204.68118887000065,0.30422900000030495,205.1244329000001,205.1244329000001,n,1.021784800000205,209.67080330000044,209.67080330000044,28,3.448,,,,,sub-026,20,55,700,bloc_loop.csv,2023-06-19_16h34.09.091,PainUncertainty,2022.2.5,143.88261480795444,
aigu,forte,stimuli/660Hz,stimuli/forte,,,,,,,,0,3,3,3,,,,,,,,,,,,,,,,4.1,209.67080330000044,213.77165030000015,213.77192907,0.3045578999999634,214.21579950000068,214.21579950000068,m,0.9626690000004601,216.91569760000039,216.91569760000039,85,1.711,,,,,sub-026,20,55,700,bloc_loop.csv,2023-06-19_16h34.09.091,PainUncertainty,2022.2.5,143.88261480795444,
aigu,forte,stimuli/660Hz,stimuli/forte,bloc_1,prob20hthp_12trials.xlsx,4,48,20,80,0,,,,,0,0,0,0,0,0,0,11,,,,,,,,3.7,233.09450900000047,236.79525060000014,236.79523336999983,0.3048146999999517,237.2393589000003,237.2393589000003,m,0.6347890000006373,240.06457990000035,240.06457990000035,82,2.108,,,,,sub-026,20,55,700,bloc_loop.csv,2023-06-19_16h34.09.091,PainUncertainty,2022.2.5,143.88261480795444,
aigu,moderee,stimuli/660Hz,stimuli/moderee,bloc_1,prob20hthp_12trials.xlsx,4,48,20,80,0,,,,,0,0,0,0,0,1,1,6,,,,,,,,4,240.06457990000035,244.06694760000028,244.06703907000002,0.305065000000468,244.5113996,244.5113996,n,0.6840921000002709,249.1139122000004,249.1139122000004,9,3.852,,,,,sub-026,20,55,700,bloc_loop.csv,2023-06-19_16h34.09.091,PainUncertainty,2022.2.5,143.88261480795444,
aigu,moderee,stimuli/660Hz,stimuli/moderee,bloc_1,prob20hthp_12trials.xlsx,4,48,20,80,0,,,,,0,0,0,0,0,2,2,7,,,,,,,,3.8,249.1139122000004,252.9151737000002,252.91529307000047,0.30506229999991774,253.35943430000043,253.35943430000043,n,0.7079072000005908,257.18829650000043,257.18829650000043,14,3.068,,,,,sub-026,20,55,700,bloc_loop.csv,2023-06-19_16h34.09.091,PainUncertainty,2022.2.5,143.88261480795444,
aigu,moderee,stimuli/660Hz,stimuli/moderee,bloc_1,prob20hthp_12trials.xlsx,4,48,20,80,0,,,,,0,0,0,0,0,3,3,9,,,,,,,,4.9,257.18829650000043,262.0900236000007,262.09001047000066,0.30516739999984566,262.5340702000003,262.5340702000003,n,0.6358359000005294,266.1414926000007,266.1414926000007,10,2.906,,,,,sub-026,20,55,700,bloc_loop.csv,2023-06-19_16h34.09.091,PainUncertainty,2022.2.5,143.88261480795444,
grave,moderee,stimuli/330Hz,stimuli/moderee,bloc_1,prob20hthp_12trials.xlsx,4,48,20,80,0,,,,,0,0,0,0,0,4,4,5,,,,,,,,4.1,266.1414926000007,270.24387449999995,270.24381207000016,0.3055560000002515,270.6910660000003,270.6910660000003,n,1.157392100000834,276.85537569999997,276.85537569999997,27,4.933,,,,,sub-026,20,55,700,bloc_loop.csv,2023-06-19_16h34.09.091,PainUncertainty,2022.2.5,143.88261480795444,
grave,forte,stimuli/330Hz,stimuli/forte,bloc_1,prob20hthp_12trials.xlsx,4,48,20,80,0,,,,,0,0,0,0,0,5,5,4,,,,,,,,4.9,276.85537569999997,281.75925390000066,281.7592883700002,0.3072128000003431,282.2105915000002,282.2105915000002,m,0.7883968999994977,285.51980060000005,285.51980060000005,77,2.462,,,,,sub-026,20,55,700,bloc_loop.csv,2023-06-19_16h34.09.091,PainUncertainty,2022.2.5,143.88261480795444,
grave,forte,stimuli/330Hz,stimuli/forte,bloc_1,prob20hthp_12trials.xlsx,4,48,20,80,0,,,,,0,0,0,0,0,6,6,0,,,,,,,,4.4,285.51980060000005,289.9209944000004,289.92005877,0.2990809000002628,290.36220050000065,290.36220050000065,m,0.6643045999999231,293.1645750000007,293.1645750000007,93,2.052,,,,,sub-026,20,55,700,bloc_loop.csv,2023-06-19_16h34.09.091,PainUncertainty,2022.2.5,143.88261480795444,
aigu,moderee,stimuli/660Hz,stimuli/moderee,bloc_1,prob20hthp_12trials.xlsx,4,48,20,80,0,,,,,0,0,0,0,0,7,7,8,,,,,,,,4.4,293.1645750000007,297.5662547000002,297.56630067,0.3050929000000906,298.0104811000001,298.0104811000001,n,0.5932280999995783,301.3177378999999,301.3177378999999,5,2.637,,,,,sub-026,20,55,700,bloc_loop.csv,2023-06-19_16h34.09.091,PainUncertainty,2022.2.5,143.88261480795444,
grave,forte,stimuli/330Hz,stimuli/forte,bloc_1,prob20hthp_12trials.xlsx,4,48,20,80,0,,,,,0,0,0,0,0,8,8,2,,,,,,,,3.9,301.3177378999999,305.22004620000007,305.2204209700006,0.30474859999958426,305.6644163000001,305.6644163000001,m,0.7426588000007541,308.75081859999955,308.75081859999955,78,2.29,,,,,sub-026,20,55,700,bloc_loop.csv,2023-06-19_16h34.09.091,PainUncertainty,2022.2.5,143.88261480795444,
grave,forte,stimuli/330Hz,stimuli/forte,bloc_1,prob20hthp_12trials.xlsx,4,48,20,80,0,,,,,0,0,0,0,0,9,9,1,,,,,,,,3,308.75081859999955,311.75540739999997,311.75550027000037,0.29966110000168555,312.19885280000017,312.19885280000017,m,0.8155510999995386,316.96945720000076,316.96945720000076,86,2.838,,,,,sub-026,20,55,700,bloc_loop.csv,2023-06-19_16h34.09.091,PainUncertainty,2022.2.5,143.88261480795444,
grave,forte,stimuli/330Hz,stimuli/forte,bloc_1,prob20hthp_12trials.xlsx,4,48,20,80,0,,,,,0,0,0,0,0,10,10,3,,,,,,,,4.2,316.96945720000076,321.17340049999984,321.173745970001,0.3046641000000818,321.61758519999967,321.61758519999967,m,0.7767125000000306,325.46057370000017,325.46057370000017,90,2.99,,,,,sub-026,20,55,700,bloc_loop.csv,2023-06-19_16h34.09.091,PainUncertainty,2022.2.5,143.88261480795444,
aigu,moderee,stimuli/660Hz,stimuli/moderee,bloc_1,prob20hthp_12trials.xlsx,4,48,20,80,0,,,,,0,0,0,0,0,11,11,10,,,,,,,,3,325.46057370000017,328.4658381999998,328.46568837000024,0.30574460000025283,328.9146593000005,328.9146593000005,n,0.6355658999991647,333.5666626000002,333.5666626000002,11,3.943,,,,,sub-026,20,55,700,bloc_loop.csv,2023-06-19_16h34.09.091,PainUncertainty,2022.2.5,143.88261480795444,
grave,forte,stimuli/330Hz,stimuli/forte,bloc_1,prob20hthp_12trials.xlsx,4,48,20,80,0,,,,,0,0,0,0,1,0,12,1,,,,,,,,4.8,333.5666626000002,338.36987000000045,338.36967707000014,0.2992664000012155,338.8079376000005,338.8079376000005,m,0.8698792000004687,341.8947790000002,341.8947790000002,80,2.163,,,,,sub-026,20,55,700,bloc_loop.csv,2023-06-19_16h34.09.091,PainUncertainty,2022.2.5,143.88261480795444,
grave,forte,stimuli/330Hz,stimuli/forte,bloc_1,prob20hthp_12trials.xlsx,4,48,20,80,0,,,,,0,0,0,0,1,1,13,4,,,,,,,,4.9,341.8947790000002,346.79430219999995,346.79433397000076,0.30514210000001185,347.2385673000008,347.2385673000008,m,1.1304839999984324,350.6900937999999,350.6900937999999,84,2.24,,,,,sub-026,20,55,700,bloc_loop.csv,2023-06-19_16h34.09.091,PainUncertainty,2022.2.5,143.88261480795444,
grave,moderee,stimuli/330Hz,stimuli/moderee,bloc_1,prob20hthp_12trials.xlsx,4,48,20,80,0,,,,,0,0,0,0,1,2,14,5,,,,,,,,4.2,350.6900937999999,354.8925273999994,354.89274097000026,0.3046530999999959,355.3368811,355.3368811,n,0.6630324999996446,358.4603124000005,358.4603124000005,3,2.408,,,,,sub-026,20,55,700,bloc_loop.csv,2023-06-19_16h34.09.091,PainUncertainty,2022.2.5,143.88261480795444,
aigu,moderee,stimuli/660Hz,stimuli/moderee,bloc_1,prob20hthp_12trials.xlsx,4,48,20,80,0,,,,,0,0,0,0,1,3,15,10,,,,,,,,3.4,358.4603124000005,361.86574550000114,361.865715270001,0.3050831000000471,362.310106500001,362.310106500001,n,0.7049613999997746,367.2370372000005,367.2370372000005,1,4.158,,,,,sub-026,20,55,700,bloc_loop.csv,2023-06-19_16h34.09.091,PainUncertainty,2022.2.5,143.88261480795444,
aigu,moderee,stimuli/660Hz,stimuli/moderee,bloc_1,prob20hthp_12trials.xlsx,4,48,20,80,0,,,,,0,0,0,0,1,4,16,9,,,,,,,,4.3,367.2370372000005,371.5410580000007,371.54117786999933,0.30399729999953706,371.9845481000011,371.9845481000011,n,0.6257936000010886,376.39825050000036,376.39825050000036,5,3.72,,,,,sub-026,20,55,700,bloc_loop.csv,2023-06-19_16h34.09.091,PainUncertainty,2022.2.5,143.88261480795444,
grave,forte,stimuli/330Hz,stimuli/forte,bloc_1,prob20hthp_12trials.xlsx,4,48,20,80,0,,,,,0,0,0,0,1,5,17,2,,,,,,,,3,376.39825050000036,379.40242170000056,379.4023979700008,0.3052440999999817,379.84671680000065,379.84671680000065,m,0.8092213999998421,384.0905419999999,384.0905419999999,95,3.364,,,,,sub-026,20,55,700,bloc_loop.csv,2023-06-19_16h34.09.091,PainUncertainty,2022.2.5,143.88261480795444,
aigu,moderee,stimuli/660Hz,stimuli/moderee,bloc_1,prob20hthp_12trials.xlsx,4,48,20,80,0,,,,,0,0,0,0,1,6,18,7,,,,,,,,4.3,384.0905419999999,388.3899171000012,388.3899389699994,0.30503049999970244,388.83617630000117,388.83617630000117,n,1.1510851000011826,393.1238857999997,393.1238857999997,13,3.059,,,,,sub-026,20,55,700,bloc_loop.csv,2023-06-19_16h34.09.091,PainUncertainty,2022.2.5,143.88261480795444,
aigu,forte,stimuli/660Hz,stimuli/forte,bloc_1,prob20hthp_12trials.xlsx,4,48,20,80,0,,,,,0,0,0,0,1,7,19,11,,,,,,,,3.4,393.1238857999997,396.52946560000055,396.52937646999936,0.30513969999992696,396.9807989000001,396.9807989000001,m,0.6808785999992324,400.22279549999985,400.22279549999985,94,2.505,,,,,sub-026,20,55,700,bloc_loop.csv,2023-06-19_16h34.09.091,PainUncertainty,2022.2.5,143.88261480795444,
grave,forte,stimuli/330Hz,stimuli/forte,bloc_1,prob20hthp_12trials.xlsx,4,48,20,80,0,,,,,0,0,0,0,1,8,20,0,,,,,,,,3,400.22279549999985,403.22518630000013,403.2250235700006,0.30540130000008503,403.6729379999997,403.6729379999997,m,1.0363505000013902,406.77867100000003,406.77867100000003,79,1.999,,,,,sub-026,20,55,700,bloc_loop.csv,2023-06-19_16h34.09.091,PainUncertainty,2022.2.5,143.88261480795444,
aigu,moderee,stimuli/660Hz,stimuli/moderee,bloc_1,prob20hthp_12trials.xlsx,4,48,20,80,0,,,,,0,0,0,0,1,9,21,6,,,,,,,,4.7,406.77867100000003,411.4831137000001,411.4829671700002,0.30521649999900546,411.9314334999999,411.9314334999999,n,0.7426805000004606,415.2368929000004,415.2368929000004,5,2.483,,,,,sub-026,20,55,700,bloc_loop.csv,2023-06-19_16h34.09.091,PainUncertainty,2022.2.5,143.88261480795444,
grave,forte,stimuli/330Hz,stimuli/forte,bloc_1,prob20hthp_12trials.xlsx,4,48,20,80,0,,,,,0,0,0,0,1,10,22,3,,,,,,,,3.8,415.2368929000004,419.03912409999975,419.03908987000005,0.3054740000006859,419.48744350000015,419.48744350000015,m,0.7873609000007491,422.95806730000004,422.95806730000004,88,2.616,,,,,sub-026,20,55,700,bloc_loop.csv,2023-06-19_16h34.09.091,PainUncertainty,2022.2.5,143.88261480795444,
aigu,moderee,stimuli/660Hz,stimuli/moderee,bloc_1,prob20hthp_12trials.xlsx,4,48,20,80,0,,,,,0,0,0,0,1,11,23,8,,,,,,,,4.7,422.95806730000004,427.6585685000009,427.6585258700009,0.30518949999895995,428.10682690000067,428.10682690000067,n,0.6642479000011008,430.9053334,430.9053334,0,2.068,,,,,sub-026,20,55,700,bloc_loop.csv,2023-06-19_16h34.09.091,PainUncertainty,2022.2.5,143.88261480795444,
aigu,moderee,stimuli/660Hz,stimuli/moderee,bloc_1,prob20hthp_12trials.xlsx,4,48,20,80,0,,,,,0,0,0,0,2,0,24,10,,,,,,,,4.7,430.9053334,435.612870500001,435.6119803699997,0.3005346999998437,436.05503540000063,436.05503540000063,n,0.6516517000009117,440.3058600000004,440.3058600000004,6,3.539,,,,,sub-026,20,55,700,bloc_loop.csv,2023-06-19_16h34.09.091,PainUncertainty,2022.2.5,143.88261480795444,
aigu,moderee,stimuli/660Hz,stimuli/moderee,bloc_1,prob20hthp_12trials.xlsx,4,48,20,80,0,,,,,0,0,0,0,2,1,25,9,,,,,,,,4.7,440.3058600000004,445.0096534000004,445.00778207000013,0.30501400000139256,445.4556412000002,445.4556412000002,n,0.6301477000006344,447.43641279999974,447.43641279999974,10,1.266,,,,,sub-026,20,55,700,bloc_loop.csv,2023-06-19_16h34.09.091,PainUncertainty,2022.2.5,143.88261480795444,
grave,forte,stimuli/330Hz,stimuli/forte,bloc_1,prob20hthp_12trials.xlsx,4,48,20,80,0,,,,,0,0,0,0,2,2,26,4,,,,,,,,4.6,447.43641279999974,452.03643379999994,452.0364828699997,0.30521199999930104,452.48495150000053,452.48495150000053,m,0.9855794000004607,455.28515719999996,455.28515719999996,88,1.761,,,,,sub-026,20,55,700,bloc_loop.csv,2023-06-19_16h34.09.091,PainUncertainty,2022.2.5,143.88261480795444,
grave,forte,stimuli/330Hz,stimuli/forte,bloc_1,prob20hthp_12trials.xlsx,4,48,20,80,0,,,,,0,0,0,0,2,3,27,3,,,,,,,,3.8,455.28515719999996,459.0858392000009,459.08573286999973,0.30484489999980724,459.52958880000006,459.52958880000006,m,0.6793449999995573,463.3594912999997,463.3594912999997,95,3.087,,,,,sub-026,20,55,700,bloc_loop.csv,2023-06-19_16h34.09.091,PainUncertainty,2022.2.5,143.88261480795444,
grave,forte,stimuli/330Hz,stimuli/forte,bloc_1,prob20hthp_12trials.xlsx,4,48,20,80,0,,,,,0,0,0,0,2,4,28,0,,,,,,,,3.4,463.3594912999997,466.7603287000002,466.76028207000064,0.3045990000009624,467.2041153000009,467.2041153000009,m,0.9822681999985434,470.0920724000007,470.0920724000007,89,1.83,,,,,sub-026,20,55,700,bloc_loop.csv,2023-06-19_16h34.09.091,PainUncertainty,2022.2.5,143.88261480795444,
aigu,moderee,stimuli/660Hz,stimuli/moderee,bloc_1,prob20hthp_12trials.xlsx,4,48,20,80,0,,,,,0,0,0,0,2,5,29,8,,,,,,,,4,470.0920724000007,474.0945351999999,474.0945129700006,0.3051885000004404,474.5422644999999,474.5422644999999,n,0.6387918999998874,479.4132924000005,479.4132924000005,3,4.164,,,,,sub-026,20,55,700,bloc_loop.csv,2023-06-19_16h34.09.091,PainUncertainty,2022.2.5,143.88261480795444,
grave,forte,stimuli/330Hz,stimuli/forte,bloc_1,prob20hthp_12trials.xlsx,4,48,20,80,0,,,,,0,0,0,0,2,6,30,2,,,,,,,,4.1,479.4132924000005,483.51266680000117,483.5126556700009,0.3050652000001719,483.96138509999946,483.96138509999946,m,1.5243333999997049,489.0394049000006,489.0394049000006,82,3.475,,,,,sub-026,20,55,700,bloc_loop.csv,2023-06-19_16h34.09.091,PainUncertainty,2022.2.5,143.88261480795444,
aigu,moderee,stimuli/660Hz,stimuli/moderee,bloc_1,prob20hthp_12trials.xlsx,4,48,20,80,0,,,,,0,0,0,0,2,7,31,7,,,,,,,,3.4,489.0394049000006,492.4437988000009,492.44366526999994,0.30501170000025013,492.8881376999998,492.8881376999998,n,0.575175400000262,495.22479139999996,495.22479139999996,4,1.705,,,,,sub-026,20,55,700,bloc_loop.csv,2023-06-19_16h34.09.091,PainUncertainty,2022.2.5,143.88261480795444,
grave,moderee,stimuli/330Hz,stimuli/moderee,bloc_1,prob20hthp_12trials.xlsx,4,48,20,80,0,,,,,0,0,0,0,2,8,32,5,,,,,,,,3.6,495.22479139999996,498.82634080000025,498.8265073699998,0.30485700000099314,499.2704408999998,499.2704408999998,n,0.5886957000011535,503.02749890000086,503.02749890000086,5,3.114,,,,,sub-026,20,55,700,bloc_loop.csv,2023-06-19_16h34.09.091,PainUncertainty,2022.2.5,143.88261480795444,
aigu,moderee,stimuli/660Hz,stimuli/moderee,bloc_1,prob20hthp_12trials.xlsx,4,48,20,80,0,,,,,0,0,0,0,2,9,33,6,,,,,,,,4.9,503.02749890000086,507.93219520000093,507.9325158700006,0.304184599999644,508.37603280000076,508.37603280000076,n,0.6281979000004867,512.6537483000011,512.6537483000011,2,3.581,,,,,sub-026,20,55,700,bloc_loop.csv,2023-06-19_16h34.09.091,PainUncertainty,2022.2.5,143.88261480795444,
aigu,forte,stimuli/660Hz,stimuli/forte,bloc_1,prob20hthp_12trials.xlsx,4,48,20,80,0,,,,,0,0,0,0,2,10,34,11,,,,,,,,4.8,512.6537483000011,517.4534908999995,517.45351977,0.3050197000011394,517.8977787000003,517.8977787000003,m,1.6090943999997762,523.6525534000011,523.6525534000011,81,4.087,,,,,sub-026,20,55,700,bloc_loop.csv,2023-06-19_16h34.09.091,PainUncertainty,2022.2.5,143.88261480795444,
grave,forte,stimuli/330Hz,stimuli/forte,bloc_1,prob20hthp_12trials.xlsx,4,48,20,80,0,,,,,0,0,0,0,2,11,35,1,,,,,,,,3.3,523.6525534000011,526.9548312000006,526.9547048699999,0.3050100000000384,527.3987758000003,527.3987758000003,m,0.7042902000002869,530.6232866999999,530.6232866999999,89,2.462,,,,,sub-026,20,55,700,bloc_loop.csv,2023-06-19_16h34.09.091,PainUncertainty,2022.2.5,143.88261480795444,
grave,forte,stimuli/330Hz,stimuli/forte,bloc_1,prob20hthp_12trials.xlsx,4,48,20,80,0,,,,,0,0,0,0,3,0,36,2,,,,,,,,4.1,530.6232866999999,534.7264935000003,534.7264366699994,0.30494609999914246,535.1706023999996,535.1706023999996,m,1.7111328999990292,539.1634830000003,539.1634830000003,75,2.213,,,,,sub-026,20,55,700,bloc_loop.csv,2023-06-19_16h34.09.091,PainUncertainty,2022.2.5,143.88261480795444,
aigu,moderee,stimuli/660Hz,stimuli/moderee,bloc_1,prob20hthp_12trials.xlsx,4,48,20,80,0,,,,,0,0,0,0,3,1,37,6,,,,,,,,4.3,539.1634830000003,543.4639230000012,543.4640883700006,0.3050089000007574,543.9118565000008,543.9118565000008,n,0.6290814000012688,547.525741200001,547.525741200001,9,2.899,,,,,sub-026,20,55,700,bloc_loop.csv,2023-06-19_16h34.09.091,PainUncertainty,2022.2.5,143.88261480795444,
aigu,forte,stimuli/660Hz,stimuli/forte,bloc_1,prob20hthp_12trials.xlsx,4,48,20,80,0,,,,,0,0,0,0,3,2,38,11,,,,,,,,4.2,547.525741200001,551.7283588999999,551.7284239699995,0.30534829999851354,552.1768616000008,552.1768616000008,m,1.3645119000002524,557.0530273000004,557.0530273000004,75,3.448,,,,,sub-026,20,55,700,bloc_loop.csv,2023-06-19_16h34.09.091,PainUncertainty,2022.2.5,143.88261480795444,
grave,forte,stimuli/330Hz,stimuli/forte,bloc_1,prob20hthp_12trials.xlsx,4,48,20,80,0,,,,,0,0,0,0,3,3,39,1,,,,,,,,4,557.0530273000004,561.0559493000001,561.0559627699997,0.30475379999916186,561.4999848000007,561.4999848000007,m,0.6363971999990099,564.169600700001,564.169600700001,89,1.955,,,,,sub-026,20,55,700,bloc_loop.csv,2023-06-19_16h34.09.091,PainUncertainty,2022.2.5,143.88261480795444,
aigu,moderee,stimuli/660Hz,stimuli/moderee,bloc_1,prob20hthp_12trials.xlsx,4,48,20,80,0,,,,,0,0,0,0,3,4,40,7,,,,,,,,3.8,564.169600700001,567.9733651999995,567.9733418700009,0.30498850000003586,568.4174733,568.4174733,n,0.6800692000006165,572.2431656000008,572.2431656000008,3,3.066,,,,,sub-026,20,55,700,bloc_loop.csv,2023-06-19_16h34.09.091,PainUncertainty,2022.2.5,143.88261480795444,
grave,forte,stimuli/330Hz,stimuli/forte,bloc_1,prob20hthp_12trials.xlsx,4,48,20,80,0,,,,,0,0,0,0,3,5,41,4,,,,,,,,3.2,572.2431656000008,575.4464883,575.4464592699999,0.30511400000068534,575.8907622999996,575.8907622999996,m,0.8389849000004688,578.1908055000004,578.1908055000004,89,1.392,,,,,sub-026,20,55,700,bloc_loop.csv,2023-06-19_16h34.09.091,PainUncertainty,2022.2.5,143.88261480795444,
aigu,moderee,stimuli/660Hz,stimuli/moderee,bloc_1,prob20hthp_12trials.xlsx,4,48,20,80,0,,,,,0,0,0,0,3,6,42,10,,,,,,,,4.4,578.1908055000004,582.5937367000006,582.5935468700002,0.305147199998828,583.0412620999996,583.0412620999996,n,0.7152796000000308,585.5148878,585.5148878,4,1.679,,,,,sub-026,20,55,700,bloc_loop.csv,2023-06-19_16h34.09.091,PainUncertainty,2022.2.5,143.88261480795444,
grave,forte,stimuli/330Hz,stimuli/forte,bloc_1,prob20hthp_12trials.xlsx,4,48,20,80,0,,,,,0,0,0,0,3,7,43,3,,,,,,,,3.4,585.5148878,588.9203338999996,588.9202672700005,0.30519859999913024,589.3667157,589.3667157,m,1.324690999998893,594.8019259000012,594.8019259000012,87,4.06,,,,,sub-026,20,55,700,bloc_loop.csv,2023-06-19_16h34.09.091,PainUncertainty,2022.2.5,143.88261480795444,
grave,forte,stimuli/330Hz,stimuli/forte,bloc_1,prob20hthp_12trials.xlsx,4,48,20,80,0,,,,,0,0,0,0,3,8,44,0,,,,,,,,4.7,594.8019259000012,599.5049388999996,599.5047916699998,0.30526970000028086,599.9528169000005,599.9528169000005,m,0.6203701999993427,602.493114500001,602.493114500001,95,1.852,,,,,sub-026,20,55,700,bloc_loop.csv,2023-06-19_16h34.09.091,PainUncertainty,2022.2.5,143.88261480795444,
aigu,moderee,stimuli/660Hz,stimuli/moderee,bloc_1,prob20hthp_12trials.xlsx,4,48,20,80,0,,,,,0,0,0,0,3,9,45,8,,,,,,,,4.9,602.493114500001,607.3948720000008,607.3947140699995,0.30511570000089705,607.839058900001,607.839058900001,n,0.7279967000004035,611.1436761999994,611.1436761999994,4,2.517,,,,,sub-026,20,55,700,bloc_loop.csv,2023-06-19_16h34.09.091,PainUncertainty,2022.2.5,143.88261480795444,
aigu,moderee,stimuli/660Hz,stimuli/moderee,bloc_1,prob20hthp_12trials.xlsx,4,48,20,80,0,,,,,0,0,0,0,3,10,46,9,,,,,,,,4.8,611.1436761999994,615.9443836999999,615.9444574700003,0.30492729999969015,616.3887149000002,616.3887149000002,n,0.6706141999993633,619.4883014999996,619.4883014999996,10,2.372,,,,,sub-026,20,55,700,bloc_loop.csv,2023-06-19_16h34.09.091,PainUncertainty,2022.2.5,143.88261480795444,
grave,moderee,stimuli/330Hz,stimuli/moderee,bloc_1,prob20hthp_12trials.xlsx,4,48,20,80,0,,,,,0,0,0,0,3,11,47,5,,,,,,,,3.5,619.4883014999996,622.987522200001,622.987392870001,0.30485760000010487,623.4329637999999,623.4329637999999,n,1.0541913999995813,626.4602580999999,626.4602580999999,10,1.898,,,,,sub-026,20,55,700,bloc_loop.csv,2023-06-19_16h34.09.091,PainUncertainty,2022.2.5,143.88261480795444,
aigu,forte,stimuli/660Hz,stimuli/forte,bloc_2,prob50_50_4trials.xlsx,2,8,50,50,1,,,,,0,1,1,1,0,0,0,3,,,,,,,,4,626.4602580999999,630.460111800001,630.4600865700006,0.2990282999999181,630.898205200001,630.898205200001,m,0.9388341000003493,634.8388348999997,634.8388348999997,93,2.927,,,,,sub-026,20,55,700,bloc_loop.csv,2023-06-19_16h34.09.091,PainUncertainty,2022.2.5,143.88261480795444,
aigu,moderee,stimuli/660Hz,stimuli/moderee,bloc_2,prob50_50_4trials.xlsx,2,8,50,50,1,,,,,0,1,1,1,0,1,1,2,,,,,,,,4.2,634.8388348999997,639.0378183000012,639.0378859700006,0.30504930000097374,639.4867752000009,639.4867752000009,n,0.8438350000005812,643.1670799000003,643.1670799000003,76,2.781,,,,,sub-026,20,55,700,bloc_loop.csv,2023-06-19_16h34.09.091,PainUncertainty,2022.2.5,143.88261480795444,
grave,moderee,stimuli/330Hz,stimuli/moderee,bloc_2,prob50_50_4trials.xlsx,2,8,50,50,1,,,,,0,1,1,1,0,2,2,0,,,,,,,,3.1,643.1670799000003,646.2675216999996,646.2673549700005,0.30511310000110825,646.7115697000008,646.7115697000008,n,1.0032657000001564,650.0609683000002,650.0609683000002,13,2.275,,,,,sub-026,20,55,700,bloc_loop.csv,2023-06-19_16h34.09.091,PainUncertainty,2022.2.5,143.88261480795444,
grave,forte,stimuli/330Hz,stimuli/forte,bloc_2,prob50_50_4trials.xlsx,2,8,50,50,1,,,,,0,1,1,1,0,3,3,1,,,,,,,,4.5,650.0609683000002,654.5670934000009,654.5668954700006,0.3050512999998318,655.0111871999998,655.0111871999998,m,0.7944109999998545,658.9487793999997,658.9487793999997,89,3.067,,,,,sub-026,20,55,700,bloc_loop.csv,2023-06-19_16h34.09.091,PainUncertainty,2022.2.5,143.88261480795444,
aigu,moderee,stimuli/660Hz,stimuli/moderee,bloc_2,prob50_50_4trials.xlsx,2,8,50,50,1,,,,,0,1,1,1,1,0,4,2,,,,,,,,3.1,658.9487793999997,662.0540785000012,662.0541476699993,0.3048225000002276,662.4982364000007,662.4982364000007,n,0.6127907999989475,665.5370729999995,665.5370729999995,13,2.345,,,,,sub-026,20,55,700,bloc_loop.csv,2023-06-19_16h34.09.091,PainUncertainty,2022.2.5,143.88261480795444,
aigu,forte,stimuli/660Hz,stimuli/forte,bloc_2,prob50_50_4trials.xlsx,2,8,50,50,1,,,,,0,1,1,1,1,1,5,3,,,,,,,,3.7,665.5370729999995,669.2425916000011,669.2423462700001,0.3050712999993266,669.6864781000004,669.6864781000004,m,1.0505746000008003,672.7795091999997,672.7795091999997,80,1.965,,,,,sub-026,20,55,700,bloc_loop.csv,2023-06-19_16h34.09.091,PainUncertainty,2022.2.5,143.88261480795444,
grave,moderee,stimuli/330Hz,stimuli/moderee,bloc_2,prob50_50_4trials.xlsx,2,8,50,50,1,,,,,0,1,1,1,1,2,6,0,,,,,,,,4,672.7795091999997,676.7850725000008,676.7848843700006,0.30521459999908984,677.229024100001,677.229024100001,n,0.6891186000002563,679.9910421000004,679.9910421000004,8,1.989,,,,,sub-026,20,55,700,bloc_loop.csv,2023-06-19_16h34.09.091,PainUncertainty,2022.2.5,143.88261480795444,
grave,forte,stimuli/330Hz,stimuli/forte,bloc_2,prob50_50_4trials.xlsx,2,8,50,50,1,,,,,0,1,1,1,1,3,7,1,,,,,,,,3.2,679.9910421000004,683.1956932000012,683.1956166699995,0.3048885000007431,683.639642600001,683.639642600001,m,0.9640582999991238,689.4422157000008,689.4422157000008,80,2.808,,,,,sub-026,20,55,700,bloc_loop.csv,2023-06-19_16h34.09.091,PainUncertainty,2022.2.5,143.88261480795444,
,,,,bloc_2,prob50_50_4trials.xlsx,2,8,50,50,1,,,,,0,1,1,1,,,,,0,0,0,0,,,,,,,,,,,,,,,,,689.4422157000008,839.4225578000005,,,sub-026,20,55,700,bloc_loop.csv,2023-06-19_16h34.09.091,PainUncertainty,2022.2.5,143.88261480795444,
aigu,moderee,stimuli/660Hz,stimuli/moderee,bloc_3,prob80hthp_12trials.xlsx,2,24,80,20,0,,,,,0,2,2,2,0,0,0,11,,,,,,,,3.6,840.4197043000004,844.0201988000008,844.02005717,0.30492469999990135,844.4641793999999,844.4641793999999,n,0.7080815999988772,848.0278748000001,848.0278748000001,10,2.794,,,,,sub-026,20,55,700,bloc_loop.csv,2023-06-19_16h34.09.091,PainUncertainty,2022.2.5,143.88261480795444,
grave,moderee,stimuli/330Hz,stimuli/moderee,bloc_3,prob80hthp_12trials.xlsx,2,24,80,20,0,,,,,0,2,2,2,0,1,1,3,,,,,,,,3.5,848.0278748000001,851.5277973000011,851.5278195700005,0.30535409999902186,851.9723828999995,851.9723828999995,n,0.7486922999987655,855.9118825999994,855.9118825999994,15,3.121,,,,,sub-026,20,55,700,bloc_loop.csv,2023-06-19_16h34.09.091,PainUncertainty,2022.2.5,143.88261480795444,
aigu,forte,stimuli/660Hz,stimuli/forte,bloc_3,prob80hthp_12trials.xlsx,2,24,80,20,0,,,,,0,2,2,2,0,2,2,10,,,,,,,,3.2,855.9118825999994,859.1127563999999,859.112850570001,0.3058357999998407,859.562442800001,859.562442800001,m,0.6126833000007537,861.3938481999994,861.3938481999994,90,1.171,,,,,sub-026,20,55,700,bloc_loop.csv,2023-06-19_16h34.09.091,PainUncertainty,2022.2.5,143.88261480795444,
aigu,forte,stimuli/660Hz,stimuli/forte,bloc_3,prob80hthp_12trials.xlsx,2,24,80,20,0,,,,,0,2,2,2,0,3,3,9,,,,,,,,4.1,861.3938481999994,865.4948118000011,865.4948129699999,0.3051510999994207,865.9390070999998,865.9390070999998,m,0.9165865999993912,868.7485388999994,868.7485388999994,84,1.829,,,,,sub-026,20,55,700,bloc_loop.csv,2023-06-19_16h34.09.091,PainUncertainty,2022.2.5,143.88261480795444,
aigu,forte,stimuli/660Hz,stimuli/forte,bloc_3,prob80hthp_12trials.xlsx,2,24,80,20,0,,,,,0,2,2,2,0,4,4,8,,,,,,,,3.4,868.7485388999994,872.1483662999999,872.1482421699995,0.3053565999998682,872.5925578999995,872.5925578999995,m,0.7711190999989412,875.0982072000006,875.0982072000006,85,1.622,,,,,sub-026,20,55,700,bloc_loop.csv,2023-06-19_16h34.09.091,PainUncertainty,2022.2.5,143.88261480795444,
grave,moderee,stimuli/330Hz,stimuli/moderee,bloc_3,prob80hthp_12trials.xlsx,2,24,80,20,0,,,,,0,2,2,2,0,5,5,1,,,,,,,,5,875.0982072000006,880.1006811000007,880.1006123700001,0.3050855999990745,880.5450072000003,880.5450072000003,n,0.8048759000002974,884.3386429000002,884.3386429000002,1,2.913,,,,,sub-026,20,55,700,bloc_loop.csv,2023-06-19_16h34.09.091,PainUncertainty,2022.2.5,143.88261480795444,
aigu,forte,stimuli/660Hz,stimuli/forte,bloc_3,prob80hthp_12trials.xlsx,2,24,80,20,0,,,,,0,2,2,2,0,6,6,7,,,,,,,,3.3,884.3386429000002,887.6432397000008,887.6434995699994,0.30484700000124576,888.0874440999996,888.0874440999996,m,0.653462799999943,889.660944700001,889.660944700001,90,0.865,,,,,sub-026,20,55,700,bloc_loop.csv,2023-06-19_16h34.09.091,PainUncertainty,2022.2.5,143.88261480795444,
aigu,forte,stimuli/660Hz,stimuli/forte,bloc_3,prob80hthp_12trials.xlsx,2,24,80,20,0,,,,,0,2,2,2,0,7,7,6,,,,,,,,3.8,889.660944700001,893.4638601999995,893.4637412700006,0.30507719999877736,893.9079708999998,893.9079708999998,m,1.1000192000001334,896.2655503999995,896.2655503999995,80,1.178,,,,,sub-026,20,55,700,bloc_loop.csv,2023-06-19_16h34.09.091,PainUncertainty,2022.2.5,143.88261480795444,
grave,moderee,stimuli/330Hz,stimuli/moderee,bloc_3,prob80hthp_12trials.xlsx,2,24,80,20,0,,,,,0,2,2,2,0,8,8,4,,,,,,,,4.4,896.2655503999995,900.6656593000007,900.6656800699996,0.30506599999898754,901.1122833000009,901.1122833000009,n,0.6544788000001063,903.4757690000006,903.4757690000006,4,1.642,,,,,sub-026,20,55,700,bloc_loop.csv,2023-06-19_16h34.09.091,PainUncertainty,2022.2.5,143.88261480795444,
grave,moderee,stimuli/330Hz,stimuli/moderee,bloc_3,prob80hthp_12trials.xlsx,2,24,80,20,0,,,,,0,2,2,2,0,9,9,0,,,,,,,,3.9,903.4757690000006,907.3818090000004,907.3817677700001,0.306558700000096,907.8313295999997,907.8313295999997,n,0.659073100000569,911.9512295000004,911.9512295000004,4,3.394,,,,,sub-026,20,55,700,bloc_loop.csv,2023-06-19_16h34.09.091,PainUncertainty,2022.2.5,143.88261480795444,
grave,moderee,stimuli/330Hz,stimuli/moderee,bloc_3,prob80hthp_12trials.xlsx,2,24,80,20,0,,,,,0,2,2,2,0,10,10,2,,,,,,,,3.6,911.9512295000004,915.5563170999994,915.5563710700001,0.30552239999997255,916.0051842000012,916.0051842000012,n,0.5156438000003618,918.1050734,918.1050734,5,1.517,,,,,sub-026,20,55,700,bloc_loop.csv,2023-06-19_16h34.09.091,PainUncertainty,2022.2.5,143.88261480795444,
grave,forte,stimuli/330Hz,stimuli/forte,bloc_3,prob80hthp_12trials.xlsx,2,24,80,20,0,,,,,0,2,2,2,0,11,11,5,,,,,,,,4.9,918.1050734,923.0089982999998,923.0088462699998,0.3050136999991082,923.4531444000004,923.4531444000004,m,0.7758982000004835,927.4097393000011,927.4097393000011,89,3.102,,,,,sub-026,20,55,700,bloc_loop.csv,2023-06-19_16h34.09.091,PainUncertainty,2022.2.5,143.88261480795444,
aigu,moderee,stimuli/660Hz,stimuli/moderee,bloc_3,prob80hthp_12trials.xlsx,2,24,80,20,0,,,,,0,2,2,2,1,0,12,11,,,,,,,,3.7,927.4097393000011,931.1137192999995,931.1136957699994,0.3048625000010361,931.5602297999994,931.5602297999994,n,0.5851104000003033,935.1183951000003,935.1183951000003,11,2.908,,,,,sub-026,20,55,700,bloc_loop.csv,2023-06-19_16h34.09.091,PainUncertainty,2022.2.5,143.88261480795444,
grave,moderee,stimuli/330Hz,stimuli/moderee,bloc_3,prob80hthp_12trials.xlsx,2,24,80,20,0,,,,,0,2,2,2,1,1,13,3,,,,,,,,3.3,935.1183951000003,938.4201000000012,938.42016377,0.30203400000027614,938.8651578999998,938.8651578999998,n,0.6100610999992568,941.2094366000001,941.2094366000001,10,1.656,,,,,sub-026,20,55,700,bloc_loop.csv,2023-06-19_16h34.09.091,PainUncertainty,2022.2.5,143.88261480795444,
aigu,forte,stimuli/660Hz,stimuli/forte,bloc_3,prob80hthp_12trials.xlsx,2,24,80,20,0,,,,,0,2,2,2,1,2,14,9,,,,,,,,3.3,941.2094366000001,944.5115879999994,944.5111490699994,0.305556000001161,944.9556602000011,944.9556602000011,m,0.6932310999991387,947.4912698999997,947.4912698999997,77,1.78,,,,,sub-026,20,55,700,bloc_loop.csv,2023-06-19_16h34.09.091,PainUncertainty,2022.2.5,143.88261480795444,
aigu,forte,stimuli/660Hz,stimuli/forte,bloc_3,prob80hthp_12trials.xlsx,2,24,80,20,0,,,,,0,2,2,2,1,3,15,7,,,,,,,,5,947.4912698999997,952.4917206999999,952.4916466700008,0.30057250000027125,952.9361511000006,952.9361511000006,m,1.174330499999087,955.7271056999998,955.7271056999998,76,1.538,,,,,sub-026,20,55,700,bloc_loop.csv,2023-06-19_16h34.09.091,PainUncertainty,2022.2.5,143.88261480795444,
grave,moderee,stimuli/330Hz,stimuli/moderee,bloc_3,prob80hthp_12trials.xlsx,2,24,80,20,0,,,,,0,2,2,2,1,4,16,1,,,,,,,,3.2,955.7271056999998,958.9301288999995,958.9299881700001,0.3046677999991516,959.3736883000001,959.3736883000001,n,0.6520747000004121,963.017096900001,963.017096900001,8,2.921,,,,,sub-026,20,55,700,bloc_loop.csv,2023-06-19_16h34.09.091,PainUncertainty,2022.2.5,143.88261480795444,
aigu,forte,stimuli/660Hz,stimuli/forte,bloc_3,prob80hthp_12trials.xlsx,2,24,80,20,0,,,,,0,2,2,2,1,5,17,10,,,,,,,,4.6,963.017096900001,967.6186572999995,967.618434270001,0.30512889999954496,968.0669935000005,968.0669935000005,m,0.6013767000013104,970.3556710000012,970.3556710000012,83,1.608,,,,,sub-026,20,55,700,bloc_loop.csv,2023-06-19_16h34.09.091,PainUncertainty,2022.2.5,143.88261480795444,
grave,moderee,stimuli/330Hz,stimuli/moderee,bloc_3,prob80hthp_12trials.xlsx,2,24,80,20,0,,,,,0,2,2,2,1,6,18,2,,,,,,,,4.9,970.3556710000012,975.2578764000009,975.2578030699999,0.30532940000011877,975.7022171999997,975.7022171999997,n,0.7403887999998915,979.4543836000012,979.4543836000012,3,2.935,,,,,sub-026,20,55,700,bloc_loop.csv,2023-06-19_16h34.09.091,PainUncertainty,2022.2.5,143.88261480795444,
aigu,forte,stimuli/660Hz,stimuli/forte,bloc_3,prob80hthp_12trials.xlsx,2,24,80,20,0,,,,,0,2,2,2,1,7,19,6,,,,,,,,3.9,979.4543836000012,983.356072300001,983.3562070700002,0.3049953000008827,983.8002264999996,983.8002264999996,m,0.9297639000005802,987.2396614000008,987.2396614000008,75,2.431,,,,,sub-026,20,55,700,bloc_loop.csv,2023-06-19_16h34.09.091,PainUncertainty,2022.2.5,143.88261480795444,
grave,moderee,stimuli/330Hz,stimuli/moderee,bloc_3,prob80hthp_12trials.xlsx,2,24,80,20,0,,,,,0,2,2,2,1,8,20,4,,,,,,,,3.6,987.2396614000008,990.8431034999994,990.8430137700009,0.3011151999999129,991.2874207999994,991.2874207999994,n,0.5795662999998967,994.1954036999996,994.1954036999996,9,2.247,,,,,sub-026,20,55,700,bloc_loop.csv,2023-06-19_16h34.09.091,PainUncertainty,2022.2.5,143.88261480795444,
grave,forte,stimuli/330Hz,stimuli/forte,bloc_3,prob80hthp_12trials.xlsx,2,24,80,20,0,,,,,0,2,2,2,1,9,21,5,,,,,,,,3.9,994.1954036999996,998.1008156000007,998.1007543700009,0.3051701000003959,998.5451926000005,998.5451926000005,m,0.5637732000004689,1001.9502857999996,1001.9502857999996,80,2.753,,,,,sub-026,20,55,700,bloc_loop.csv,2023-06-19_16h34.09.091,PainUncertainty,2022.2.5,143.88261480795444,
grave,moderee,stimuli/330Hz,stimuli/moderee,bloc_3,prob80hthp_12trials.xlsx,2,24,80,20,0,,,,,0,2,2,2,1,10,22,0,,,,,,,,3.5,1001.9502857999996,1005.4561173000002,1005.4560557699999,0.30526909999935015,1005.9034573999998,1005.9034573999998,n,0.5533268999997745,1007.8650711999999,1007.8650711999999,10,1.33,,,,,sub-026,20,55,700,bloc_loop.csv,2023-06-19_16h34.09.091,PainUncertainty,2022.2.5,143.88261480795444,
aigu,forte,stimuli/660Hz,stimuli/forte,bloc_3,prob80hthp_12trials.xlsx,2,24,80,20,0,,,,,0,2,2,2,1,11,23,8,,,,,,,,4,1007.8650711999999,1011.8664710000012,1011.8664120700007,0.3049241000007896,1012.3104772999995,1012.3104772999995,m,0.9990714000005028,1015.4600511000008,1015.4600511000008,82,2.08,,,,,sub-026,20,55,700,bloc_loop.csv,2023-06-19_16h34.09.091,PainUncertainty,2022.2.5,143.88261480795444,
aigu,moderee,stimuli/660Hz,stimuli/moderee,bloc_4,prob50_50_4trials.xlsx,2,8,50,50,1,,,,,0,3,3,3,0,0,0,2,,,,,,,,3.1,1015.4600511000008,1018.5617292999996,1018.5615884699994,0.30494760000146925,1019.0074669999995,1019.0074669999995,n,0.5928644000005079,1021.3916566999997,1021.3916566999997,8,1.719,,,,,sub-026,20,55,700,bloc_loop.csv,2023-06-19_16h34.09.091,PainUncertainty,2022.2.5,143.88261480795444,
aigu,forte,stimuli/660Hz,stimuli/forte,bloc_4,prob50_50_4trials.xlsx,2,8,50,50,1,,,,,0,3,3,3,0,1,1,3,,,,,,,,3.5,1021.3916566999997,1024.8982961000002,1024.8960133699995,0.3052655000010418,1025.3426185000008,1025.3426185000008,None,,1032.1860410999998,1032.1860410999998,80,3.273,,,1027.8112609,1027.8112609,sub-026,20,55,700,bloc_loop.csv,2023-06-19_16h34.09.091,PainUncertainty,2022.2.5,143.88261480795444,
grave,moderee,stimuli/330Hz,stimuli/moderee,bloc_4,prob50_50_4trials.xlsx,2,8,50,50,1,,,,,0,3,3,3,0,2,2,0,,,,,,,,4.8,1032.1860410999998,1036.9873547000007,1036.9874501700008,0.3050753999996232,1037.4315299999998,1037.4315299999998,n,0.5343908000004376,1040.4024936000005,1040.4024936000005,7,2.363,,,,,sub-026,20,55,700,bloc_loop.csv,2023-06-19_16h34.09.091,PainUncertainty,2022.2.5,143.88261480795444,
grave,forte,stimuli/330Hz,stimuli/forte,bloc_4,prob50_50_4trials.xlsx,2,8,50,50,1,,,,,0,3,3,3,0,3,3,1,,,,,,,,4.2,1040.4024936000005,1044.6062409999995,1044.6062448700006,0.305220799999006,1045.0504237000005,1045.0504237000005,m,0.5683902999999191,1048.1069420000003,1048.1069420000003,88,2.421,,,,,sub-026,20,55,700,bloc_loop.csv,2023-06-19_16h34.09.091,PainUncertainty,2022.2.5,143.88261480795444,
aigu,moderee,stimuli/660Hz,stimuli/moderee,bloc_4,prob50_50_4trials.xlsx,2,8,50,50,1,,,,,0,3,3,3,1,0,4,2,,,,,,,,4.8,1048.1069420000003,1052.9062790999997,1052.9062844699995,0.30497380000088015,1053.350175200001,1053.350175200001,n,0.6231964000007792,1056.0210547000006,1056.0210547000006,9,1.99,,,,,sub-026,20,55,700,bloc_loop.csv,2023-06-19_16h34.09.091,PainUncertainty,2022.2.5,143.88261480795444,
grave,moderee,stimuli/330Hz,stimuli/moderee,bloc_4,prob50_50_4trials.xlsx,2,8,50,50,1,,,,,0,3,3,3,1,1,5,0,,,,,,,,4.9,1056.0210547000006,1060.920868700001,1060.920759670001,0.30492319999939355,1061.3649502000007,1061.3649502000007,n,0.7798516000011659,1069.0690656999996,1069.0690656999996,13,6.845,,,,,sub-026,20,55,700,bloc_loop.csv,2023-06-19_16h34.09.091,PainUncertainty,2022.2.5,143.88261480795444,
grave,forte,stimuli/330Hz,stimuli/forte,bloc_4,prob50_50_4trials.xlsx,2,8,50,50,1,,,,,0,3,3,3,1,2,6,1,,,,,,,,4,1069.0690656999996,1073.0680620000003,1073.0681474700007,0.3050072000005457,1073.5144879,1073.5144879,m,0.4622358999995413,1075.9905388000006,1075.9905388000006,95,1.955,,,,,sub-026,20,55,700,bloc_loop.csv,2023-06-19_16h34.09.091,PainUncertainty,2022.2.5,143.88261480795444,
aigu,forte,stimuli/660Hz,stimuli/forte,bloc_4,prob50_50_4trials.xlsx,2,8,50,50,1,,,,,0,3,3,3,1,3,7,3,,,,,,,,3.8,1075.9905388000006,1079.7916179000003,1079.791945870001,0.3010346000010031,1080.2364283999996,1080.2364283999996,m,1.0278150000003734,1084.6714739,1084.6714739,92,1.372,,,,,sub-026,20,55,700,bloc_loop.csv,2023-06-19_16h34.09.091,PainUncertainty,2022.2.5,143.88261480795444,
,,,,bloc_4,prob50_50_4trials.xlsx,2,8,50,50,1,,,,,0,3,3,3,,,,,0,0,0,0,,,,,,,,,,,,,,,,,1084.6714739,1218.1551282,,,sub-026,20,55,700,bloc_loop.csv,2023-06-19_16h34.09.091,PainUncertainty,2022.2.5,143.88261480795444,
grave,forte,stimuli/330Hz,stimuli/forte,bloc_5,prob20hthp_12trials.xlsx,2,24,20,80,0,,,,,0,4,4,4,0,0,0,1,,,,,,,,4.5,1219.3930944000003,1223.8922710000006,1223.89217217,0.30472369999915827,1224.3430253000006,1224.3430253000006,m,0.719847800000025,1225.9965056,1225.9965056,90,0.851,,,,,sub-026,20,55,700,bloc_loop.csv,2023-06-19_16h34.09.091,PainUncertainty,2022.2.5,143.88261480795444,
aigu,moderee,stimuli/660Hz,stimuli/moderee,bloc_5,prob20hthp_12trials.xlsx,2,24,20,80,0,,,,,0,4,4,4,0,1,1,7,,,,,,,,4.3,1225.9965056,1230.2957043000006,1230.2967335700007,0.30419890000121086,1230.7421636,1230.7421636,n,0.8151664000006349,1233.3988566999997,1233.3988566999997,5,1.789,,,,,sub-026,20,55,700,bloc_loop.csv,2023-06-19_16h34.09.091,PainUncertainty,2022.2.5,143.88261480795444,
aigu,moderee,stimuli/660Hz,stimuli/moderee,bloc_5,prob20hthp_12trials.xlsx,2,24,20,80,0,,,,,0,4,4,4,0,2,2,10,,,,,,,,3.8,1233.3988566999997,1237.1986708000004,1237.1986969700004,0.3055088999990403,1237.6469930000003,1237.6469930000003,n,0.5461850000001505,1239.2974950000007,1239.2974950000007,6,1.046,,,,,sub-026,20,55,700,bloc_loop.csv,2023-06-19_16h34.09.091,PainUncertainty,2022.2.5,143.88261480795444,
aigu,moderee,stimuli/660Hz,stimuli/moderee,bloc_5,prob20hthp_12trials.xlsx,2,24,20,80,0,,,,,0,4,4,4,0,3,3,6,,,,,,,,3,1239.2974950000007,1242.2967762999997,1242.296854970001,0.3047132000010606,1242.7406658,1242.7406658,n,0.5884175999990475,1246.827492800001,1246.827492800001,7,3.441,,,,,sub-026,20,55,700,bloc_loop.csv,2023-06-19_16h34.09.091,PainUncertainty,2022.2.5,143.88261480795444,
grave,moderee,stimuli/330Hz,stimuli/moderee,bloc_5,prob20hthp_12trials.xlsx,2,24,20,80,0,,,,,0,4,4,4,0,4,4,5,,,,,,,,4.3,1246.827492800001,1251.1308557000011,1251.13081317,0.3052008000013302,1251.5822831000005,1251.5822831000005,n,0.5565721000011763,1254.630857,1254.630857,11,2.422,,,,,sub-026,20,55,700,bloc_loop.csv,2023-06-19_16h34.09.091,PainUncertainty,2022.2.5,143.88261480795444,
grave,forte,stimuli/330Hz,stimuli/forte,bloc_5,prob20hthp_12trials.xlsx,2,24,20,80,0,,,,,0,4,4,4,0,5,5,0,,,,,,,,4.6,1254.630857,1259.2365092,1259.2363519700004,0.3048642999983713,1259.6802019999996,1259.6802019999996,m,0.5630573999997068,1261.2178529000012,1261.2178529000012,90,0.913,,,,,sub-026,20,55,700,bloc_loop.csv,2023-06-19_16h34.09.091,PainUncertainty,2022.2.5,143.88261480795444,
grave,forte,stimuli/330Hz,stimuli/forte,bloc_5,prob20hthp_12trials.xlsx,2,24,20,80,0,,,,,0,4,4,4,0,6,6,2,,,,,,,,3.5,1261.2178529000012,1264.7231463999997,1264.722997170001,0.3049591999988479,1265.1670998999998,1265.1670998999998,m,0.5314800000005562,1267.9007548999998,1267.9007548999998,95,2.149,,,,,sub-026,20,55,700,bloc_loop.csv,2023-06-19_16h34.09.091,PainUncertainty,2022.2.5,143.88261480795444,
aigu,forte,stimuli/660Hz,stimuli/forte,bloc_5,prob20hthp_12trials.xlsx,2,24,20,80,0,,,,,0,4,4,4,0,7,7,11,,,,,,,,3.2,1267.9007548999998,1271.1054681999995,1271.1054155699996,0.305138599998827,1271.5536389000008,1271.5536389000008,m,0.6073779999996987,1273.7528385000005,1273.7528385000005,95,1.519,,,,,sub-026,20,55,700,bloc_loop.csv,2023-06-19_16h34.09.091,PainUncertainty,2022.2.5,143.88261480795444,
aigu,moderee,stimuli/660Hz,stimuli/moderee,bloc_5,prob20hthp_12trials.xlsx,2,24,20,80,0,,,,,0,4,4,4,0,8,8,8,,,,,,,,4,1273.7528385000005,1277.7520705999996,1277.7520298699994,0.3051273000000947,1278.196371600001,1278.196371600001,n,0.5683983999997508,1281.7645657000012,1281.7645657000012,7,2.936,,,,,sub-026,20,55,700,bloc_loop.csv,2023-06-19_16h34.09.091,PainUncertainty,2022.2.5,143.88261480795444,
aigu,moderee,stimuli/660Hz,stimuli/moderee,bloc_5,prob20hthp_12trials.xlsx,2,24,20,80,0,,,,,0,4,4,4,0,9,9,9,,,,,,,,4.9,1281.7645657000012,1286.6697643999996,1286.6696944700009,0.30208200000015495,1287.1144495000008,1287.1144495000008,n,0.5721604000000298,1289.055458500001,1289.055458500001,8,1.289,,,,,sub-026,20,55,700,bloc_loop.csv,2023-06-19_16h34.09.091,PainUncertainty,2022.2.5,143.88261480795444,
grave,forte,stimuli/330Hz,stimuli/forte,bloc_5,prob20hthp_12trials.xlsx,2,24,20,80,0,,,,,0,4,4,4,0,10,10,4,,,,,,,,5,1289.055458500001,1294.0601182999999,1294.0598547700004,0.3048432000014145,1294.504301500001,1294.504301500001,m,0.6115593999993507,1297.3204695000004,1297.3204695000004,84,2.158,,,,,sub-026,20,55,700,bloc_loop.csv,2023-06-19_16h34.09.091,PainUncertainty,2022.2.5,143.88261480795444,
grave,forte,stimuli/330Hz,stimuli/forte,bloc_5,prob20hthp_12trials.xlsx,2,24,20,80,0,,,,,0,4,4,4,0,11,11,3,,,,,,,,3.6,1297.3204695000004,1300.9218144000006,1300.9217500700008,0.30011349999949744,1301.3662929000002,1301.3662929000002,m,0.5788851999996041,1303.4748469000006,1303.4748469000006,84,1.476,,,,,sub-026,20,55,700,bloc_loop.csv,2023-06-19_16h34.09.091,PainUncertainty,2022.2.5,143.88261480795444,
grave,forte,stimuli/330Hz,stimuli/forte,bloc_5,prob20hthp_12trials.xlsx,2,24,20,80,0,,,,,0,4,4,4,1,0,12,2,,,,,,,,4.2,1303.4748469000006,1307.6797122000007,1307.6798196699995,0.30484640000031504,1308.1272129999998,1308.1272129999998,m,0.49096170000029815,1309.9027449000005,1309.9027449000005,90,1.218,,,,,sub-026,20,55,700,bloc_loop.csv,2023-06-19_16h34.09.091,PainUncertainty,2022.2.5,143.88261480795444,
grave,forte,stimuli/330Hz,stimuli/forte,bloc_5,prob20hthp_12trials.xlsx,2,24,20,80,0,,,,,0,4,4,4,1,1,13,4,,,,,,,,3.6,1309.9027449000005,1313.5063706,1313.5063233699996,0.3050689000010607,1313.9504825000004,1313.9504825000004,m,0.598533999999745,1315.9162636,1315.9162636,89,1.279,,,,,sub-026,20,55,700,bloc_loop.csv,2023-06-19_16h34.09.091,PainUncertainty,2022.2.5,143.88261480795444,
grave,moderee,stimuli/330Hz,stimuli/moderee,bloc_5,prob20hthp_12trials.xlsx,2,24,20,80,0,,,,,0,4,4,4,1,2,14,5,,,,,,,,4.8,1315.9162636,1320.715441100001,1320.7154791700007,0.30488620000141964,1321.1597158000004,1321.1597158000004,n,0.5859578000008696,1325.3326085999997,1325.3326085999997,6,3.504,,,,,sub-026,20,55,700,bloc_loop.csv,2023-06-19_16h34.09.091,PainUncertainty,2022.2.5,143.88261480795444,
grave,forte,stimuli/330Hz,stimuli/forte,bloc_5,prob20hthp_12trials.xlsx,2,24,20,80,0,,,,,0,4,4,4,1,3,15,3,,,,,,,,4.1,1325.3326085999997,1329.4322943000006,1329.432315970001,0.3049788999996963,1329.8762134999997,1329.8762134999997,m,0.5220910000016374,1332.3032146999994,1332.3032146999994,91,1.824,,,,,sub-026,20,55,700,bloc_loop.csv,2023-06-19_16h34.09.091,PainUncertainty,2022.2.5,143.88261480795444,
aigu,moderee,stimuli/660Hz,stimuli/moderee,bloc_5,prob20hthp_12trials.xlsx,2,24,20,80,0,,,,,0,4,4,4,1,4,16,8,,,,,,,,4.2,1332.3032146999994,1336.5026579999994,1336.5026743699993,0.30039399999986927,1336.9469639,1336.9469639,n,0.6390249000005497,1339.8329030999994,1339.8329030999994,10,2.183,,,,,sub-026,20,55,700,bloc_loop.csv,2023-06-19_16h34.09.091,PainUncertainty,2022.2.5,143.88261480795444,
aigu,moderee,stimuli/660Hz,stimuli/moderee,bloc_5,prob20hthp_12trials.xlsx,2,24,20,80,0,,,,,0,4,4,4,1,5,17,6,,,,,,,,4.2,1339.8329030999994,1344.0378906000005,1344.03787777,0.3053324000011344,1344.4862713000002,1344.4862713000002,n,0.9075710000006438,1346.6606647999997,1346.6606647999997,9,1.205,,,,,sub-026,20,55,700,bloc_loop.csv,2023-06-19_16h34.09.091,PainUncertainty,2022.2.5,143.88261480795444,
aigu,moderee,stimuli/660Hz,stimuli/moderee,bloc_5,prob20hthp_12trials.xlsx,2,24,20,80,0,,,,,0,4,4,4,1,6,18,9,,,,,,,,3.9,1346.6606647999997,1350.560024100001,1350.559956370001,0.30451670000002196,1351.0038564999995,1351.0038564999995,n,1.4166536999991877,1353.7281839000007,1353.7281839000007,10,1.234,,,,,sub-026,20,55,700,bloc_loop.csv,2023-06-19_16h34.09.091,PainUncertainty,2022.2.5,143.88261480795444,
grave,forte,stimuli/330Hz,stimuli/forte,bloc_5,prob20hthp_12trials.xlsx,2,24,20,80,0,,,,,0,4,4,4,1,7,19,0,,,,,,,,4.6,1353.7281839000007,1358.3316608999994,1358.3314449700003,0.30084610000085377,1358.7756071000003,1358.7756071000003,m,0.7178969999995388,1361.912433900001,1361.912433900001,94,2.362,,,,,sub-026,20,55,700,bloc_loop.csv,2023-06-19_16h34.09.091,PainUncertainty,2022.2.5,143.88261480795444,
grave,forte,stimuli/330Hz,stimuli/forte,bloc_5,prob20hthp_12trials.xlsx,2,24,20,80,0,,,,,0,4,4,4,1,8,20,1,,,,,,,,3.6,1361.912433900001,1365.5124608999995,1365.512485370001,0.30024309999862453,1365.9568997000006,1365.9568997000006,m,0.6196964000018852,1369.428474100001,1369.428474100001,87,2.774,,,,,sub-026,20,55,700,bloc_loop.csv,2023-06-19_16h34.09.091,PainUncertainty,2022.2.5,143.88261480795444,
aigu,moderee,stimuli/660Hz,stimuli/moderee,bloc_5,prob20hthp_12trials.xlsx,2,24,20,80,0,,,,,0,4,4,4,1,9,21,10,,,,,,,,4.5,1369.428474100001,1373.9306451000011,1373.9306577700002,0.30479899999954796,1374.374520200001,1374.374520200001,n,0.5699054000006072,1378.5717763000011,1378.5717763000011,5,3.558,,,,,sub-026,20,55,700,bloc_loop.csv,2023-06-19_16h34.09.091,PainUncertainty,2022.2.5,143.88261480795444,
aigu,forte,stimuli/660Hz,stimuli/forte,bloc_5,prob20hthp_12trials.xlsx,2,24,20,80,0,,,,,0,4,4,4,1,10,22,11,,,,,,,,4.9,1378.5717763000011,1383.473329800001,1383.473324670001,0.3009280000005674,1383.917512,1383.917512,m,0.7447275000004083,1386.2316455,1386.2316455,85,1.449,,,,,sub-026,20,55,700,bloc_loop.csv,2023-06-19_16h34.09.091,PainUncertainty,2022.2.5,143.88261480795444,
aigu,moderee,stimuli/660Hz,stimuli/moderee,bloc_5,prob20hthp_12trials.xlsx,2,24,20,80,0,,,,,0,4,4,4,1,11,23,7,,,,,,,,3.8,1386.2316455,1390.0362974,1390.0362044700007,0.30554990000018734,1390.4845705999996,1390.4845705999996,n,0.5976737999999386,1394.0664042999997,1394.0664042999997,12,2.908,,,,,sub-026,20,55,700,bloc_loop.csv,2023-06-19_16h34.09.091,PainUncertainty,2022.2.5,143.88261480795444,
aigu,forte,stimuli/660Hz,stimuli/forte,bloc_6,prob50_50_4trials.xlsx,2,8,50,50,0,,,,,0,5,5,5,0,0,0,3,,,,,,,,3.9,1394.0664042999997,1397.9677448000002,1397.9676947700002,0.3066797999999835,1398.4176774999996,1398.4176774999996,m,0.5624134000017875,1400.1412201000003,1400.1412201000003,95,1.094,,,,,sub-026,20,55,700,bloc_loop.csv,2023-06-19_16h34.09.091,PainUncertainty,2022.2.5,143.88261480795444,
grave,moderee,stimuli/330Hz,stimuli/moderee,bloc_6,prob50_50_4trials.xlsx,2,8,50,50,0,,,,,0,5,5,5,0,1,1,0,,,,,,,,3.7,1400.1412201000003,1403.8433321000011,1403.8433783699995,0.3051928000004409,1404.2876901,1404.2876901,n,0.6074991999985286,1406.599480500001,1406.599480500001,7,1.636,,,,,sub-026,20,55,700,bloc_loop.csv,2023-06-19_16h34.09.091,PainUncertainty,2022.2.5,143.88261480795444,
grave,forte,stimuli/330Hz,stimuli/forte,bloc_6,prob50_50_4trials.xlsx,2,8,50,50,0,,,,,0,5,5,5,0,2,2,1,,,,,,,,5,1406.599480500001,1411.6013045,1411.6013294699999,0.2997533999987354,1412.0462260000004,1412.0462260000004,m,0.8758384000002479,1413.9087336000011,1413.9087336000011,90,0.9,,,,,sub-026,20,55,700,bloc_loop.csv,2023-06-19_16h34.09.091,PainUncertainty,2022.2.5,143.88261480795444,
aigu,moderee,stimuli/660Hz,stimuli/moderee,bloc_6,prob50_50_4trials.xlsx,2,8,50,50,0,,,,,0,5,5,5,0,3,3,2,,,,,,,,3.2,1413.9087336000011,1417.1089257000003,1417.1087967699998,0.3051063000002614,1417.5530302999996,1417.5530302999996,n,0.630265300001156,1421.2939277000005,1421.2939277000005,8,3.052,,,,,sub-026,20,55,700,bloc_loop.csv,2023-06-19_16h34.09.091,PainUncertainty,2022.2.5,143.88261480795444,
grave,moderee,stimuli/330Hz,stimuli/moderee,bloc_6,prob50_50_4trials.xlsx,2,8,50,50,0,,,,,0,5,5,5,1,0,4,0,,,,,,,,4.8,1421.2939277000005,1426.0962254999995,1426.09602217,0.3051144999990356,1426.5401978999998,1426.5401978999998,n,0.5648272999997062,1430.327611300001,1430.327611300001,8,3.157,,,,,sub-026,20,55,700,bloc_loop.csv,2023-06-19_16h34.09.091,PainUncertainty,2022.2.5,143.88261480795444,
aigu,moderee,stimuli/660Hz,stimuli/moderee,bloc_6,prob50_50_4trials.xlsx,2,8,50,50,0,,,,,0,5,5,5,1,1,5,2,,,,,,,,4.7,1430.327611300001,1435.0276835000004,1435.027937170001,0.30482279999887396,1435.4718551000005,1435.4718551000005,n,0.5536906999996063,1437.9218545000003,1437.9218545000003,7,1.816,,,,,sub-026,20,55,700,bloc_loop.csv,2023-06-19_16h34.09.091,PainUncertainty,2022.2.5,143.88261480795444,
aigu,forte,stimuli/660Hz,stimuli/forte,bloc_6,prob50_50_4trials.xlsx,2,8,50,50,0,,,,,0,5,5,5,1,2,6,3,,,,,,,,4.1,1437.9218545000003,1442.022164,1442.022352270001,0.3000352999988536,1442.4662616999994,1442.4662616999994,m,0.6666016999997737,1444.1560902,1444.1560902,90,0.969,,,,,sub-026,20,55,700,bloc_loop.csv,2023-06-19_16h34.09.091,PainUncertainty,2022.2.5,143.88261480795444,
grave,forte,stimuli/330Hz,stimuli/forte,bloc_6,prob50_50_4trials.xlsx,2,8,50,50,0,,,,,0,5,5,5,1,3,7,1,,,,,,,,4.7,1444.1560902,1448.8556829999998,1448.8558020699995,0.30558969999947294,1449.3032282000004,1449.3032282000004,m,2.0850199000005887,1454.358716300001,1454.358716300001,96,2.899,,,,,sub-026,20,55,700,bloc_loop.csv,2023-06-19_16h34.09.091,PainUncertainty,2022.2.5,143.88261480795444,
aigu,forte,stimuli/660Hz,stimuli/forte,bloc_7,prob80hthp_12trials.xlsx,2,24,80,20,1,,,,,0,6,6,6,0,0,0,6,,,,,,,,5,1454.358716300001,1459.3638806,1459.3639785700009,0.30498179999995045,1459.8081062,1459.8081062,m,1.4971319000005678,1462.6863309,1462.6863309,85,1.303,,,,,sub-026,20,55,700,bloc_loop.csv,2023-06-19_16h34.09.091,PainUncertainty,2022.2.5,143.88261480795444,
aigu,moderee,stimuli/660Hz,stimuli/moderee,bloc_7,prob80hthp_12trials.xlsx,2,24,80,20,1,,,,,0,6,6,6,0,1,1,11,,,,,,,,4.6,1462.6863309,1467.2889659000011,1467.2889160700008,0.30482020000090415,1467.7348765999996,1467.7348765999996,n,0.6579587999995056,1472.3288401999998,1472.3288401999998,14,3.863,,,,,sub-026,20,55,700,bloc_loop.csv,2023-06-19_16h34.09.091,PainUncertainty,2022.2.5,143.88261480795444,
aigu,forte,stimuli/660Hz,stimuli/forte,bloc_7,prob80hthp_12trials.xlsx,2,24,80,20,1,,,,,0,6,6,6,0,2,2,9,,,,,,,,3.3,1472.3288401999998,1475.6300212000006,1475.6300645700005,0.30491369999981544,1476.0738667000005,1476.0738667000005,m,0.47513250000065455,1477.7662781,1477.7662781,87,1.135,,,,,sub-026,20,55,700,bloc_loop.csv,2023-06-19_16h34.09.091,PainUncertainty,2022.2.5,143.88261480795444,
grave,moderee,stimuli/330Hz,stimuli/moderee,bloc_7,prob80hthp_12trials.xlsx,2,24,80,20,1,,,,,0,6,6,6,0,3,3,2,,,,,,,,3.3,1477.7662781,1481.0678394000006,1481.0678311700005,0.3051673000009032,1481.5122959,1481.5122959,n,0.7215788999992583,1483.9678371999998,1483.9678371999998,9,1.671,,,,,sub-026,20,55,700,bloc_loop.csv,2023-06-19_16h34.09.091,PainUncertainty,2022.2.5,143.88261480795444,
grave,moderee,stimuli/330Hz,stimuli/moderee,bloc_7,prob80hthp_12trials.xlsx,2,24,80,20,1,,,,,0,6,6,6,0,4,4,1,,,,,,,,4.7,1483.9678371999998,1488.6728987999995,1488.6728659699995,0.30551500000001397,1489.124339600001,1489.124339600001,n,0.6053498000010222,1491.3697110000012,1491.3697110000012,3,1.58,,,,,sub-026,20,55,700,bloc_loop.csv,2023-06-19_16h34.09.091,PainUncertainty,2022.2.5,143.88261480795444,
grave,moderee,stimuli/330Hz,stimuli/moderee,bloc_7,prob80hthp_12trials.xlsx,2,24,80,20,1,,,,,0,6,6,6,0,5,5,4,,,,,,,,5,1491.3697110000012,1496.375229700001,1496.37526937,0.30513800000153424,1496.8193706000002,1496.8193706000002,n,0.47402860000056535,1498.3425953999995,1498.3425953999995,7,0.976,,,,,sub-026,20,55,700,bloc_loop.csv,2023-06-19_16h34.09.091,PainUncertainty,2022.2.5,143.88261480795444,
grave,forte,stimuli/330Hz,stimuli/forte,bloc_7,prob80hthp_12trials.xlsx,2,24,80,20,1,,,,,0,6,6,6,0,6,6,5,,,,,,,,4.7,1498.3425953999995,1503.0429592,1503.04266957,0.3050351000001683,1503.4910086,1503.4910086,m,0.5812254999991637,1505.886936500001,1505.886936500001,90,1.762,,,,,sub-026,20,55,700,bloc_loop.csv,2023-06-19_16h34.09.091,PainUncertainty,2022.2.5,143.88261480795444,
aigu,forte,stimuli/660Hz,stimuli/forte,bloc_7,prob80hthp_12trials.xlsx,2,24,80,20,1,,,,,0,6,6,6,0,7,7,7,,,,,,,,4.5,1505.886936500001,1510.390817900001,1510.39079927,0.2996664000002056,1510.8357121999998,1510.8357121999998,m,0.5570314000005965,1513.035828600001,1513.035828600001,87,1.56,,,,,sub-026,20,55,700,bloc_loop.csv,2023-06-19_16h34.09.091,PainUncertainty,2022.2.5,143.88261480795444,
grave,moderee,stimuli/330Hz,stimuli/moderee,bloc_7,prob80hthp_12trials.xlsx,2,24,80,20,1,,,,,0,6,6,6,0,8,8,3,,,,,,,,4.7,1513.035828600001,1517.7391552999998,1517.7394155699997,0.3049029000012524,1518.1834818999996,1518.1834818999996,n,0.6882645000014236,1522.468516500001,1522.468516500001,8,3.539,,,,,sub-026,20,55,700,bloc_loop.csv,2023-06-19_16h34.09.091,PainUncertainty,2022.2.5,143.88261480795444,
grave,moderee,stimuli/330Hz,stimuli/moderee,bloc_7,prob80hthp_12trials.xlsx,2,24,80,20,1,,,,,0,6,6,6,0,9,9,0,,,,,,,,3.1,1522.468516500001,1525.5735690000001,1525.5736618700005,0.3045578999990539,1526.0173670000004,1526.0173670000004,n,0.5782793000007587,1529.3451115000007,1529.3451115000007,9,2.671,,,,,sub-026,20,55,700,bloc_loop.csv,2023-06-19_16h34.09.091,PainUncertainty,2022.2.5,143.88261480795444,
aigu,forte,stimuli/660Hz,stimuli/forte,bloc_7,prob80hthp_12trials.xlsx,2,24,80,20,1,,,,,0,6,6,6,0,10,10,10,,,,,,,,4.5,1529.3451115000007,1533.8448528000008,1533.8448337700004,0.30522320000090986,1534.2891992000004,1534.2891992000004,m,0.7479332000011709,1536.9051061999999,1536.9051061999999,88,1.815,,,,,sub-026,20,55,700,bloc_loop.csv,2023-06-19_16h34.09.091,PainUncertainty,2022.2.5,143.88261480795444,
aigu,forte,stimuli/660Hz,stimuli/forte,bloc_7,prob80hthp_12trials.xlsx,2,24,80,20,1,,,,,0,6,6,6,0,11,11,8,,,,,,,,3.4,1536.9051061999999,1540.3109686999996,1540.3109314700007,0.3051398000006884,1540.755189900001,1540.755189900001,m,0.9977621000007275,1542.772766,1542.772766,82,0.963,,,,,sub-026,20,55,700,bloc_loop.csv,2023-06-19_16h34.09.091,PainUncertainty,2022.2.5,143.88261480795444,
grave,forte,stimuli/330Hz,stimuli/forte,bloc_7,prob80hthp_12trials.xlsx,2,24,80,20,1,,,,,0,6,6,6,1,0,12,5,,,,,,,,4.1,1542.772766,1546.8742557999994,1546.8742333700004,0.30511029999979655,1547.318488500001,1547.318488500001,m,0.5121095999993486,1549.9377409000008,1549.9377409000008,86,2.042,,,,,sub-026,20,55,700,bloc_loop.csv,2023-06-19_16h34.09.091,PainUncertainty,2022.2.5,143.88261480795444,
aigu,forte,stimuli/660Hz,stimuli/forte,bloc_7,prob80hthp_12trials.xlsx,2,24,80,20,1,,,,,0,6,6,6,1,1,13,8,,,,,,,,4.9,1549.9377409000008,1554.840497000001,1554.8405212699993,0.3009306000003562,1555.2852037000011,1555.2852037000011,m,0.5433504000002358,1556.8752977000004,1556.8752977000004,89,0.991,,,,,sub-026,20,55,700,bloc_loop.csv,2023-06-19_16h34.09.091,PainUncertainty,2022.2.5,143.88261480795444,
aigu,forte,stimuli/660Hz,stimuli/forte,bloc_7,prob80hthp_12trials.xlsx,2,24,80,20,1,,,,,0,6,6,6,1,2,14,7,,,,,,,,3.6,1556.8752977000004,1560.4799991,1560.4799903699998,0.30500130000109493,1560.9249584999998,1560.9249584999998,m,1.1420434000001478,1564.0696728000003,1564.0696728000003,79,1.949,,,,,sub-026,20,55,700,bloc_loop.csv,2023-06-19_16h34.09.091,PainUncertainty,2022.2.5,143.88261480795444,
aigu,forte,stimuli/660Hz,stimuli/forte,bloc_7,prob80hthp_12trials.xlsx,2,24,80,20,1,,,,,0,6,6,6,1,3,15,9,,,,,,,,3.5,1564.0696728000003,1567.5716604999998,1567.5718468700009,0.3042972000002919,1568.0156637,1568.0156637,m,0.5445991999995385,1569.620715000001,1569.620715000001,90,0.976,,,,,sub-026,20,55,700,bloc_loop.csv,2023-06-19_16h34.09.091,PainUncertainty,2022.2.5,143.88261480795444,
grave,moderee,stimuli/330Hz,stimuli/moderee,bloc_7,prob80hthp_12trials.xlsx,2,24,80,20,1,,,,,0,6,6,6,1,4,16,4,,,,,,,,3,1569.620715000001,1572.620381300001,1572.62035477,0.30060599999887927,1573.0654964999994,1573.0654964999994,n,0.6007300999999643,1575.021879,1575.021879,9,1.297,,,,,sub-026,20,55,700,bloc_loop.csv,2023-06-19_16h34.09.091,PainUncertainty,2022.2.5,143.88261480795444,
grave,moderee,stimuli/330Hz,stimuli/moderee,bloc_7,prob80hthp_12trials.xlsx,2,24,80,20,1,,,,,0,6,6,6,1,5,17,0,,,,,,,,4,1575.021879,1579.0239870999994,1579.0239393700006,0.30506550000063726,1579.4701674000007,1579.4701674000007,n,0.6008587000005718,1583.1599418999995,1583.1599418999995,2,3.039,,,,,sub-026,20,55,700,bloc_loop.csv,2023-06-19_16h34.09.091,PainUncertainty,2022.2.5,143.88261480795444,
grave,moderee,stimuli/330Hz,stimuli/moderee,bloc_7,prob80hthp_12trials.xlsx,2,24,80,20,1,,,,,0,6,6,6,1,6,18,1,,,,,,,,4.9,1583.1599418999995,1588.0599147000012,1588.05993667,0.30480200000056357,1588.5040098000009,1588.5040098000009,n,0.5933777000000191,1592.5458300999999,1592.5458300999999,5,3.369,,,,,sub-026,20,55,700,bloc_loop.csv,2023-06-19_16h34.09.091,PainUncertainty,2022.2.5,143.88261480795444,
aigu,forte,stimuli/660Hz,stimuli/forte,bloc_7,prob80hthp_12trials.xlsx,2,24,80,20,1,,,,,0,6,6,6,1,7,19,6,,,,,,,,3.6,1592.5458300999999,1596.1510326000007,1596.15111507,0.30507529999886174,1596.5952150000012,1596.5952150000012,m,1.5023747000004732,1599.8866837999994,1599.8866837999994,90,1.706,,,,,sub-026,20,55,700,bloc_loop.csv,2023-06-19_16h34.09.091,PainUncertainty,2022.2.5,143.88261480795444,
aigu,moderee,stimuli/660Hz,stimuli/moderee,bloc_7,prob80hthp_12trials.xlsx,2,24,80,20,1,,,,,0,6,6,6,1,8,20,11,,,,,,,,3.2,1599.8866837999994,1603.0894067000008,1603.0892374700009,0.3051919999998063,1603.5333785000003,1603.5333785000003,n,0.6003216999988581,1606.7748790000005,1606.7748790000005,9,2.58,,,,,sub-026,20,55,700,bloc_loop.csv,2023-06-19_16h34.09.091,PainUncertainty,2022.2.5,143.88261480795444,
grave,moderee,stimuli/330Hz,stimuli/moderee,bloc_7,prob80hthp_12trials.xlsx,2,24,80,20,1,,,,,0,6,6,6,1,9,21,3,,,,,,,,4.9,1606.7748790000005,1611.6805693000006,1611.6804742699999,0.30153169999903184,1612.1250058999995,1612.1250058999995,n,0.6070624000012685,1616.1772001000008,1616.1772001000008,4,3.372,,,,,sub-026,20,55,700,bloc_loop.csv,2023-06-19_16h34.09.091,PainUncertainty,2022.2.5,143.88261480795444,
aigu,forte,stimuli/660Hz,stimuli/forte,bloc_7,prob80hthp_12trials.xlsx,2,24,80,20,1,,,,,0,6,6,6,1,10,22,10,,,,,,,,4.1,1616.1772001000008,1620.2792964,1620.279281370001,0.3012758999993821,1620.7234196000009,1620.7234196000009,m,0.7242270000015196,1624.5715868999996,1624.5715868999996,96,3.038,,,,,sub-026,20,55,700,bloc_loop.csv,2023-06-19_16h34.09.091,PainUncertainty,2022.2.5,143.88261480795444,
grave,moderee,stimuli/330Hz,stimuli/moderee,bloc_7,prob80hthp_12trials.xlsx,2,24,80,20,1,,,,,0,6,6,6,1,11,23,2,,,,,,,,5,1624.5715868999996,1629.5716637999994,1629.5716942699994,0.3049120000014227,1630.0158133000004,1630.0158133000004,n,0.5228508999998667,1635.5473084000005,1635.5473084000005,13,2.975,,,,,sub-026,20,55,700,bloc_loop.csv,2023-06-19_16h34.09.091,PainUncertainty,2022.2.5,143.88261480795444,
,,,,bloc_7,prob80hthp_12trials.xlsx,2,24,80,20,1,,,,,0,6,6,6,,,,,0,0,0,0,,,,,,,,,,,,,,,,,1635.5473084000005,1710.046457800001,,,sub-026,20,55,700,bloc_loop.csv,2023-06-19_16h34.09.091,PainUncertainty,2022.2.5,143.88261480795444,
grave,forte,stimuli/330Hz,stimuli/forte,bloc_8,prob50_50_4trials.xlsx,3,12,50,50,0,,,,,0,7,7,7,0,0,0,1,,,,,,,,4.8,1710.7342425999996,1715.5336568000002,1715.533563870001,0.30511939999996684,1715.9814002000003,1715.9814002000003,m,1.7316792999999961,1720.8219406999997,1720.8219406999997,69,3.032,,,,,sub-026,20,55,700,bloc_loop.csv,2023-06-19_16h34.09.091,PainUncertainty,2022.2.5,143.88261480795444,
grave,moderee,stimuli/330Hz,stimuli/moderee,bloc_8,prob50_50_4trials.xlsx,3,12,50,50,0,,,,,0,7,7,7,0,1,1,0,,,,,,,,3,1720.8219406999997,1723.8258943,1723.8257432700004,0.3052722000011272,1724.270008200001,1724.270008200001,n,0.5962392999999793,1726.3860932999996,1726.3860932999996,10,1.447,,,,,sub-026,20,55,700,bloc_loop.csv,2023-06-19_16h34.09.091,PainUncertainty,2022.2.5,143.88261480795444,
aigu,forte,stimuli/660Hz,stimuli/forte,bloc_8,prob50_50_4trials.xlsx,3,12,50,50,0,,,,,0,7,7,7,0,2,2,3,,,,,,,,4.3,1726.3860932999996,1730.688210800001,1730.6881480700006,0.30517999999938183,1731.1358478000002,1731.1358478000002,m,1.6691856000006737,1735.4501378000004,1735.4501378000004,73,2.58,,,,,sub-026,20,55,700,bloc_loop.csv,2023-06-19_16h34.09.091,PainUncertainty,2022.2.5,143.88261480795444,
aigu,moderee,stimuli/660Hz,stimuli/moderee,bloc_8,prob50_50_4trials.xlsx,3,12,50,50,0,,,,,0,7,7,7,0,3,3,2,,,,,,,,3.1,1735.4501378000004,1738.5503286000003,1738.550283670001,0.3011143000003358,1738.9951610999997,1738.9951610999997,n,0.5976029000003109,1741.6067344000003,1741.6067344000003,8,1.957,,,,,sub-026,20,55,700,bloc_loop.csv,2023-06-19_16h34.09.091,PainUncertainty,2022.2.5,143.88261480795444,
aigu,moderee,stimuli/660Hz,stimuli/moderee,bloc_8,prob50_50_4trials.xlsx,3,12,50,50,0,,,,,0,7,7,7,1,0,4,2,,,,,,,,4.7,1741.6067344000003,1746.3077078000006,1746.3076591700003,0.30524719999993977,1746.751881100001,1746.751881100001,n,0.6732891000001473,1749.5865107000009,1749.5865107000009,9,2.088,,,,,sub-026,20,55,700,bloc_loop.csv,2023-06-19_16h34.09.091,PainUncertainty,2022.2.5,143.88261480795444,
aigu,forte,stimuli/660Hz,stimuli/forte,bloc_8,prob50_50_4trials.xlsx,3,12,50,50,0,,,,,0,7,7,7,1,1,5,3,,,,,,,,3.2,1749.5865107000009,1752.7876018999996,1752.7876745700007,0.3050369000011415,1753.2355437999995,1753.2355437999995,m,0.6887317999999141,1754.9096716000004,1754.9096716000004,92,0.907,,,,,sub-026,20,55,700,bloc_loop.csv,2023-06-19_16h34.09.091,PainUncertainty,2022.2.5,143.88261480795444,
grave,moderee,stimuli/330Hz,stimuli/moderee,bloc_8,prob50_50_4trials.xlsx,3,12,50,50,0,,,,,0,7,7,7,1,2,6,0,,,,,,,,4.4,1754.9096716000004,1759.3091354999997,1759.3092177699993,0.30514510000102746,1759.7533592,1759.7533592,n,0.5420272000001205,1762.5834210000012,1762.5834210000012,9,2.22,,,,,sub-026,20,55,700,bloc_loop.csv,2023-06-19_16h34.09.091,PainUncertainty,2022.2.5,143.88261480795444,
grave,forte,stimuli/330Hz,stimuli/forte,bloc_8,prob50_50_4trials.xlsx,3,12,50,50,0,,,,,0,7,7,7,1,3,7,1,,,,,,,,3.3,1762.5834210000012,1765.8865929000003,1765.8864660699994,0.30509130000064033,1766.3378398000004,1766.3378398000004,m,0.6827979999989111,1768.0668387000005,1768.0668387000005,84,0.983,,,,,sub-026,20,55,700,bloc_loop.csv,2023-06-19_16h34.09.091,PainUncertainty,2022.2.5,143.88261480795444,
aigu,forte,stimuli/660Hz,stimuli/forte,bloc_8,prob50_50_4trials.xlsx,3,12,50,50,0,,,,,0,7,7,7,2,0,8,3,,,,,,,,4.9,1768.0668387000005,1772.9710479000005,1772.9721013699993,0.3012849999995524,1773.4163334000004,1773.4163334000004,m,0.6018646999991688,1776.525469600001,1776.525469600001,85,2.434,,,,,sub-026,20,55,700,bloc_loop.csv,2023-06-19_16h34.09.091,PainUncertainty,2022.2.5,143.88261480795444,
grave,moderee,stimuli/330Hz,stimuli/moderee,bloc_8,prob50_50_4trials.xlsx,3,12,50,50,0,,,,,0,7,7,7,2,1,9,0,,,,,,,,4.2,1776.525469600001,1780.7287287,1780.7286610700005,0.3052611999992223,1781.1749665999996,1781.1749665999996,n,0.5320369000010032,1783.6242915000003,1783.6242915000003,13,1.866,,,,,sub-026,20,55,700,bloc_loop.csv,2023-06-19_16h34.09.091,PainUncertainty,2022.2.5,143.88261480795444,
aigu,moderee,stimuli/660Hz,stimuli/moderee,bloc_8,prob50_50_4trials.xlsx,3,12,50,50,0,,,,,0,7,7,7,2,2,10,2,,,,,,,,4.7,1783.6242915000003,1788.3268546,1788.3267364699998,0.30565539999952307,1788.7738385000011,1788.7738385000011,n,0.6809954999998808,1791.2528518,1791.2528518,15,1.727,,,,,sub-026,20,55,700,bloc_loop.csv,2023-06-19_16h34.09.091,PainUncertainty,2022.2.5,143.88261480795444,
grave,forte,stimuli/330Hz,stimuli/forte,bloc_8,prob50_50_4trials.xlsx,3,12,50,50,0,,,,,0,7,7,7,2,3,11,1,,,,,,,,3,1791.2528518,1794.2582684999998,1794.2582448700007,0.30423510000036913,1794.702191100001,1794.702191100001,m,0.7789842000011049,1797.3887543,1797.3887543,76,1.852,,,,,sub-026,20,55,700,bloc_loop.csv,2023-06-19_16h34.09.091,PainUncertainty,2022.2.5,143.88261480795444,
grave,forte,stimuli/330Hz,stimuli/forte,bloc_9,prob20hthp_12trials.xlsx,3,36,80,20,0,,,,,0,8,8,8,0,0,0,0,,,,,,,,4.3,1797.3887543,1801.6897253000006,1801.6897669700004,0.3044316000014078,1802.133605500001,1802.133605500001,m,0.5964702999999645,1804.9523222000007,1804.9523222000007,89,2.164,,,,,sub-026,20,55,700,bloc_loop.csv,2023-06-19_16h34.09.091,PainUncertainty,2022.2.5,143.88261480795444,
grave,forte,stimuli/330Hz,stimuli/forte,bloc_9,prob20hthp_12trials.xlsx,3,36,80,20,0,,,,,0,8,8,8,0,1,1,3,,,,,,,,3.3,1804.9523222000007,1808.2525411999995,1808.2525022700004,0.30524770000010903,1808.7039163999998,1808.7039163999998,m,0.5487349999993967,1811.6850341000008,1811.6850341000008,88,2.378,,,,,sub-026,20,55,700,bloc_loop.csv,2023-06-19_16h34.09.091,PainUncertainty,2022.2.5,143.88261480795444,
grave,forte,stimuli/330Hz,stimuli/forte,bloc_9,prob20hthp_12trials.xlsx,3,36,80,20,0,,,,,0,8,8,8,0,2,2,2,,,,,,,,4.9,1811.6850341000008,1816.5871640000005,1816.5871845699996,0.3051876000008633,1817.0356482000007,1817.0356482000007,m,0.5663441999995484,1819.7762311000006,1819.7762311000006,88,2.1,,,,,sub-026,20,55,700,bloc_loop.csv,2023-06-19_16h34.09.091,PainUncertainty,2022.2.5,143.88261480795444,
aigu,moderee,stimuli/660Hz,stimuli/moderee,bloc_9,prob20hthp_12trials.xlsx,3,36,80,20,0,,,,,0,8,8,8,0,3,3,8,,,,,,,,4,1819.7762311000006,1823.7755319000007,1823.7754449699999,0.3048763000006147,1824.2197287,1824.2197287,n,0.6339729000001171,1827.6244903000006,1827.6244903000006,16,2.697,,,,,sub-026,20,55,700,bloc_loop.csv,2023-06-19_16h34.09.091,PainUncertainty,2022.2.5,143.88261480795444,
grave,forte,stimuli/330Hz,stimuli/forte,bloc_9,prob20hthp_12trials.xlsx,3,36,80,20,0,,,,,0,8,8,8,0,4,4,1,,,,,,,,4.6,1827.6244903000006,1832.227882000001,1832.2278612700004,0.30487319999883766,1832.6718425,1832.6718425,m,0.6061245000009876,1834.6771571999998,1834.6771571999998,94,1.315,,,,,sub-026,20,55,700,bloc_loop.csv,2023-06-19_16h34.09.091,PainUncertainty,2022.2.5,143.88261480795444,
grave,moderee,stimuli/330Hz,stimuli/moderee,bloc_9,prob20hthp_12trials.xlsx,3,36,80,20,0,,,,,0,8,8,8,0,5,5,5,,,,,,,,3.6,1834.6771571999998,1838.2768890000007,1838.2770686699998,0.30545170000004873,1838.7250990000011,1838.7250990000011,n,1.184375400001045,1842.2688030000008,1842.2688030000008,8,2.3,,,,,sub-026,20,55,700,bloc_loop.csv,2023-06-19_16h34.09.091,PainUncertainty,2022.2.5,143.88261480795444,
aigu,moderee,stimuli/660Hz,stimuli/moderee,bloc_9,prob20hthp_12trials.xlsx,3,36,80,20,0,,,,,0,8,8,8,0,6,6,6,,,,,,,,3.2,1842.2688030000008,1845.4726061000001,1845.4726425700003,0.3048834999990504,1845.9164232000003,1845.9164232000003,n,1.1370371000002706,1849.5116588,1849.5116588,1,2.392,,,,,sub-026,20,55,700,bloc_loop.csv,2023-06-19_16h34.09.091,PainUncertainty,2022.2.5,143.88261480795444,
aigu,moderee,stimuli/660Hz,stimuli/moderee,bloc_9,prob20hthp_12trials.xlsx,3,36,80,20,0,,,,,0,8,8,8,0,7,7,10,,,,,,,,3.2,1849.5116588,1852.716157500001,1852.7161127699994,0.3050743000003422,1853.1602598000009,1853.1602598000009,n,0.9686174000007668,1855.397657900001,1855.397657900001,5,1.199,,,,,sub-026,20,55,700,bloc_loop.csv,2023-06-19_16h34.09.091,PainUncertainty,2022.2.5,143.88261480795444,
aigu,forte,stimuli/660Hz,stimuli/forte,bloc_9,prob20hthp_12trials.xlsx,3,36,80,20,0,,,,,0,8,8,8,0,8,8,11,,,,,,,,3.6,1855.397657900001,1859.0016252000005,1859.001915170001,0.30465340000046126,1859.449345000001,1859.449345000001,m,1.1945201000007728,1862.3676949,1862.3676949,90,1.661,,,,,sub-026,20,55,700,bloc_loop.csv,2023-06-19_16h34.09.091,PainUncertainty,2022.2.5,143.88261480795444,
grave,forte,stimuli/330Hz,stimuli/forte,bloc_9,prob20hthp_12trials.xlsx,3,36,80,20,0,,,,,0,8,8,8,0,9,9,4,,,,,,,,4.5,1862.3676949,1866.871014800001,1866.87098257,0.3014368000003742,1867.3152590000009,1867.3152590000009,m,0.8959513999989213,1870.4414622000004,1870.4414622000004,89,2.111,,,,,sub-026,20,55,700,bloc_loop.csv,2023-06-19_16h34.09.091,PainUncertainty,2022.2.5,143.88261480795444,
aigu,moderee,stimuli/660Hz,stimuli/moderee,bloc_9,prob20hthp_12trials.xlsx,3,36,80,20,0,,,,,0,8,8,8,0,10,10,9,,,,,,,,4,1870.4414622000004,1874.4414238000008,1874.4413973700005,0.30154869999933,1874.8855627000012,1874.8855627000012,n,0.6129355999992185,1877.876199800001,1877.876199800001,4,2.316,,,,,sub-026,20,55,700,bloc_loop.csv,2023-06-19_16h34.09.091,PainUncertainty,2022.2.5,143.88261480795444,
aigu,moderee,stimuli/660Hz,stimuli/moderee,bloc_9,prob20hthp_12trials.xlsx,3,36,80,20,0,,,,,0,8,8,8,0,11,11,7,,,,,,,,5,1877.876199800001,1882.8794044999995,1882.8794831700009,0.3050883999985672,1883.3309559000008,1883.3309559000008,n,0.5711856999996598,1887.2763016000008,1887.2763016000008,5,3.31,,,,,sub-026,20,55,700,bloc_loop.csv,2023-06-19_16h34.09.091,PainUncertainty,2022.2.5,143.88261480795444,
aigu,moderee,stimuli/660Hz,stimuli/moderee,bloc_9,prob20hthp_12trials.xlsx,3,36,80,20,0,,,,,0,8,8,8,1,0,12,8,,,,,,,,3,1887.2763016000008,1890.2761747000004,1890.2761093700003,0.3049169999994774,1890.7203191999997,1890.7203191999997,n,0.5077090000004318,1893.6250634999997,1893.6250634999997,3,2.323,,,,,sub-026,20,55,700,bloc_loop.csv,2023-06-19_16h34.09.091,PainUncertainty,2022.2.5,143.88261480795444,
grave,forte,stimuli/330Hz,stimuli/forte,bloc_9,prob20hthp_12trials.xlsx,3,36,80,20,0,,,,,0,8,8,8,1,1,13,0,,,,,,,,3.8,1893.6250634999997,1897.4297829999996,1897.4297316700006,0.3048431999995955,1897.8739212,1897.8739212,m,0.5988096000010046,1900.5157196,1900.5157196,91,1.961,,,,,sub-026,20,55,700,bloc_loop.csv,2023-06-19_16h34.09.091,PainUncertainty,2022.2.5,143.88261480795444,
aigu,moderee,stimuli/660Hz,stimuli/moderee,bloc_9,prob20hthp_12trials.xlsx,3,36,80,20,0,,,,,0,8,8,8,1,2,14,9,,,,,,,,3,1900.5157196,1903.521088900001,1903.5210189700003,0.30498269999952754,1903.9652547999995,1903.9652547999995,n,0.5352042000004076,1906.1918222000004,1906.1918222000004,6,1.615,,,,,sub-026,20,55,700,bloc_loop.csv,2023-06-19_16h34.09.091,PainUncertainty,2022.2.5,143.88261480795444,
grave,forte,stimuli/330Hz,stimuli/forte,bloc_9,prob20hthp_12trials.xlsx,3,36,80,20,0,,,,,0,8,8,8,1,3,15,3,,,,,,,,3,1906.1918222000004,1909.1953606000006,1909.19542037,0.3053006000009191,1909.6432318000006,1909.6432318000006,m,0.45577590000084456,1912.1396065000008,1912.1396065000008,92,1.963,,,,,sub-026,20,55,700,bloc_loop.csv,2023-06-19_16h34.09.091,PainUncertainty,2022.2.5,143.88261480795444,
aigu,moderee,stimuli/660Hz,stimuli/moderee,bloc_9,prob20hthp_12trials.xlsx,3,36,80,20,0,,,,,0,8,8,8,1,4,16,10,,,,,,,,4.6,1912.1396065000008,1916.7445578000006,1916.7445547700001,0.3051072000016575,1917.1889556999995,1917.1889556999995,n,0.503328199999487,1920.6303246999996,1920.6303246999996,9,2.858,,,,,sub-026,20,55,700,bloc_loop.csv,2023-06-19_16h34.09.091,PainUncertainty,2022.2.5,143.88261480795444,
grave,forte,stimuli/330Hz,stimuli/forte,bloc_9,prob20hthp_12trials.xlsx,3,36,80,20,0,,,,,0,8,8,8,1,5,17,4,,,,,,,,4,1920.6303246999996,1924.6344537000004,1924.6344336699997,0.3053789000005054,1925.0824642999996,1925.0824642999996,m,0.5370562999987669,1928.1273636999995,1928.1273636999995,91,2.429,,,,,sub-026,20,55,700,bloc_loop.csv,2023-06-19_16h34.09.091,PainUncertainty,2022.2.5,143.88261480795444,
grave,moderee,stimuli/330Hz,stimuli/moderee,bloc_9,prob20hthp_12trials.xlsx,3,36,80,20,0,,,,,0,8,8,8,1,6,18,5,,,,,,,,4,1928.1273636999995,1932.1285119000004,1932.1284987699994,0.30495779999910155,1932.5763119000003,1932.5763119000003,n,0.5047380000005433,1936.4081222000004,1936.4081222000004,4,3.261,,,,,sub-026,20,55,700,bloc_loop.csv,2023-06-19_16h34.09.091,PainUncertainty,2022.2.5,143.88261480795444,
aigu,moderee,stimuli/660Hz,stimuli/moderee,bloc_9,prob20hthp_12trials.xlsx,3,36,80,20,0,,,,,0,8,8,8,1,7,19,6,,,,,,,,3.9,1936.4081222000004,1940.3098336000003,1940.3100710699994,0.30509889999848383,1940.7540905000005,1940.7540905000005,n,0.48685139999997773,1944.0831039000004,1944.0831039000004,5,2.774,,,,,sub-026,20,55,700,bloc_loop.csv,2023-06-19_16h34.09.091,PainUncertainty,2022.2.5,143.88261480795444,
aigu,forte,stimuli/660Hz,stimuli/forte,bloc_9,prob20hthp_12trials.xlsx,3,36,80,20,0,,,,,0,8,8,8,1,8,20,11,,,,,,,,4.9,1944.0831039000004,1948.9848101999996,1948.9847073699996,0.30537439999898197,1949.4328619000007,1949.4328619000007,m,0.6208083999999872,1950.9588533999995,1950.9588533999995,84,0.829,,,,,sub-026,20,55,700,bloc_loop.csv,2023-06-19_16h34.09.091,PainUncertainty,2022.2.5,143.88261480795444,
aigu,moderee,stimuli/660Hz,stimuli/moderee,bloc_9,prob20hthp_12trials.xlsx,3,36,80,20,0,,,,,0,8,8,8,1,9,21,7,,,,,,,,3,1950.9588533999995,1953.9643581,1953.9641998700001,0.3050104000012652,1954.4084780000012,1954.4084780000012,n,0.5422860999997283,1958.2018274000002,1958.2018274000002,6,3.164,,,,,sub-026,20,55,700,bloc_loop.csv,2023-06-19_16h34.09.091,PainUncertainty,2022.2.5,143.88261480795444,
grave,forte,stimuli/330Hz,stimuli/forte,bloc_9,prob20hthp_12trials.xlsx,3,36,80,20,0,,,,,0,8,8,8,1,10,22,1,,,,,,,,4,1958.2018274000002,1962.2012599000009,1962.2014527700005,0.30486150000069756,1962.6454976999994,1962.6454976999994,m,0.580958900000951,1964.2277620000004,1964.2277620000004,93,0.937,,,,,sub-026,20,55,700,bloc_loop.csv,2023-06-19_16h34.09.091,PainUncertainty,2022.2.5,143.88261480795444,
grave,forte,stimuli/330Hz,stimuli/forte,bloc_9,prob20hthp_12trials.xlsx,3,36,80,20,0,,,,,0,8,8,8,1,11,23,2,,,,,,,,4.9,1964.2277620000004,1969.1329994000007,1969.1330139699996,0.30509359999996377,1969.5769619000002,1969.5769619000002,m,0.5601512999992337,1973.4845528000005,1973.4845528000005,87,3.287,,,,,sub-026,20,55,700,bloc_loop.csv,2023-06-19_16h34.09.091,PainUncertainty,2022.2.5,143.88261480795444,
aigu,forte,stimuli/660Hz,stimuli/forte,bloc_9,prob20hthp_12trials.xlsx,3,36,80,20,0,,,,,0,8,8,8,2,0,24,11,,,,,,,,3,1973.4845528000005,1976.4877861000004,1976.4878483700006,0.3050607000004675,1976.931961100001,1976.931961100001,m,0.508104600000479,1980.9837207,1980.9837207,87,3.476,,,,,sub-026,20,55,700,bloc_loop.csv,2023-06-19_16h34.09.091,PainUncertainty,2022.2.5,143.88261480795444,
grave,forte,stimuli/330Hz,stimuli/forte,bloc_9,prob20hthp_12trials.xlsx,3,36,80,20,0,,,,,0,8,8,8,2,1,25,4,,,,,,,,3.1,1980.9837207,1984.0858587000002,1984.0861346699996,0.3047356999995827,1984.5302291999997,1984.5302291999997,m,0.5491893999997046,1986.7391894000011,1986.7391894000011,87,1.606,,,,,sub-026,20,55,700,bloc_loop.csv,2023-06-19_16h34.09.091,PainUncertainty,2022.2.5,143.88261480795444,
grave,forte,stimuli/330Hz,stimuli/forte,bloc_9,prob20hthp_12trials.xlsx,3,36,80,20,0,,,,,0,8,8,8,2,2,26,1,,,,,,,,3.5,1986.7391894000011,1990.2393293000005,1990.2395094699998,0.3049198000007891,1990.6870682000008,1990.6870682000008,m,0.5861016000008021,1992.9761369000007,1992.9761369000007,84,1.622,,,,,sub-026,20,55,700,bloc_loop.csv,2023-06-19_16h34.09.091,PainUncertainty,2022.2.5,143.88261480795444,
aigu,moderee,stimuli/660Hz,stimuli/moderee,bloc_9,prob20hthp_12trials.xlsx,3,36,80,20,0,,,,,0,8,8,8,2,3,27,8,,,,,,,,3,1992.9761369000007,1995.9761741000002,1995.9761821700006,0.30500169999868376,1996.4208615999996,1996.4208615999996,n,0.580264500001249,2000.4252006000006,2000.4252006000006,3,3.372,,,,,sub-026,20,55,700,bloc_loop.csv,2023-06-19_16h34.09.091,PainUncertainty,2022.2.5,143.88261480795444,
aigu,moderee,stimuli/660Hz,stimuli/moderee,bloc_9,prob20hthp_12trials.xlsx,3,36,80,20,0,,,,,0,8,8,8,2,4,28,6,,,,,,,,4.2,2000.4252006000006,2004.6299001000007,2004.6299236700008,0.30154869999933,2005.0747295,2005.0747295,n,0.6096074999995835,2007.1106411,2007.1106411,2,1.351,,,,,sub-026,20,55,700,bloc_loop.csv,2023-06-19_16h34.09.091,PainUncertainty,2022.2.5,143.88261480795444,
grave,forte,stimuli/330Hz,stimuli/forte,bloc_9,prob20hthp_12trials.xlsx,3,36,80,20,0,,,,,0,8,8,8,2,5,29,2,,,,,,,,3.1,2007.1106411,2010.2140393000009,2010.2139728699997,0.30510839999988093,2010.6581239000006,2010.6581239000006,m,0.6542979000014384,2014.8640596000005,2014.8640596000005,88,3.476,,,,,sub-026,20,55,700,bloc_loop.csv,2023-06-19_16h34.09.091,PainUncertainty,2022.2.5,143.88261480795444,
aigu,moderee,stimuli/660Hz,stimuli/moderee,bloc_9,prob20hthp_12trials.xlsx,3,36,80,20,0,,,,,0,8,8,8,2,6,30,7,,,,,,,,4.2,2014.8640596000005,2019.0692070000005,2019.0692076700009,0.30524879999939003,2019.5171551000003,2019.5171551000003,n,0.5783863000006022,2021.6594499000003,2021.6594499000003,5,1.491,,,,,sub-026,20,55,700,bloc_loop.csv,2023-06-19_16h34.09.091,PainUncertainty,2022.2.5,143.88261480795444,
grave,forte,stimuli/330Hz,stimuli/forte,bloc_9,prob20hthp_12trials.xlsx,3,36,80,20,0,,,,,0,8,8,8,2,7,31,3,,,,,,,,3,2021.6594499000003,2024.6600983999997,2024.6601721700001,0.3049349000011716,2025.1043245,2025.1043245,m,0.40580599999975675,2028.1008528000002,2028.1008528000002,98,2.538,,,,,sub-026,20,55,700,bloc_loop.csv,2023-06-19_16h34.09.091,PainUncertainty,2022.2.5,143.88261480795444,
grave,forte,stimuli/330Hz,stimuli/forte,bloc_9,prob20hthp_12trials.xlsx,3,36,80,20,0,,,,,0,8,8,8,2,8,32,0,,,,,,,,4.5,2028.1008528000002,2032.6055496000008,2032.6055041699994,0.30518579999989015,2033.0498722000011,2033.0498722000011,m,0.539006199999676,2035.1041759,2035.1041759,95,1.447,,,,,sub-026,20,55,700,bloc_loop.csv,2023-06-19_16h34.09.091,PainUncertainty,2022.2.5,143.88261480795444,
aigu,moderee,stimuli/660Hz,stimuli/moderee,bloc_9,prob20hthp_12trials.xlsx,3,36,80,20,0,,,,,0,8,8,8,2,9,33,9,,,,,,,,4.4,2035.1041759,2039.5095237000005,2039.5095204700003,0.3051365999999689,2039.9569912999996,2039.9569912999996,n,0.48530640000080894,2043.2743264,2043.2743264,3,2.767,,,,,sub-026,20,55,700,bloc_loop.csv,2023-06-19_16h34.09.091,PainUncertainty,2022.2.5,143.88261480795444,
aigu,moderee,stimuli/660Hz,stimuli/moderee,bloc_9,prob20hthp_12trials.xlsx,3,36,80,20,0,,,,,0,8,8,8,2,10,34,10,,,,,,,,4.5,2043.2743264,2047.7741188,2047.7741501699995,0.30539499999940745,2048.223048,2048.223048,n,0.5230453000012858,2052.4037229000005,2052.4037229000005,5,3.594,,,,,sub-026,20,55,700,bloc_loop.csv,2023-06-19_16h34.09.091,PainUncertainty,2022.2.5,143.88261480795444,
grave,moderee,stimuli/330Hz,stimuli/moderee,bloc_9,prob20hthp_12trials.xlsx,3,36,80,20,0,,,,,0,8,8,8,2,11,35,5,,,,,,,,4.7,2052.4037229000005,2057.1084692000004,2057.1084771700002,0.30528779999986,2057.5527287000004,2057.5527287000004,n,0.5472605999993903,2060.705789900001,2060.705789900001,8,2.58,,,,,sub-026,20,55,700,bloc_loop.csv,2023-06-19_16h34.09.091,PainUncertainty,2022.2.5,143.88261480795444,
