cue_,stimulus_,cue_fichier,stimulus_fichier,block_name,block_trials_file,block_n_reps,block_ntrials,block_prob_highP_highT,block_prob_highP_lowT,block_pause_after,Bloc_essai.thisRepN,Bloc_essai.thisTrialN,Bloc_essai.thisN,Bloc_essai.thisIndex,blocks.thisRepN,blocks.thisTrialN,blocks.thisN,blocks.thisIndex,trials.thisRepN,trials.thisTrialN,trials.thisN,trials.thisIndex,pause_loop.thisRepN,pause_loop.thisTrialN,pause_loop.thisN,pause_loop.thisIndex,key_resp_5.started,start_calib.started,key_resp_2.started,ISI_duration,pause.started,pause.stopped,cue.started,ISI.started,choice_pain.started,Choice.started,choice_pain.keys,choice_pain.rt,main_text.started,confirm_text.started,ratingScale.response,ratingScale.rt,key_resp_3.started,key_resp_6.started,participant,low_ma,high_ma,failsafe_ma,block_file,date,expName,psychopyVersion,frameRate,
aigu,forte,stimuli/660Hz,stimuli/forte,,,,,,,,0,0,0,3,,,,,,,,,,,,,24.812044100002822,27.354264900001,217.641631100003,3.8,219.5963343000003,223.40439990000232,223.40570274000277,0.3053643000021111,223.8469040000018,223.8469040000018,m,1.5182710999979463,228.9579448000004,228.9579448000004,70,3.508,,,sub-032,45,80,700,bloc_loop.csv,2023-06-28_17h57.20.465,PainUncertainty,2022.2.5,143.10328050022756,
grave,moderee,stimuli/330Hz,stimuli/moderee,,,,,,,,0,1,1,0,,,,,,,,,,,,,,,,4.6,228.9579448000004,233.5615727000004,233.56019112000178,0.30404600000110804,234.00809840000147,234.00809840000147,n,0.9799920000004931,238.8201018000036,238.8201018000036,35,3.781,,,sub-032,45,80,700,bloc_loop.csv,2023-06-28_17h57.20.465,PainUncertainty,2022.2.5,143.10328050022756,
aigu,moderee,stimuli/660Hz,stimuli/moderee,,,,,,,,0,2,2,2,,,,,,,,,,,,,,,,3.2,238.8201018000036,242.01905080000142,242.01912651999993,0.30488490000061574,242.46344000000317,242.46344000000317,n,1.8414223999971,246.7683793000033,246.7683793000033,35,2.385,,,sub-032,45,80,700,bloc_loop.csv,2023-06-28_17h57.20.465,PainUncertainty,2022.2.5,143.10328050022756,
grave,forte,stimuli/330Hz,stimuli/forte,,,,,,,,0,3,3,1,,,,,,,,,,,,,,,,3.3,246.7683793000033,250.06881010000143,250.06873442000034,0.3051845999980287,250.5130541000035,250.5130541000035,m,0.8331042999961937,254.37296410000272,254.37296410000272,70,3.004,,,sub-032,45,80,700,bloc_loop.csv,2023-06-28_17h57.20.465,PainUncertainty,2022.2.5,143.10328050022756,
grave,moderee,stimuli/330Hz,stimuli/moderee,bloc_1,prob20hthp_12trials.xlsx,4,48,20,80,0,,,,,0,0,0,0,0,0,0,5,,,,,,,,3.6,281.69853780000267,285.302199400001,285.30223242000176,0.3050212999987707,285.7465372000006,285.7465372000006,n,0.7812896999967052,288.58665910000127,288.58665910000127,30,2.003,,,sub-032,45,80,700,bloc_loop.csv,2023-06-28_17h57.20.465,PainUncertainty,2022.2.5,143.10328050022756,
aigu,moderee,stimuli/660Hz,stimuli/moderee,bloc_1,prob20hthp_12trials.xlsx,4,48,20,80,0,,,,,0,0,0,0,0,1,1,10,,,,,,,,4.8,288.58665910000127,293.3863838000034,293.3863750200024,0.3052080000015849,293.8325823000014,293.8325823000014,n,1.5425872999949206,298.89865270000155,298.89865270000155,32,3.441,,,sub-032,45,80,700,bloc_loop.csv,2023-06-28_17h57.20.465,PainUncertainty,2022.2.5,143.10328050022756,
grave,forte,stimuli/330Hz,stimuli/forte,bloc_1,prob20hthp_12trials.xlsx,4,48,20,80,0,,,,,0,0,0,0,0,2,2,0,,,,,,,,3.6,298.89865270000155,302.4985376000004,302.49860412000163,0.3050880999981018,302.94278190000114,302.94278190000114,m,0.9881316999963019,305.10060350000276,305.10060350000276,70,1.108,,,sub-032,45,80,700,bloc_loop.csv,2023-06-28_17h57.20.465,PainUncertainty,2022.2.5,143.10328050022756,
aigu,forte,stimuli/660Hz,stimuli/forte,bloc_1,prob20hthp_12trials.xlsx,4,48,20,80,0,,,,,0,0,0,0,0,3,3,11,,,,,,,,4.1,305.10060350000276,309.20078750000175,309.20088712000035,0.30507500000021537,309.64498260000255,309.64498260000255,m,1.2765721999967354,313.34926720000294,313.34926720000294,71,2.379,,,sub-032,45,80,700,bloc_loop.csv,2023-06-28_17h57.20.465,PainUncertainty,2022.2.5,143.10328050022756,
grave,forte,stimuli/330Hz,stimuli/forte,bloc_1,prob20hthp_12trials.xlsx,4,48,20,80,0,,,,,0,0,0,0,0,4,4,4,,,,,,,,3,313.34926720000294,316.3543426000033,316.3543809200008,0.3054364000017813,316.79893600000287,316.79893600000287,m,1.0080631999953766,319.2825617000017,319.2825617000017,72,1.393,,,sub-032,45,80,700,bloc_loop.csv,2023-06-28_17h57.20.465,PainUncertainty,2022.2.5,143.10328050022756,
aigu,moderee,stimuli/660Hz,stimuli/moderee,bloc_1,prob20hthp_12trials.xlsx,4,48,20,80,0,,,,,0,0,0,0,0,5,5,9,,,,,,,,4.2,319.2825617000017,323.48758440000165,323.4875429200027,0.30505660000198986,323.9354923000028,323.9354923000028,n,0.7541010999993887,326.6839925000022,326.6839925000022,28,1.92,,,sub-032,45,80,700,bloc_loop.csv,2023-06-28_17h57.20.465,PainUncertainty,2022.2.5,143.10328050022756,
grave,forte,stimuli/330Hz,stimuli/forte,bloc_1,prob20hthp_12trials.xlsx,4,48,20,80,0,,,,,0,0,0,0,0,6,6,3,,,,,,,,3.4,326.6839925000022,330.0852141000032,330.0853251200013,0.30546310000136145,330.5335287000016,330.5335287000016,m,0.9345870999968611,332.94941010000184,332.94941010000184,70,1.399,,,sub-032,45,80,700,bloc_loop.csv,2023-06-28_17h57.20.465,PainUncertainty,2022.2.5,143.10328050022756,
aigu,moderee,stimuli/660Hz,stimuli/moderee,bloc_1,prob20hthp_12trials.xlsx,4,48,20,80,0,,,,,0,0,0,0,0,7,7,6,,,,,,,,3,332.94941010000184,335.95389950000026,335.95413351999997,0.305214200001501,336.3983756000016,336.3983756000016,n,0.6518769999966025,340.2083167000019,340.2083167000019,27,3.078,,,sub-032,45,80,700,bloc_loop.csv,2023-06-28_17h57.20.465,PainUncertainty,2022.2.5,143.10328050022756,
grave,forte,stimuli/330Hz,stimuli/forte,bloc_1,prob20hthp_12trials.xlsx,4,48,20,80,0,,,,,0,0,0,0,0,8,8,2,,,,,,,,3,340.2083167000019,343.2118436000019,343.2119669200027,0.30523819999871193,343.65682460000244,343.65682460000244,m,1.2019462999996904,346.107347000001,346.107347000001,70,1.164,,,sub-032,45,80,700,bloc_loop.csv,2023-06-28_17h57.20.465,PainUncertainty,2022.2.5,143.10328050022756,
aigu,moderee,stimuli/660Hz,stimuli/moderee,bloc_1,prob20hthp_12trials.xlsx,4,48,20,80,0,,,,,0,0,0,0,0,9,9,7,,,,,,,,3.4,346.107347000001,349.51125460000185,349.51137552000256,0.304896199999348,349.9553956000018,349.9553956000018,n,1.0114059000006819,353.2509913000031,353.2509913000031,25,2.233,,,sub-032,45,80,700,bloc_loop.csv,2023-06-28_17h57.20.465,PainUncertainty,2022.2.5,143.10328050022756,
aigu,moderee,stimuli/660Hz,stimuli/moderee,bloc_1,prob20hthp_12trials.xlsx,4,48,20,80,0,,,,,0,0,0,0,0,10,10,8,,,,,,,,4.6,353.2509913000031,357.85253100000045,357.8526478200027,0.30511760000081267,358.30041090000304,358.30041090000304,n,0.7946211999988009,360.68651390000014,360.68651390000014,29,1.517,,,sub-032,45,80,700,bloc_loop.csv,2023-06-28_17h57.20.465,PainUncertainty,2022.2.5,143.10328050022756,
grave,forte,stimuli/330Hz,stimuli/forte,bloc_1,prob20hthp_12trials.xlsx,4,48,20,80,0,,,,,0,0,0,0,0,11,11,1,,,,,,,,3.4,360.68651390000014,364.0895776000034,364.0896473200035,0.3052362999987963,364.5388640000019,364.5388640000019,m,0.6631790999999794,366.616966900001,366.616966900001,67,1.337,,,sub-032,45,80,700,bloc_loop.csv,2023-06-28_17h57.20.465,PainUncertainty,2022.2.5,143.10328050022756,
aigu,moderee,stimuli/660Hz,stimuli/moderee,bloc_1,prob20hthp_12trials.xlsx,4,48,20,80,0,,,,,0,0,0,0,1,0,12,7,,,,,,,,4.7,366.616966900001,371.3195947000022,371.31975162000055,0.3046594000006735,371.76817780000056,371.76817780000056,n,0.6727259999970556,375.2824040000014,375.2824040000014,26,2.782,,,sub-032,45,80,700,bloc_loop.csv,2023-06-28_17h57.20.465,PainUncertainty,2022.2.5,143.10328050022756,
aigu,moderee,stimuli/660Hz,stimuli/moderee,bloc_1,prob20hthp_12trials.xlsx,4,48,20,80,0,,,,,0,0,0,0,1,1,13,6,,,,,,,,4.2,375.2824040000014,379.48738720000256,379.4874357200013,0.30462380000244593,379.93142570000055,379.93142570000055,n,0.6592593999994278,382.30044850000195,382.30044850000195,31,1.628,,,sub-032,45,80,700,bloc_loop.csv,2023-06-28_17h57.20.465,PainUncertainty,2022.2.5,143.10328050022756,
grave,forte,stimuli/330Hz,stimuli/forte,bloc_1,prob20hthp_12trials.xlsx,4,48,20,80,0,,,,,0,0,0,0,1,2,14,4,,,,,,,,4.3,382.30044850000195,386.60610760000054,386.6061376200003,0.3051826000009896,387.05035080000016,387.05035080000016,m,0.7423024999989138,389.74894020000283,389.74894020000283,71,1.906,,,sub-032,45,80,700,bloc_loop.csv,2023-06-28_17h57.20.465,PainUncertainty,2022.2.5,143.10328050022756,
grave,forte,stimuli/330Hz,stimuli/forte,bloc_1,prob20hthp_12trials.xlsx,4,48,20,80,0,,,,,0,0,0,0,1,3,15,1,,,,,,,,3.1,389.74894020000283,392.8498494000014,392.84967152000064,0.3053908000001684,393.294071100001,393.294071100001,m,0.6958505999973568,397.0244821000015,397.0244821000015,69,2.949,,,sub-032,45,80,700,bloc_loop.csv,2023-06-28_17h57.20.465,PainUncertainty,2022.2.5,143.10328050022756,
aigu,moderee,stimuli/660Hz,stimuli/moderee,bloc_1,prob20hthp_12trials.xlsx,4,48,20,80,0,,,,,0,0,0,0,1,4,16,10,,,,,,,,3.4,397.0244821000015,400.42739450000226,400.4274233200002,0.30495149999842397,400.8713325000026,400.8713325000026,n,0.666920099996787,402.5415353000026,402.5415353000026,30,0.926,,,sub-032,45,80,700,bloc_loop.csv,2023-06-28_17h57.20.465,PainUncertainty,2022.2.5,143.10328050022756,
grave,forte,stimuli/330Hz,stimuli/forte,bloc_1,prob20hthp_12trials.xlsx,4,48,20,80,0,,,,,0,0,0,0,1,5,17,0,,,,,,,,4.7,402.5415353000026,407.24089730000196,407.24081332000316,0.30525910000142176,407.6865445000003,407.6865445000003,m,0.4313436999982514,409.2692778000019,409.2692778000019,68,1.081,,,sub-032,45,80,700,bloc_loop.csv,2023-06-28_17h57.20.465,PainUncertainty,2022.2.5,143.10328050022756,
aigu,moderee,stimuli/660Hz,stimuli/moderee,bloc_1,prob20hthp_12trials.xlsx,4,48,20,80,0,,,,,0,0,0,0,1,6,18,9,,,,,,,,3.1,409.2692778000019,412.3731187000012,412.373088520001,0.29929749999791966,412.8112793,412.8112793,n,0.518880599996919,414.9137542000026,414.9137542000026,34,1.503,,,sub-032,45,80,700,bloc_loop.csv,2023-06-28_17h57.20.465,PainUncertainty,2022.2.5,143.10328050022756,
grave,forte,stimuli/330Hz,stimuli/forte,bloc_1,prob20hthp_12trials.xlsx,4,48,20,80,0,,,,,0,0,0,0,1,7,19,2,,,,,,,,4.8,414.9137542000026,419.714480300001,419.7145126200001,0.3048830999978236,420.1584894000007,420.1584894000007,m,0.7599513999994087,423.41875860000073,423.41875860000073,75,2.432,,,sub-032,45,80,700,bloc_loop.csv,2023-06-28_17h57.20.465,PainUncertainty,2022.2.5,143.10328050022756,
grave,forte,stimuli/330Hz,stimuli/forte,bloc_1,prob20hthp_12trials.xlsx,4,48,20,80,0,,,,,0,0,0,0,1,8,20,3,,,,,,,,4.7,423.41875860000073,428.11798120000094,428.1179693200018,0.30509280000114813,428.5621734000015,428.5621734000015,m,0.773353099997621,431.7151580000027,431.7151580000027,76,2.303,,,sub-032,45,80,700,bloc_loop.csv,2023-06-28_17h57.20.465,PainUncertainty,2022.2.5,143.10328050022756,
grave,moderee,stimuli/330Hz,stimuli/moderee,bloc_1,prob20hthp_12trials.xlsx,4,48,20,80,0,,,,,0,0,0,0,1,9,21,5,,,,,,,,4.6,431.7151580000027,436.32039740000255,436.3203418200017,0.3052287999998953,436.76832670000294,436.76832670000294,n,0.7195657999982359,441.16286970000147,441.16286970000147,34,3.602,,,sub-032,45,80,700,bloc_loop.csv,2023-06-28_17h57.20.465,PainUncertainty,2022.2.5,143.10328050022756,
aigu,forte,stimuli/660Hz,stimuli/forte,bloc_1,prob20hthp_12trials.xlsx,4,48,20,80,0,,,,,0,0,0,0,1,10,22,11,,,,,,,,4.9,441.16286970000147,446.0647392000028,446.0647093200012,0.3053729999992356,446.51617010000336,446.51617010000336,m,1.4028446999982407,449.493733000003,449.493733000003,71,1.502,,,sub-032,45,80,700,bloc_loop.csv,2023-06-28_17h57.20.465,PainUncertainty,2022.2.5,143.10328050022756,
aigu,moderee,stimuli/660Hz,stimuli/moderee,bloc_1,prob20hthp_12trials.xlsx,4,48,20,80,0,,,,,0,0,0,0,1,11,23,8,,,,,,,,3.7,449.493733000003,453.1978928000026,453.1980100200006,0.30478860000221175,453.6420923000005,453.6420923000005,n,1.213014099997963,456.3359259000026,456.3359259000026,26,1.406,,,sub-032,45,80,700,bloc_loop.csv,2023-06-28_17h57.20.465,PainUncertainty,2022.2.5,143.10328050022756,
grave,forte,stimuli/330Hz,stimuli/forte,bloc_1,prob20hthp_12trials.xlsx,4,48,20,80,0,,,,,0,0,0,0,2,0,24,3,,,,,,,,3.5,456.3359259000026,459.8372023000011,459.83706452000007,0.30517580000014277,460.28134540000246,460.28134540000246,m,0.6877233999985037,462.1693299000035,462.1693299000035,69,1.121,,,sub-032,45,80,700,bloc_loop.csv,2023-06-28_17h57.20.465,PainUncertainty,2022.2.5,143.10328050022756,
aigu,moderee,stimuli/660Hz,stimuli/moderee,bloc_1,prob20hthp_12trials.xlsx,4,48,20,80,0,,,,,0,0,0,0,2,1,25,9,,,,,,,,3,462.1693299000035,465.1710768000012,465.17154902000294,0.30491930000061984,465.6197086000029,465.6197086000029,n,0.7718003000009048,467.4621786000025,467.4621786000025,28,0.99,,,sub-032,45,80,700,bloc_loop.csv,2023-06-28_17h57.20.465,PainUncertainty,2022.2.5,143.10328050022756,
aigu,forte,stimuli/660Hz,stimuli/forte,bloc_1,prob20hthp_12trials.xlsx,4,48,20,80,0,,,,,0,0,0,0,2,2,26,11,,,,,,,,4.9,467.4621786000025,472.3679888000006,472.36690512000024,0.3046576999986428,472.81062470000325,472.81062470000325,m,0.8063174999988405,475.4056198000035,475.4056198000035,71,1.711,,,sub-032,45,80,700,bloc_loop.csv,2023-06-28_17h57.20.465,PainUncertainty,2022.2.5,143.10328050022756,
grave,moderee,stimuli/330Hz,stimuli/moderee,bloc_1,prob20hthp_12trials.xlsx,4,48,20,80,0,,,,,0,0,0,0,2,3,27,5,,,,,,,,4.8,475.4056198000035,480.2077379000002,480.207818220001,0.30561170000146376,480.6558815000026,480.6558815000026,n,0.6736116999963997,484.4217247000015,484.4217247000015,28,3.033,,,sub-032,45,80,700,bloc_loop.csv,2023-06-28_17h57.20.465,PainUncertainty,2022.2.5,143.10328050022756,
aigu,moderee,stimuli/660Hz,stimuli/moderee,bloc_1,prob20hthp_12trials.xlsx,4,48,20,80,0,,,,,0,0,0,0,2,4,28,6,,,,,,,,4,484.4217247000015,488.4244049000008,488.42423112000216,0.3052266000013333,488.873143300003,488.873143300003,n,0.8670873999981268,492.4971672000029,492.4971672000029,29,2.637,,,sub-032,45,80,700,bloc_loop.csv,2023-06-28_17h57.20.465,PainUncertainty,2022.2.5,143.10328050022756,
grave,forte,stimuli/330Hz,stimuli/forte,bloc_1,prob20hthp_12trials.xlsx,4,48,20,80,0,,,,,0,0,0,0,2,5,29,1,,,,,,,,3.5,492.4971672000029,496.00162620000265,496.0017377200009,0.30527879999863217,496.4508128000016,496.4508128000016,m,0.8152870999983861,498.82853310000064,498.82853310000064,71,1.476,,,sub-032,45,80,700,bloc_loop.csv,2023-06-28_17h57.20.465,PainUncertainty,2022.2.5,143.10328050022756,
aigu,moderee,stimuli/660Hz,stimuli/moderee,bloc_1,prob20hthp_12trials.xlsx,4,48,20,80,0,,,,,0,0,0,0,2,6,30,10,,,,,,,,4.9,498.82853310000064,503.7313310000027,503.7315598200028,0.3047471999998379,504.17557170000146,504.17557170000146,n,0.9852677999988373,505.9237374000004,505.9237374000004,30,0.705,,,sub-032,45,80,700,bloc_loop.csv,2023-06-28_17h57.20.465,PainUncertainty,2022.2.5,143.10328050022756,
aigu,moderee,stimuli/660Hz,stimuli/moderee,bloc_1,prob20hthp_12trials.xlsx,4,48,20,80,0,,,,,0,0,0,0,2,7,31,7,,,,,,,,4.9,505.9237374000004,510.8295104000026,510.82948712000035,0.30501550000190036,511.27371830000266,511.27371830000266,n,1.1305913999967743,515.1964147000035,515.1964147000035,30,2.726,,,sub-032,45,80,700,bloc_loop.csv,2023-06-28_17h57.20.465,PainUncertainty,2022.2.5,143.10328050022756,
grave,forte,stimuli/330Hz,stimuli/forte,bloc_1,prob20hthp_12trials.xlsx,4,48,20,80,0,,,,,0,0,0,0,2,8,32,2,,,,,,,,3.3,515.1964147000035,518.4974694000011,518.4975181200014,0.30478860000221175,518.9413393000032,518.9413393000032,m,1.9145749999952386,522.8708553000033,522.8708553000033,72,1.94,,,sub-032,45,80,700,bloc_loop.csv,2023-06-28_17h57.20.465,PainUncertainty,2022.2.5,143.10328050022756,
aigu,moderee,stimuli/660Hz,stimuli/moderee,bloc_1,prob20hthp_12trials.xlsx,4,48,20,80,0,,,,,0,0,0,0,2,9,33,8,,,,,,,,4.3,522.8708553000033,527.172148200003,527.1721526200006,0.30541879999873345,527.6198918000009,527.6198918000009,n,0.5481668999964313,529.9215932000006,529.9215932000006,28,1.678,,,sub-032,45,80,700,bloc_loop.csv,2023-06-28_17h57.20.465,PainUncertainty,2022.2.5,143.10328050022756,
grave,forte,stimuli/330Hz,stimuli/forte,bloc_1,prob20hthp_12trials.xlsx,4,48,20,80,0,,,,,0,0,0,0,2,10,34,4,,,,,,,,3.4,529.9215932000006,533.3253748000025,533.3254057200018,0.3049609000008786,533.7697504000025,533.7697504000025,m,0.8349498999959906,536.6813466000021,536.6813466000021,72,2.018,,,sub-032,45,80,700,bloc_loop.csv,2023-06-28_17h57.20.465,PainUncertainty,2022.2.5,143.10328050022756,
grave,forte,stimuli/330Hz,stimuli/forte,bloc_1,prob20hthp_12trials.xlsx,4,48,20,80,0,,,,,0,0,0,0,2,11,35,0,,,,,,,,4.5,536.6813466000021,541.1807122000027,541.1807274200025,0.30501700000240817,541.6246539000022,541.6246539000022,m,0.8520755999998073,544.4346206000009,544.4346206000009,81,1.906,,,sub-032,45,80,700,bloc_loop.csv,2023-06-28_17h57.20.465,PainUncertainty,2022.2.5,143.10328050022756,
grave,forte,stimuli/330Hz,stimuli/forte,bloc_1,prob20hthp_12trials.xlsx,4,48,20,80,0,,,,,0,0,0,0,3,0,36,3,,,,,,,,4.3,544.4346206000009,548.7374099000008,548.7371065200011,0.30472069999814266,549.1811990000024,549.1811990000024,m,0.865735899998981,551.6292992000017,551.6292992000017,70,1.518,,,sub-032,45,80,700,bloc_loop.csv,2023-06-28_17h57.20.465,PainUncertainty,2022.2.5,143.10328050022756,
aigu,forte,stimuli/660Hz,stimuli/forte,bloc_1,prob20hthp_12trials.xlsx,4,48,20,80,0,,,,,0,0,0,0,3,1,37,11,,,,,,,,4.7,551.6292992000017,556.3349502000019,556.3351357200033,0.30512390000149026,556.7792384000022,556.7792384000022,m,0.7491620999971929,559.5893740000029,559.5893740000029,75,2.012,,,sub-032,45,80,700,bloc_loop.csv,2023-06-28_17h57.20.465,PainUncertainty,2022.2.5,143.10328050022756,
grave,forte,stimuli/330Hz,stimuli/forte,bloc_1,prob20hthp_12trials.xlsx,4,48,20,80,0,,,,,0,0,0,0,3,2,38,2,,,,,,,,4.3,559.5893740000029,563.8914189000025,563.8915205200017,0.3051322999999684,564.3356767000005,564.3356767000005,m,0.6732964999973774,567.2628267,567.2628267,72,2.205,,,sub-032,45,80,700,bloc_loop.csv,2023-06-28_17h57.20.465,PainUncertainty,2022.2.5,143.10328050022756,
grave,forte,stimuli/330Hz,stimuli/forte,bloc_1,prob20hthp_12trials.xlsx,4,48,20,80,0,,,,,0,0,0,0,3,3,39,0,,,,,,,,3,567.2628267,570.2672469000026,570.2675142200012,0.3048211999994237,570.7114458000033,570.7114458000033,m,1.0617089999977907,573.229378400003,573.229378400003,71,1.378,,,sub-032,45,80,700,bloc_loop.csv,2023-06-28_17h57.20.465,PainUncertainty,2022.2.5,143.10328050022756,
grave,moderee,stimuli/330Hz,stimuli/moderee,bloc_1,prob20hthp_12trials.xlsx,4,48,20,80,0,,,,,0,0,0,0,3,4,40,5,,,,,,,,4.8,573.229378400003,578.032142,578.0321321200015,0.30517999999938183,578.4763213000006,578.4763213000006,n,0.6554152999997314,582.1797217000021,582.1797217000021,19,2.99,,,sub-032,45,80,700,bloc_loop.csv,2023-06-28_17h57.20.465,PainUncertainty,2022.2.5,143.10328050022756,
aigu,moderee,stimuli/660Hz,stimuli/moderee,bloc_1,prob20hthp_12trials.xlsx,4,48,20,80,0,,,,,0,0,0,0,3,5,41,9,,,,,,,,3.4,582.1797217000021,585.5820168000027,585.5819378200019,0.305106000003434,586.0258169000008,586.0258169000008,n,1.174143299998832,589.0228626000026,589.0228626000026,28,1.746,,,sub-032,45,80,700,bloc_loop.csv,2023-06-28_17h57.20.465,PainUncertainty,2022.2.5,143.10328050022756,
grave,forte,stimuli/330Hz,stimuli/forte,bloc_1,prob20hthp_12trials.xlsx,4,48,20,80,0,,,,,0,0,0,0,3,6,42,4,,,,,,,,4.7,589.0228626000026,593.7285766000023,593.7285352200004,0.30489029999807826,594.1726441000028,594.1726441000028,m,0.68265109999993,596.8241131000032,596.8241131000032,73,1.893,,,sub-032,45,80,700,bloc_loop.csv,2023-06-28_17h57.20.465,PainUncertainty,2022.2.5,143.10328050022756,
aigu,moderee,stimuli/660Hz,stimuli/moderee,bloc_1,prob20hthp_12trials.xlsx,4,48,20,80,0,,,,,0,0,0,0,3,7,43,8,,,,,,,,3.4,596.8241131000032,600.2292754000009,600.2293176200026,0.30524639999930514,600.6736241000035,600.6736241000035,n,0.8392347999979393,602.8006644000016,602.8006644000016,30,1.226,,,sub-032,45,80,700,bloc_loop.csv,2023-06-28_17h57.20.465,PainUncertainty,2022.2.5,143.10328050022756,
aigu,moderee,stimuli/660Hz,stimuli/moderee,bloc_1,prob20hthp_12trials.xlsx,4,48,20,80,0,,,,,0,0,0,0,3,8,44,6,,,,,,,,3.1,602.8006644000016,605.9037298000003,605.9038578200004,0.30519900000217604,606.3550071000027,606.3550071000027,n,0.6785667999974976,609.4680473000008,609.4680473000008,28,2.379,,,sub-032,45,80,700,bloc_loop.csv,2023-06-28_17h57.20.465,PainUncertainty,2022.2.5,143.10328050022756,
aigu,moderee,stimuli/660Hz,stimuli/moderee,bloc_1,prob20hthp_12trials.xlsx,4,48,20,80,0,,,,,0,0,0,0,3,9,45,7,,,,,,,,4.7,609.4680473000008,614.1690328000004,614.1691668200026,0.2995246999998926,614.6134103000004,614.6134103000004,n,0.7080449999994016,616.4700691000035,616.4700691000035,28,1.073,,,sub-032,45,80,700,bloc_loop.csv,2023-06-28_17h57.20.465,PainUncertainty,2022.2.5,143.10328050022756,
grave,forte,stimuli/330Hz,stimuli/forte,bloc_1,prob20hthp_12trials.xlsx,4,48,20,80,0,,,,,0,0,0,0,3,10,46,1,,,,,,,,4.9,616.4700691000035,621.3707881000009,621.3706546199999,0.3051883000007365,621.8153029000023,621.8153029000023,m,1.3125753999993321,625.5506789000028,625.5506789000028,74,2.35,,,sub-032,45,80,700,bloc_loop.csv,2023-06-28_17h57.20.465,PainUncertainty,2022.2.5,143.10328050022756,
aigu,moderee,stimuli/660Hz,stimuli/moderee,bloc_1,prob20hthp_12trials.xlsx,4,48,20,80,0,,,,,0,0,0,0,3,11,47,10,,,,,,,,4.7,625.5506789000028,630.2540666000023,630.2540798200014,0.30492819999926724,630.6979910000009,630.6979910000009,n,0.6396432000001369,632.9358392000031,632.9358392000031,32,1.532,,,sub-032,45,80,700,bloc_loop.csv,2023-06-28_17h57.20.465,PainUncertainty,2022.2.5,143.10328050022756,
aigu,forte,stimuli/660Hz,stimuli/forte,bloc_2,prob50_50_4trials.xlsx,2,8,50,50,1,,,,,0,1,1,1,0,0,0,3,,,,,,,,3.6,632.9358392000031,636.5394795000029,636.5392910200014,0.2992140999995172,636.9797919000011,636.9797919000011,m,0.6624780999991344,640.1303872000026,640.1303872000026,77,2.412,,,sub-032,45,80,700,bloc_loop.csv,2023-06-28_17h57.20.465,PainUncertainty,2022.2.5,143.10328050022756,
grave,moderee,stimuli/330Hz,stimuli/moderee,bloc_2,prob50_50_4trials.xlsx,2,8,50,50,1,,,,,0,1,1,1,0,1,1,0,,,,,,,,3.1,640.1303872000026,643.2345082000029,643.2344350200026,0.3053306999972847,643.6836702,643.6836702,n,0.9365554999967571,646.2037107000033,646.2037107000033,30,1.504,,,sub-032,45,80,700,bloc_loop.csv,2023-06-28_17h57.20.465,PainUncertainty,2022.2.5,143.10328050022756,
grave,forte,stimuli/330Hz,stimuli/forte,bloc_2,prob50_50_4trials.xlsx,2,8,50,50,1,,,,,0,1,1,1,0,2,2,1,,,,,,,,4.4,646.2037107000033,650.6039238000012,650.603804420002,0.3054632999992464,651.0501705000024,651.0501705000024,m,1.1057596999962698,653.5917608000018,653.5917608000018,80,1.366,,,sub-032,45,80,700,bloc_loop.csv,2023-06-28_17h57.20.465,PainUncertainty,2022.2.5,143.10328050022756,
aigu,moderee,stimuli/660Hz,stimuli/moderee,bloc_2,prob50_50_4trials.xlsx,2,8,50,50,1,,,,,0,1,1,1,0,3,3,2,,,,,,,,4,653.5917608000018,657.5906761000006,657.5908649200016,0.3048890999998548,658.0347818000009,658.0347818000009,n,0.6913471999978356,661.3587596000034,661.3587596000034,16,2.566,,,sub-032,45,80,700,bloc_loop.csv,2023-06-28_17h57.20.465,PainUncertainty,2022.2.5,143.10328050022756,
grave,moderee,stimuli/330Hz,stimuli/moderee,bloc_2,prob50_50_4trials.xlsx,2,8,50,50,1,,,,,0,1,1,1,1,0,4,0,,,,,,,,3.4,661.3587596000034,664.7580320000015,664.7580402200026,0.3050130999981775,665.2021738000003,665.2021738000003,n,0.9485565999966639,669.6736772000004,669.6736772000004,20,3.442,,,sub-032,45,80,700,bloc_loop.csv,2023-06-28_17h57.20.465,PainUncertainty,2022.2.5,143.10328050022756,
grave,forte,stimuli/330Hz,stimuli/forte,bloc_2,prob50_50_4trials.xlsx,2,8,50,50,1,,,,,0,1,1,1,1,1,5,1,,,,,,,,4.1,669.6736772000004,673.773035000002,673.7730151200001,0.29935029999978724,674.2117062000034,674.2117062000034,m,1.0843158999996376,677.729834400001,677.729834400001,77,2.379,,,sub-032,45,80,700,bloc_loop.csv,2023-06-28_17h57.20.465,PainUncertainty,2022.2.5,143.10328050022756,
aigu,forte,stimuli/660Hz,stimuli/forte,bloc_2,prob50_50_4trials.xlsx,2,8,50,50,1,,,,,0,1,1,1,1,2,6,3,,,,,,,,4.1,677.729834400001,681.8296138000005,681.8295740199999,0.3050227999992785,682.2810118000016,682.2810118000016,m,1.6786213999985193,686.6188949000025,686.6188949000025,74,2.58,,,sub-032,45,80,700,bloc_loop.csv,2023-06-28_17h57.20.465,PainUncertainty,2022.2.5,143.10328050022756,
aigu,moderee,stimuli/660Hz,stimuli/moderee,bloc_2,prob50_50_4trials.xlsx,2,8,50,50,1,,,,,0,1,1,1,1,3,7,2,,,,,,,,4.3,686.6188949000025,690.9209491000001,690.9210062200025,0.30520980000073905,691.3723705000011,691.3723705000011,n,0.8737541000009514,695.9662243000021,695.9662243000021,28,1.692,,,sub-032,45,80,700,bloc_loop.csv,2023-06-28_17h57.20.465,PainUncertainty,2022.2.5,143.10328050022756,
,,,,bloc_2,prob50_50_4trials.xlsx,2,8,50,50,1,,,,,0,1,1,1,,,,,0,0,0,0,,,,,,,,,,,,,,,,,695.9662243000021,748.3585852000033,sub-032,45,80,700,bloc_loop.csv,2023-06-28_17h57.20.465,PainUncertainty,2022.2.5,143.10328050022756,
grave,moderee,stimuli/330Hz,stimuli/moderee,bloc_3,prob80hthp_12trials.xlsx,2,24,80,20,0,,,,,0,2,2,2,0,0,0,2,,,,,,,,4,749.3662409000026,753.366060700002,753.3662848200026,0.3049270000010438,753.8106973000031,753.8106973000031,n,0.7769583999979659,757.0548344000017,757.0548344000017,27,2.414,,,sub-032,45,80,700,bloc_loop.csv,2023-06-28_17h57.20.465,PainUncertainty,2022.2.5,143.10328050022756,
grave,moderee,stimuli/330Hz,stimuli/moderee,bloc_3,prob80hthp_12trials.xlsx,2,24,80,20,0,,,,,0,2,2,2,0,1,1,3,,,,,,,,4.8,757.0548344000017,761.8601313000036,761.8601669200023,0.30518060000031255,762.3042564000025,762.3042564000025,n,0.7983960999990813,764.3276274000018,764.3276274000018,29,1.171,,,sub-032,45,80,700,bloc_loop.csv,2023-06-28_17h57.20.465,PainUncertainty,2022.2.5,143.10328050022756,
grave,moderee,stimuli/330Hz,stimuli/moderee,bloc_3,prob80hthp_12trials.xlsx,2,24,80,20,0,,,,,0,2,2,2,0,2,2,1,,,,,,,,4.7,764.3276274000018,769.0281467000023,769.0278782200028,0.30512930000259075,769.4721488000032,769.4721488000032,n,0.7764582999989216,771.7306440000029,771.7306440000029,28,1.406,,,sub-032,45,80,700,bloc_loop.csv,2023-06-28_17h57.20.465,PainUncertainty,2022.2.5,143.10328050022756,
aigu,forte,stimuli/660Hz,stimuli/forte,bloc_3,prob80hthp_12trials.xlsx,2,24,80,20,0,,,,,0,2,2,2,0,3,3,10,,,,,,,,3.2,771.7306440000029,774.9312061000019,774.9314001200025,0.30526559999998426,775.3794480000033,775.3794480000033,m,1.4253529999987222,778.6353629000005,778.6353629000005,76,1.78,,,sub-032,45,80,700,bloc_loop.csv,2023-06-28_17h57.20.465,PainUncertainty,2022.2.5,143.10328050022756,
aigu,forte,stimuli/660Hz,stimuli/forte,bloc_3,prob80hthp_12trials.xlsx,2,24,80,20,0,,,,,0,2,2,2,0,4,4,7,,,,,,,,4.6,778.6353629000005,783.2380654000008,783.238115820003,0.3048010999991675,783.6819145000009,783.6819145000009,m,0.9005584000005911,788.0214523000031,788.0214523000031,80,3.372,,,sub-032,45,80,700,bloc_loop.csv,2023-06-28_17h57.20.465,PainUncertainty,2022.2.5,143.10328050022756,
aigu,forte,stimuli/660Hz,stimuli/forte,bloc_3,prob80hthp_12trials.xlsx,2,24,80,20,0,,,,,0,2,2,2,0,5,5,9,,,,,,,,3.6,788.0214523000031,791.6208140000017,791.6208900200024,0.3048716000012064,792.0648155000017,792.0648155000017,m,0.80334739999671,795.0394450000022,795.0394450000022,79,2.101,,,sub-032,45,80,700,bloc_loop.csv,2023-06-28_17h57.20.465,PainUncertainty,2022.2.5,143.10328050022756,
grave,moderee,stimuli/330Hz,stimuli/moderee,bloc_3,prob80hthp_12trials.xlsx,2,24,80,20,0,,,,,0,2,2,2,0,6,6,4,,,,,,,,3.2,795.0394450000022,798.2396930000032,798.2396501200008,0.3049047000022256,798.6837427000028,798.6837427000028,n,0.7655599999961851,801.9438217000024,801.9438217000024,21,2.435,,,sub-032,45,80,700,bloc_loop.csv,2023-06-28_17h57.20.465,PainUncertainty,2022.2.5,143.10328050022756,
aigu,moderee,stimuli/660Hz,stimuli/moderee,bloc_3,prob80hthp_12trials.xlsx,2,24,80,20,0,,,,,0,2,2,2,0,7,7,11,,,,,,,,4.1,801.9438217000024,806.0460609000002,806.0461001200008,0.3051616999982798,806.4902488000007,806.4902488000007,n,1.3879602999986673,809.8911541000016,809.8911541000016,23,1.933,,,sub-032,45,80,700,bloc_loop.csv,2023-06-28_17h57.20.465,PainUncertainty,2022.2.5,143.10328050022756,
grave,forte,stimuli/330Hz,stimuli/forte,bloc_3,prob80hthp_12trials.xlsx,2,24,80,20,0,,,,,0,2,2,2,0,8,8,5,,,,,,,,3.4,809.8911541000016,813.2971603000005,813.296991320002,0.3050528999992821,813.7411787000019,813.7411787000019,m,0.8811098999976821,816.6351520000026,816.6351520000026,75,1.963,,,sub-032,45,80,700,bloc_loop.csv,2023-06-28_17h57.20.465,PainUncertainty,2022.2.5,143.10328050022756,
aigu,forte,stimuli/660Hz,stimuli/forte,bloc_3,prob80hthp_12trials.xlsx,2,24,80,20,0,,,,,0,2,2,2,0,9,9,8,,,,,,,,4.2,816.6351520000026,820.8395459000021,820.8396356200017,0.30498219999935827,821.2837485000018,821.2837485000018,m,1.6781132999967667,826.181289600001,826.181289600001,78,3.144,,,sub-032,45,80,700,bloc_loop.csv,2023-06-28_17h57.20.465,PainUncertainty,2022.2.5,143.10328050022756,
grave,moderee,stimuli/330Hz,stimuli/moderee,bloc_3,prob80hthp_12trials.xlsx,2,24,80,20,0,,,,,0,2,2,2,0,10,10,0,,,,,,,,4.6,826.181289600001,830.7851883000003,830.7851455200023,0.29907620000085444,831.2235285000024,831.2235285000024,n,0.7423076999984914,835.1980823000013,835.1980823000013,25,3.164,,,sub-032,45,80,700,bloc_loop.csv,2023-06-28_17h57.20.465,PainUncertainty,2022.2.5,143.10328050022756,
aigu,forte,stimuli/660Hz,stimuli/forte,bloc_3,prob80hthp_12trials.xlsx,2,24,80,20,0,,,,,0,2,2,2,0,11,11,6,,,,,,,,3.8,835.1980823000013,839.0014545000013,839.0015428200011,0.3052888000020175,839.4457563000033,839.4457563000033,m,0.8608207999968727,841.4784878000028,841.4784878000028,80,1.121,,,sub-032,45,80,700,bloc_loop.csv,2023-06-28_17h57.20.465,PainUncertainty,2022.2.5,143.10328050022756,
aigu,forte,stimuli/660Hz,stimuli/forte,bloc_3,prob80hthp_12trials.xlsx,2,24,80,20,0,,,,,0,2,2,2,1,0,12,9,,,,,,,,5,841.4784878000028,846.4814306000007,846.4815377200018,0.3051464999989548,846.9261161000031,846.9261161000031,m,1.3224735999974655,850.3829126000019,850.3829126000019,75,2.081,,,sub-032,45,80,700,bloc_loop.csv,2023-06-28_17h57.20.465,PainUncertainty,2022.2.5,143.10328050022756,
aigu,forte,stimuli/660Hz,stimuli/forte,bloc_3,prob80hthp_12trials.xlsx,2,24,80,20,0,,,,,0,2,2,2,1,1,13,10,,,,,,,,4.8,850.3829126000019,855.184590300003,855.1843699200024,0.30509109999911743,855.632787100003,855.632787100003,m,0.6779376999984379,858.8722781000033,858.8722781000033,78,2.503,,,sub-032,45,80,700,bloc_loop.csv,2023-06-28_17h57.20.465,PainUncertainty,2022.2.5,143.10328050022756,
aigu,forte,stimuli/660Hz,stimuli/forte,bloc_3,prob80hthp_12trials.xlsx,2,24,80,20,0,,,,,0,2,2,2,1,2,14,6,,,,,,,,3,858.8722781000033,861.8722777000003,861.8723548200021,0.30558509999900707,862.3196827000029,862.3196827000029,m,1.3015135999994527,866.7054159000036,866.7054159000036,79,3.011,,,sub-032,45,80,700,bloc_loop.csv,2023-06-28_17h57.20.465,PainUncertainty,2022.2.5,143.10328050022756,
grave,moderee,stimuli/330Hz,stimuli/moderee,bloc_3,prob80hthp_12trials.xlsx,2,24,80,20,0,,,,,0,2,2,2,1,3,15,1,,,,,,,,4,866.7054159000036,870.7066280000035,870.7067324200023,0.3016389000003983,871.1518052000029,871.1518052000029,n,0.6769289999974717,874.858278300002,874.858278300002,23,2.976,,,sub-032,45,80,700,bloc_loop.csv,2023-06-28_17h57.20.465,PainUncertainty,2022.2.5,143.10328050022756,
grave,moderee,stimuli/330Hz,stimuli/moderee,bloc_3,prob80hthp_12trials.xlsx,2,24,80,20,0,,,,,0,2,2,2,1,4,16,2,,,,,,,,3.4,874.858278300002,878.2630957000001,878.263258820002,0.3055934000003617,878.7116320000023,878.7116320000023,n,0.6346494999961578,883.0296048000018,883.0296048000018,19,3.63,,,sub-032,45,80,700,bloc_loop.csv,2023-06-28_17h57.20.465,PainUncertainty,2022.2.5,143.10328050022756,
aigu,moderee,stimuli/660Hz,stimuli/moderee,bloc_3,prob80hthp_12trials.xlsx,2,24,80,20,0,,,,,0,2,2,2,1,5,17,11,,,,,,,,4.8,883.0296048000018,887.8338361000024,887.8337472200026,0.3049792999991041,888.2779518000025,888.2779518000025,n,0.9204967999976361,892.1398552000028,892.1398552000028,20,2.879,,,sub-032,45,80,700,bloc_loop.csv,2023-06-28_17h57.20.465,PainUncertainty,2022.2.5,143.10328050022756,
grave,moderee,stimuli/330Hz,stimuli/moderee,bloc_3,prob80hthp_12trials.xlsx,2,24,80,20,0,,,,,0,2,2,2,1,6,18,4,,,,,,,,4.3,892.1398552000028,896.4388899000005,896.4389410200008,0.3056605000019772,896.8872442000029,896.8872442000029,n,0.8375430999985838,900.1030109000021,900.1030109000021,27,2.302,,,sub-032,45,80,700,bloc_loop.csv,2023-06-28_17h57.20.465,PainUncertainty,2022.2.5,143.10328050022756,
aigu,forte,stimuli/660Hz,stimuli/forte,bloc_3,prob80hthp_12trials.xlsx,2,24,80,20,0,,,,,0,2,2,2,1,7,19,7,,,,,,,,4.3,900.1030109000021,904.4064705000019,904.4054418200019,0.30503440000029514,904.8493318000001,904.8493318000001,m,2.0620354999991832,908.3999979,908.3999979,76,1.406,,,sub-032,45,80,700,bloc_loop.csv,2023-06-28_17h57.20.465,PainUncertainty,2022.2.5,143.10328050022756,
grave,moderee,stimuli/330Hz,stimuli/moderee,bloc_3,prob80hthp_12trials.xlsx,2,24,80,20,0,,,,,0,2,2,2,1,8,20,3,,,,,,,,4.6,908.3999979,913.0034488000019,913.0034041200004,0.3049609000008786,913.4477803000009,913.4477803000009,n,0.616719199995714,915.5145580000026,915.5145580000026,24,1.372,,,sub-032,45,80,700,bloc_loop.csv,2023-06-28_17h57.20.465,PainUncertainty,2022.2.5,143.10328050022756,
aigu,forte,stimuli/660Hz,stimuli/forte,bloc_3,prob80hthp_12trials.xlsx,2,24,80,20,0,,,,,0,2,2,2,1,9,21,8,,,,,,,,3.5,915.5145580000026,919.0183509000017,919.0183613200013,0.3049159000001964,919.4621497000007,919.4621497000007,m,0.8779090999960317,921.778694800003,921.778694800003,80,1.385,,,sub-032,45,80,700,bloc_loop.csv,2023-06-28_17h57.20.465,PainUncertainty,2022.2.5,143.10328050022756,
grave,forte,stimuli/330Hz,stimuli/forte,bloc_3,prob80hthp_12trials.xlsx,2,24,80,20,0,,,,,0,2,2,2,1,10,22,5,,,,,,,,4.8,921.778694800003,926.5817622000031,926.5818130200012,0.3049215999999433,927.0255534000025,927.0255534000025,m,1.0056674999977986,929.3580230000007,929.3580230000007,77,1.246,,,sub-032,45,80,700,bloc_loop.csv,2023-06-28_17h57.20.465,PainUncertainty,2022.2.5,143.10328050022756,
grave,moderee,stimuli/330Hz,stimuli/moderee,bloc_3,prob80hthp_12trials.xlsx,2,24,80,20,0,,,,,0,2,2,2,1,11,23,0,,,,,,,,3.9,929.3580230000007,933.2632335000017,933.263333220001,0.304844399997819,933.7116702000021,933.7116702000021,n,0.7008602999994764,936.9664087000019,936.9664087000019,26,2.476,,,sub-032,45,80,700,bloc_loop.csv,2023-06-28_17h57.20.465,PainUncertainty,2022.2.5,143.10328050022756,
aigu,forte,stimuli/660Hz,stimuli/forte,bloc_4,prob50_50_4trials.xlsx,2,8,50,50,1,,,,,0,3,3,3,0,0,0,3,,,,,,,,4.6,936.9664087000019,941.569667900003,941.5697873200031,0.30484660000001895,942.0136294000004,942.0136294000004,m,0.9560217999969609,945.9516226000014,945.9516226000014,75,2.9,,,sub-032,45,80,700,bloc_loop.csv,2023-06-28_17h57.20.465,PainUncertainty,2022.2.5,143.10328050022756,
aigu,moderee,stimuli/660Hz,stimuli/moderee,bloc_4,prob50_50_4trials.xlsx,2,8,50,50,1,,,,,0,3,3,3,0,1,1,2,,,,,,,,3.7,945.9516226000014,949.6537362000017,949.6536716200014,0.30517369999870425,950.0978606000026,950.0978606000026,n,0.5929791999988083,952.6333871000024,952.6333871000024,27,1.875,,,sub-032,45,80,700,bloc_loop.csv,2023-06-28_17h57.20.465,PainUncertainty,2022.2.5,143.10328050022756,
grave,moderee,stimuli/330Hz,stimuli/moderee,bloc_4,prob50_50_4trials.xlsx,2,8,50,50,1,,,,,0,3,3,3,0,2,2,0,,,,,,,,4.3,952.6333871000024,956.9392015000012,956.9393243200018,0.30491889999757404,957.3834435000026,957.3834435000026,n,0.6157434999986435,959.9393710000004,959.9393710000004,20,1.86,,,sub-032,45,80,700,bloc_loop.csv,2023-06-28_17h57.20.465,PainUncertainty,2022.2.5,143.10328050022756,
grave,forte,stimuli/330Hz,stimuli/forte,bloc_4,prob50_50_4trials.xlsx,2,8,50,50,1,,,,,0,3,3,3,0,3,3,1,,,,,,,,3.4,959.9393710000004,963.3432709000008,963.3432784200002,0.3046697999998287,963.787253100003,963.787253100003,m,1.0605816999959643,967.1662670000005,967.1662670000005,73,2.238,,,sub-032,45,80,700,bloc_loop.csv,2023-06-28_17h57.20.465,PainUncertainty,2022.2.5,143.10328050022756,
grave,moderee,stimuli/330Hz,stimuli/moderee,bloc_4,prob50_50_4trials.xlsx,2,8,50,50,1,,,,,0,3,3,3,1,0,4,0,,,,,,,,3.2,967.1662670000005,970.3719189000003,970.3722319200012,0.30477090000204043,970.8188250000021,970.8188250000021,n,0.6637511999979324,973.7352815000013,973.7352815000013,24,2.189,,,sub-032,45,80,700,bloc_loop.csv,2023-06-28_17h57.20.465,PainUncertainty,2022.2.5,143.10328050022756,
aigu,moderee,stimuli/660Hz,stimuli/moderee,bloc_4,prob50_50_4trials.xlsx,2,8,50,50,1,,,,,0,3,3,3,1,1,5,2,,,,,,,,4.6,973.7352815000013,978.3381308000025,978.3382677200013,0.3002121999998053,978.7824515000029,978.7824515000029,n,0.713816699997551,982.1775938000028,982.1775938000028,28,2.616,,,sub-032,45,80,700,bloc_loop.csv,2023-06-28_17h57.20.465,PainUncertainty,2022.2.5,143.10328050022756,
aigu,forte,stimuli/660Hz,stimuli/forte,bloc_4,prob50_50_4trials.xlsx,2,8,50,50,1,,,,,0,3,3,3,1,2,6,3,,,,,,,,5,982.1775938000028,987.1791383000018,987.1790994200007,0.30656549999912386,987.6307723000027,987.6307723000027,m,0.9803510999954597,990.6992193000005,990.6992193000005,76,2.017,,,sub-032,45,80,700,bloc_loop.csv,2023-06-28_17h57.20.465,PainUncertainty,2022.2.5,143.10328050022756,
grave,forte,stimuli/330Hz,stimuli/forte,bloc_4,prob50_50_4trials.xlsx,2,8,50,50,1,,,,,0,3,3,3,1,3,7,1,,,,,,,,4,990.6992193000005,994.7010234000008,994.7011095200021,0.30490980000104173,995.1449869000026,995.1449869000026,m,0.677272399996582,1000.1269423000012,1000.1269423000012,75,2.273,,,sub-032,45,80,700,bloc_loop.csv,2023-06-28_17h57.20.465,PainUncertainty,2022.2.5,143.10328050022756,
,,,,bloc_4,prob50_50_4trials.xlsx,2,8,50,50,1,,,,,0,3,3,3,,,,,0,0,0,0,,,,,,,,,,,,,,,,,1000.1269423000012,1201.8367683000033,sub-032,45,80,700,bloc_loop.csv,2023-06-28_17h57.20.465,PainUncertainty,2022.2.5,143.10328050022756,
aigu,moderee,stimuli/660Hz,stimuli/moderee,bloc_5,prob20hthp_12trials.xlsx,2,24,20,80,0,,,,,0,4,4,4,0,0,0,7,,,,,,,,4.9,1202.776212300003,1207.6783269000007,1207.6781532200027,0.3005064000026323,1208.1222231000029,1208.1222231000029,n,0.624127099999896,1210.3853646000025,1210.3853646000025,26,1.558,,,sub-032,45,80,700,bloc_loop.csv,2023-06-28_17h57.20.465,PainUncertainty,2022.2.5,143.10328050022756,
grave,forte,stimuli/330Hz,stimuli/forte,bloc_5,prob20hthp_12trials.xlsx,2,24,20,80,0,,,,,0,4,4,4,0,1,1,4,,,,,,,,4.4,1210.3853646000025,1214.7896796000023,1214.7896736200007,0.3049428000012995,1215.2339648000016,1215.2339648000016,m,0.778803399996832,1217.6415880000022,1217.6415880000022,74,1.574,,,sub-032,45,80,700,bloc_loop.csv,2023-06-28_17h57.20.465,PainUncertainty,2022.2.5,143.10328050022756,
grave,forte,stimuli/330Hz,stimuli/forte,bloc_5,prob20hthp_12trials.xlsx,2,24,20,80,0,,,,,0,4,4,4,0,2,2,0,,,,,,,,3.4,1217.6415880000022,1221.047193800001,1221.0476583200023,0.3044122999999672,1221.4914455000035,1221.4914455000035,m,0.6583886000007624,1223.7979299000035,1223.7979299000035,71,1.574,,,sub-032,45,80,700,bloc_loop.csv,2023-06-28_17h57.20.465,PainUncertainty,2022.2.5,143.10328050022756,
aigu,moderee,stimuli/660Hz,stimuli/moderee,bloc_5,prob20hthp_12trials.xlsx,2,24,20,80,0,,,,,0,4,4,4,0,3,3,10,,,,,,,,3.6,1223.7979299000035,1227.4024387000027,1227.4023918200025,0.3051707999984501,1227.8465762000014,1227.8465762000014,n,0.5857938999979524,1231.1678002000008,1231.1678002000008,28,2.669,,,sub-032,45,80,700,bloc_loop.csv,2023-06-28_17h57.20.465,PainUncertainty,2022.2.5,143.10328050022756,
aigu,moderee,stimuli/660Hz,stimuli/moderee,bloc_5,prob20hthp_12trials.xlsx,2,24,20,80,0,,,,,0,4,4,4,0,4,4,8,,,,,,,,3.7,1231.1678002000008,1234.8685874000003,1234.8689640200016,0.30461619999914546,1235.312762900001,1235.312762900001,n,0.8203829999984009,1238.2961926000025,1238.2961926000025,30,2.108,,,sub-032,45,80,700,bloc_loop.csv,2023-06-28_17h57.20.465,PainUncertainty,2022.2.5,143.10328050022756,
aigu,moderee,stimuli/660Hz,stimuli/moderee,bloc_5,prob20hthp_12trials.xlsx,2,24,20,80,0,,,,,0,4,4,4,0,5,5,6,,,,,,,,4.3,1238.2961926000025,1242.5988116000008,1242.5986848200034,0.30508170000030077,1243.0497933000006,1243.0497933000006,n,0.7361745999987761,1245.5232925000018,1245.5232925000018,31,1.655,,,sub-032,45,80,700,bloc_loop.csv,2023-06-28_17h57.20.465,PainUncertainty,2022.2.5,143.10328050022756,
aigu,forte,stimuli/660Hz,stimuli/forte,bloc_5,prob20hthp_12trials.xlsx,2,24,20,80,0,,,,,0,4,4,4,0,6,6,11,,,,,,,,3.8,1245.5232925000018,1249.328776600003,1249.328756220001,0.3010309999990568,1249.7731528000004,1249.7731528000004,m,1.0988631999971403,1252.8456498000014,1252.8456498000014,74,1.9,,,sub-032,45,80,700,bloc_loop.csv,2023-06-28_17h57.20.465,PainUncertainty,2022.2.5,143.10328050022756,
grave,moderee,stimuli/330Hz,stimuli/moderee,bloc_5,prob20hthp_12trials.xlsx,2,24,20,80,0,,,,,0,4,4,4,0,7,7,5,,,,,,,,4.1,1252.8456498000014,1256.9473728000012,1256.947359020002,0.3048062999987451,1257.3915371000003,1257.3915371000003,n,0.7752853999991203,1259.8163915000005,1259.8163915000005,26,1.574,,,sub-032,45,80,700,bloc_loop.csv,2023-06-28_17h57.20.465,PainUncertainty,2022.2.5,143.10328050022756,
grave,forte,stimuli/330Hz,stimuli/forte,bloc_5,prob20hthp_12trials.xlsx,2,24,20,80,0,,,,,0,4,4,4,0,8,8,2,,,,,,,,5,1259.8163915000005,1264.8164780000006,1264.8163028200022,0.30485500000213506,1265.260427000001,1265.260427000001,m,1.3202253999952518,1268.4947441000004,1268.4947441000004,76,1.858,,,sub-032,45,80,700,bloc_loop.csv,2023-06-28_17h57.20.465,PainUncertainty,2022.2.5,143.10328050022756,
grave,forte,stimuli/330Hz,stimuli/forte,bloc_5,prob20hthp_12trials.xlsx,2,24,20,80,0,,,,,0,4,4,4,0,9,9,1,,,,,,,,3.7,1268.4947441000004,1272.1991877,1272.1991189200005,0.3051744999975199,1272.643414000002,1272.643414000002,m,0.6713575999965542,1274.8756906000017,1274.8756906000017,72,1.49,,,sub-032,45,80,700,bloc_loop.csv,2023-06-28_17h57.20.465,PainUncertainty,2022.2.5,143.10328050022756,
aigu,moderee,stimuli/660Hz,stimuli/moderee,bloc_5,prob20hthp_12trials.xlsx,2,24,20,80,0,,,,,0,4,4,4,0,10,10,9,,,,,,,,4.2,1274.8756906000017,1279.074949400001,1279.07503282,0.30505189999894355,1279.519169500003,1279.519169500003,n,0.7342912999993132,1281.1888893000032,1281.1888893000032,30,0.863,,,sub-032,45,80,700,bloc_loop.csv,2023-06-28_17h57.20.465,PainUncertainty,2022.2.5,143.10328050022756,
grave,forte,stimuli/330Hz,stimuli/forte,bloc_5,prob20hthp_12trials.xlsx,2,24,20,80,0,,,,,0,4,4,4,0,11,11,3,,,,,,,,3.1,1281.1888893000032,1284.290911600001,1284.2910363200015,0.30488359999799286,1284.7349956000035,1284.7349956000035,m,1.3895171999974991,1288.8003326000035,1288.8003326000035,77,2.595,,,sub-032,45,80,700,bloc_loop.csv,2023-06-28_17h57.20.465,PainUncertainty,2022.2.5,143.10328050022756,
aigu,moderee,stimuli/660Hz,stimuli/moderee,bloc_5,prob20hthp_12trials.xlsx,2,24,20,80,0,,,,,0,4,4,4,1,0,12,6,,,,,,,,5,1288.8003326000035,1293.8058439000015,1293.8059719200016,0.3049282000029052,1294.2500733000015,1294.2500733000015,n,0.588615499997104,1297.6076847000004,1297.6076847000004,26,2.698,,,sub-032,45,80,700,bloc_loop.csv,2023-06-28_17h57.20.465,PainUncertainty,2022.2.5,143.10328050022756,
grave,forte,stimuli/330Hz,stimuli/forte,bloc_5,prob20hthp_12trials.xlsx,2,24,20,80,0,,,,,0,4,4,4,1,1,13,4,,,,,,,,3.3,1297.6076847000004,1300.9109326000034,1300.9109567200019,0.30515899999954854,1301.3555573000012,1301.3555573000012,m,0.6708751000005577,1304.6421637000021,1304.6421637000021,77,2.554,,,sub-032,45,80,700,bloc_loop.csv,2023-06-28_17h57.20.465,PainUncertainty,2022.2.5,143.10328050022756,
aigu,forte,stimuli/660Hz,stimuli/forte,bloc_5,prob20hthp_12trials.xlsx,2,24,20,80,0,,,,,0,4,4,4,1,2,14,11,,,,,,,,4.1,1304.6421637000021,1308.745475300002,1308.7454617200008,0.3051231999997981,1309.1931304000027,1309.1931304000027,m,0.6330679999991844,1311.3551696000031,1311.3551696000031,74,1.448,,,sub-032,45,80,700,bloc_loop.csv,2023-06-28_17h57.20.465,PainUncertainty,2022.2.5,143.10328050022756,
grave,moderee,stimuli/330Hz,stimuli/moderee,bloc_5,prob20hthp_12trials.xlsx,2,24,20,80,0,,,,,0,4,4,4,1,3,15,5,,,,,,,,4.5,1311.3551696000031,1315.857507300003,1315.8575468200022,0.30055439999705413,1316.3020437000014,1316.3020437000014,n,0.9985390999972878,1320.0354688000007,1320.0354688000007,27,2.684,,,sub-032,45,80,700,bloc_loop.csv,2023-06-28_17h57.20.465,PainUncertainty,2022.2.5,143.10328050022756,
aigu,moderee,stimuli/660Hz,stimuli/moderee,bloc_5,prob20hthp_12trials.xlsx,2,24,20,80,0,,,,,0,4,4,4,1,4,16,10,,,,,,,,4.8,1320.0354688000007,1324.8378265000028,1324.8380550200006,0.3011676999994961,1325.2827762000015,1325.2827762000015,n,0.5694090999968466,1327.3245155000004,1327.3245155000004,28,1.412,,,sub-032,45,80,700,bloc_loop.csv,2023-06-28_17h57.20.465,PainUncertainty,2022.2.5,143.10328050022756,
aigu,moderee,stimuli/660Hz,stimuli/moderee,bloc_5,prob20hthp_12trials.xlsx,2,24,20,80,0,,,,,0,4,4,4,1,5,17,7,,,,,,,,4.4,1327.3245155000004,1331.7271766000013,1331.7271934200023,0.30490439999994123,1332.171470600002,1332.171470600002,n,0.5936594999948284,1334.1525247000027,1334.1525247000027,30,1.309,,,sub-032,45,80,700,bloc_loop.csv,2023-06-28_17h57.20.465,PainUncertainty,2022.2.5,143.10328050022756,
grave,forte,stimuli/330Hz,stimuli/forte,bloc_5,prob20hthp_12trials.xlsx,2,24,20,80,0,,,,,0,4,4,4,1,6,18,3,,,,,,,,4.5,1334.1525247000027,1338.651544700002,1338.6517099200016,0.30543470000338857,1339.0990573000017,1339.0990573000017,m,0.610203599997476,1341.6503980000016,1341.6503980000016,75,1.865,,,sub-032,45,80,700,bloc_loop.csv,2023-06-28_17h57.20.465,PainUncertainty,2022.2.5,143.10328050022756,
aigu,moderee,stimuli/660Hz,stimuli/moderee,bloc_5,prob20hthp_12trials.xlsx,2,24,20,80,0,,,,,0,4,4,4,1,7,19,8,,,,,,,,4.8,1341.6503980000016,1346.4511536000027,1346.4512585200016,0.3049012000010407,1346.8960961000012,1346.8960961000012,n,0.9250175999986823,1349.307234400003,1349.307234400003,25,1.407,,,sub-032,45,80,700,bloc_loop.csv,2023-06-28_17h57.20.465,PainUncertainty,2022.2.5,143.10328050022756,
grave,forte,stimuli/330Hz,stimuli/forte,bloc_5,prob20hthp_12trials.xlsx,2,24,20,80,0,,,,,0,4,4,4,1,8,20,0,,,,,,,,3.9,1349.307234400003,1353.2088473000003,1353.2088149200015,0.3051895999997214,1353.6530046000007,1353.6530046000007,m,0.950927199999569,1356.3105578000032,1356.3105578000032,78,1.629,,,sub-032,45,80,700,bloc_loop.csv,2023-06-28_17h57.20.465,PainUncertainty,2022.2.5,143.10328050022756,
aigu,moderee,stimuli/660Hz,stimuli/moderee,bloc_5,prob20hthp_12trials.xlsx,2,24,20,80,0,,,,,0,4,4,4,1,9,21,9,,,,,,,,3.1,1356.3105578000032,1359.4108653000003,1359.4109379200006,0.30522409999684896,1359.855145900001,1359.855145900001,n,0.6177222999976948,1362.6415920000036,1362.6415920000036,31,2.085,,,sub-032,45,80,700,bloc_loop.csv,2023-06-28_17h57.20.465,PainUncertainty,2022.2.5,143.10328050022756,
grave,forte,stimuli/330Hz,stimuli/forte,bloc_5,prob20hthp_12trials.xlsx,2,24,20,80,0,,,,,0,4,4,4,1,10,22,2,,,,,,,,5,1362.6415920000036,1367.641021800002,1367.6412032200012,0.30538030000025174,1368.0861762000022,1368.0861762000022,m,0.6427882999996655,1371.5443855000012,1371.5443855000012,71,2.761,,,sub-032,45,80,700,bloc_loop.csv,2023-06-28_17h57.20.465,PainUncertainty,2022.2.5,143.10328050022756,
grave,forte,stimuli/330Hz,stimuli/forte,bloc_5,prob20hthp_12trials.xlsx,2,24,20,80,0,,,,,0,4,4,4,1,11,23,1,,,,,,,,3.1,1371.5443855000012,1374.6491651000033,1374.6491979200025,0.30509170000004815,1375.096639000003,1375.096639000003,m,0.670717799996055,1376.7867700000024,1376.7867700000024,72,0.966,,,sub-032,45,80,700,bloc_loop.csv,2023-06-28_17h57.20.465,PainUncertainty,2022.2.5,143.10328050022756,
aigu,forte,stimuli/660Hz,stimuli/forte,bloc_6,prob50_50_4trials.xlsx,2,8,50,50,0,,,,,0,5,5,5,0,0,0,3,,,,,,,,3.7,1376.7867700000024,1380.4898293000006,1380.4898685200012,0.3063502000004519,1380.9398664,1380.9398664,m,0.9294047000003047,1384.1111867000036,1384.1111867000036,76,2.165,,,sub-032,45,80,700,bloc_loop.csv,2023-06-28_17h57.20.465,PainUncertainty,2022.2.5,143.10328050022756,
grave,moderee,stimuli/330Hz,stimuli/moderee,bloc_6,prob50_50_4trials.xlsx,2,8,50,50,0,,,,,0,5,5,5,0,1,1,0,,,,,,,,4.9,1384.1111867000036,1389.0121267000031,1389.011966320001,0.30517129999861936,1389.458499700002,1389.458499700002,n,0.8071856999995362,1393.1901693000036,1393.1901693000036,17,2.864,,,sub-032,45,80,700,bloc_loop.csv,2023-06-28_17h57.20.465,PainUncertainty,2022.2.5,143.10328050022756,
aigu,moderee,stimuli/660Hz,stimuli/moderee,bloc_6,prob50_50_4trials.xlsx,2,8,50,50,0,,,,,0,5,5,5,0,2,2,2,,,,,,,,4.2,1393.1901693000036,1397.3945809000033,1397.394670020002,0.3050134999975853,1397.8460338000004,1397.8460338000004,n,0.9914360000002489,1400.305161100001,1400.305161100001,24,1.393,,,sub-032,45,80,700,bloc_loop.csv,2023-06-28_17h57.20.465,PainUncertainty,2022.2.5,143.10328050022756,
grave,forte,stimuli/330Hz,stimuli/forte,bloc_6,prob50_50_4trials.xlsx,2,8,50,50,0,,,,,0,5,5,5,0,3,3,1,,,,,,,,3.6,1400.305161100001,1403.909250800003,1403.9092688200024,0.3051514999970095,1404.3534234000035,1404.3534234000035,m,0.6310001999954693,1407.6432176000017,1407.6432176000017,75,2.595,,,sub-032,45,80,700,bloc_loop.csv,2023-06-28_17h57.20.465,PainUncertainty,2022.2.5,143.10328050022756,
grave,forte,stimuli/330Hz,stimuli/forte,bloc_6,prob50_50_4trials.xlsx,2,8,50,50,0,,,,,0,5,5,5,1,0,4,1,,,,,,,,4.3,1407.6432176000017,1411.9452075000008,1411.9475793200024,0.30303709999861894,1412.3929566000006,1412.3929566000006,m,0.6687182999994548,1416.2752067000001,1416.2752067000001,73,3.136,,,sub-032,45,80,700,bloc_loop.csv,2023-06-28_17h57.20.465,PainUncertainty,2022.2.5,143.10328050022756,
grave,moderee,stimuli/330Hz,stimuli/moderee,bloc_6,prob50_50_4trials.xlsx,2,8,50,50,0,,,,,0,5,5,5,1,1,5,0,,,,,,,,4,1416.2752067000001,1420.2799513000027,1420.2797260200011,0.2991990000009537,1420.7221132000013,1420.7221132000013,n,0.5861912000000302,1422.4280235000006,1422.4280235000006,28,1.06,,,sub-032,45,80,700,bloc_loop.csv,2023-06-28_17h57.20.465,PainUncertainty,2022.2.5,143.10328050022756,
aigu,moderee,stimuli/660Hz,stimuli/moderee,bloc_6,prob50_50_4trials.xlsx,2,8,50,50,0,,,,,0,5,5,5,1,2,6,2,,,,,,,,3.5,1422.4280235000006,1425.932788000002,1425.9327185200007,0.30516089999946416,1426.3769009000025,1426.3769009000025,n,1.0723174999984622,1428.792805000001,1428.792805000001,27,1.269,,,sub-032,45,80,700,bloc_loop.csv,2023-06-28_17h57.20.465,PainUncertainty,2022.2.5,143.10328050022756,
aigu,forte,stimuli/660Hz,stimuli/forte,bloc_6,prob50_50_4trials.xlsx,2,8,50,50,0,,,,,0,5,5,5,1,3,7,3,,,,,,,,4.4,1428.792805000001,1433.1974284000025,1433.197496120002,0.30495029999656253,1433.6454481,1433.6454481,m,0.6036390999979631,1435.969093900003,1435.969093900003,80,1.664,,,sub-032,45,80,700,bloc_loop.csv,2023-06-28_17h57.20.465,PainUncertainty,2022.2.5,143.10328050022756,
aigu,forte,stimuli/660Hz,stimuli/forte,bloc_7,prob80hthp_12trials.xlsx,2,24,80,20,1,,,,,0,6,6,6,0,0,0,9,,,,,,,,4,1435.969093900003,1439.9692785000007,1439.9691994200027,0.3048975999990944,1440.4134072000015,1440.4134072000015,m,1.4250142999953823,1444.1385935000035,1444.1385935000035,69,2.233,,,sub-032,45,80,700,bloc_loop.csv,2023-06-28_17h57.20.465,PainUncertainty,2022.2.5,143.10328050022756,
aigu,forte,stimuli/660Hz,stimuli/forte,bloc_7,prob80hthp_12trials.xlsx,2,24,80,20,1,,,,,0,6,6,6,0,1,1,7,,,,,,,,4.4,1444.1385935000035,1448.5397502000014,1448.5397822200018,0.30499200000122073,1448.9842492000025,1448.9842492000025,m,0.9090466999950877,1450.901762700003,1450.901762700003,70,0.935,,,sub-032,45,80,700,bloc_loop.csv,2023-06-28_17h57.20.465,PainUncertainty,2022.2.5,143.10328050022756,
aigu,moderee,stimuli/660Hz,stimuli/moderee,bloc_7,prob80hthp_12trials.xlsx,2,24,80,20,1,,,,,0,6,6,6,0,2,2,11,,,,,,,,4.6,1450.901762700003,1455.5058310000022,1455.5057951200022,0.304956799998763,1455.953883000002,1455.953883000002,n,0.6262052999991283,1458.3188143000007,1458.3188143000007,26,1.677,,,sub-032,45,80,700,bloc_loop.csv,2023-06-28_17h57.20.465,PainUncertainty,2022.2.5,143.10328050022756,
grave,moderee,stimuli/330Hz,stimuli/moderee,bloc_7,prob80hthp_12trials.xlsx,2,24,80,20,1,,,,,0,6,6,6,0,3,3,3,,,,,,,,3.1,1458.3188143000007,1461.423222700003,1461.4233190200018,0.3050164999986009,1461.8672692,1461.8672692,n,1.213883699998405,1466.3780247000032,1466.3780247000032,26,3.22,,,sub-032,45,80,700,bloc_loop.csv,2023-06-28_17h57.20.465,PainUncertainty,2022.2.5,143.10328050022756,
grave,forte,stimuli/330Hz,stimuli/forte,bloc_7,prob80hthp_12trials.xlsx,2,24,80,20,1,,,,,0,6,6,6,0,4,4,5,,,,,,,,4.6,1466.3780247000032,1470.9800301000032,1470.9798614200033,0.30508479999843985,1471.4238764000002,1471.4238764000002,m,0.6656202999984089,1473.5547965000005,1473.5547965000005,70,1.414,,,sub-032,45,80,700,bloc_loop.csv,2023-06-28_17h57.20.465,PainUncertainty,2022.2.5,143.10328050022756,
aigu,forte,stimuli/660Hz,stimuli/forte,bloc_7,prob80hthp_12trials.xlsx,2,24,80,20,1,,,,,0,6,6,6,0,5,5,6,,,,,,,,3.2,1473.5547965000005,1476.7582980000007,1476.7584131200008,0.3049369999971532,1477.2059503000019,1477.2059503000019,m,0.7106622999963292,1480.4278312000024,1480.4278312000024,81,2.462,,,sub-032,45,80,700,bloc_loop.csv,2023-06-28_17h57.20.465,PainUncertainty,2022.2.5,143.10328050022756,
aigu,forte,stimuli/660Hz,stimuli/forte,bloc_7,prob80hthp_12trials.xlsx,2,24,80,20,1,,,,,0,6,6,6,0,6,6,8,,,,,,,,4.5,1480.4278312000024,1484.9328855000022,1484.9328871200003,0.30548819999967236,1485.3808788000024,1485.3808788000024,m,0.7181960999987496,1488.7094849000023,1488.7094849000023,78,2.537,,,sub-032,45,80,700,bloc_loop.csv,2023-06-28_17h57.20.465,PainUncertainty,2022.2.5,143.10328050022756,
grave,moderee,stimuli/330Hz,stimuli/moderee,bloc_7,prob80hthp_12trials.xlsx,2,24,80,20,1,,,,,0,6,6,6,0,7,7,0,,,,,,,,3,1488.7094849000023,1491.7115027000036,1491.7114804200016,0.30496560000028694,1492.1555853000027,1492.1555853000027,n,0.6587942999976804,1495.3610539000001,1495.3610539000001,25,2.482,,,sub-032,45,80,700,bloc_loop.csv,2023-06-28_17h57.20.465,PainUncertainty,2022.2.5,143.10328050022756,
grave,moderee,stimuli/330Hz,stimuli/moderee,bloc_7,prob80hthp_12trials.xlsx,2,24,80,20,1,,,,,0,6,6,6,0,8,8,2,,,,,,,,4.8,1495.3610539000001,1500.1637842000018,1500.1639051200025,0.3050535000002128,1500.6079020000034,1500.6079020000034,n,0.7347146999964025,1503.1604997000031,1503.1604997000031,26,1.761,,,sub-032,45,80,700,bloc_loop.csv,2023-06-28_17h57.20.465,PainUncertainty,2022.2.5,143.10328050022756,
grave,moderee,stimuli/330Hz,stimuli/moderee,bloc_7,prob80hthp_12trials.xlsx,2,24,80,20,1,,,,,0,6,6,6,0,9,9,1,,,,,,,,3.3,1503.1604997000031,1506.4631535000008,1506.4631965200012,0.3049688999999489,1506.9073164000001,1506.9073164000001,n,0.6190050000004703,1509.5723085000027,1509.5723085000027,21,1.982,,,sub-032,45,80,700,bloc_loop.csv,2023-06-28_17h57.20.465,PainUncertainty,2022.2.5,143.10328050022756,
grave,moderee,stimuli/330Hz,stimuli/moderee,bloc_7,prob80hthp_12trials.xlsx,2,24,80,20,1,,,,,0,6,6,6,0,10,10,4,,,,,,,,3.3,1509.5723085000027,1512.873686400002,1512.873883320003,0.3046775000002526,1513.317826300001,1513.317826300001,n,0.7188000999994983,1515.6619794000035,1515.6619794000035,26,1.553,,,sub-032,45,80,700,bloc_loop.csv,2023-06-28_17h57.20.465,PainUncertainty,2022.2.5,143.10328050022756,
aigu,forte,stimuli/660Hz,stimuli/forte,bloc_7,prob80hthp_12trials.xlsx,2,24,80,20,1,,,,,0,6,6,6,0,11,11,10,,,,,,,,4.2,1515.6619794000035,1519.8680975000025,1519.8678471200026,0.3019026000001759,1520.3122922000002,1520.3122922000002,m,0.7008664999993925,1523.7208740000024,1523.7208740000024,77,2.629,,,sub-032,45,80,700,bloc_loop.csv,2023-06-28_17h57.20.465,PainUncertainty,2022.2.5,143.10328050022756,
grave,moderee,stimuli/330Hz,stimuli/moderee,bloc_7,prob80hthp_12trials.xlsx,2,24,80,20,1,,,,,0,6,6,6,1,0,12,0,,,,,,,,3.5,1523.7208740000024,1527.2226369000018,1527.2227138200021,0.30490909999934956,1527.6706305000007,1527.6706305000007,n,0.647406799998862,1531.5521860000008,1531.5521860000008,35,3.177,,,sub-032,45,80,700,bloc_loop.csv,2023-06-28_17h57.20.465,PainUncertainty,2022.2.5,143.10328050022756,
grave,moderee,stimuli/330Hz,stimuli/moderee,bloc_7,prob80hthp_12trials.xlsx,2,24,80,20,1,,,,,0,6,6,6,1,1,13,4,,,,,,,,4.5,1531.5521860000008,1536.0575826000022,1536.057334920001,0.3051555999991251,1536.5012029000027,1536.5012029000027,n,1.311873699996795,1539.4176692,1539.4176692,32,1.552,,,sub-032,45,80,700,bloc_loop.csv,2023-06-28_17h57.20.465,PainUncertainty,2022.2.5,143.10328050022756,
grave,moderee,stimuli/330Hz,stimuli/moderee,bloc_7,prob80hthp_12trials.xlsx,2,24,80,20,1,,,,,0,6,6,6,1,2,14,3,,,,,,,,3.5,1539.4176692,1542.9190071000012,1542.9190385200006,0.3008552999999665,1543.3647848,1543.3647848,n,1.1476906999960192,1546.1341313000012,1546.1341313000012,31,1.545,,,sub-032,45,80,700,bloc_loop.csv,2023-06-28_17h57.20.465,PainUncertainty,2022.2.5,143.10328050022756,
aigu,forte,stimuli/660Hz,stimuli/forte,bloc_7,prob80hthp_12trials.xlsx,2,24,80,20,1,,,,,0,6,6,6,1,3,15,7,,,,,,,,4.6,1546.1341313000012,1550.7393219000005,1550.7392219199999,0.30525370000032126,1551.1834243000012,1551.1834243000012,m,0.9286845999995421,1554.3643732000019,1554.3643732000019,76,2.198,,,sub-032,45,80,700,bloc_loop.csv,2023-06-28_17h57.20.465,PainUncertainty,2022.2.5,143.10328050022756,
aigu,forte,stimuli/660Hz,stimuli/forte,bloc_7,prob80hthp_12trials.xlsx,2,24,80,20,1,,,,,0,6,6,6,1,4,16,10,,,,,,,,4,1554.3643732000019,1558.3652513000015,1558.3652190200035,0.3054169999995793,1558.8096476000028,1558.8096476000028,m,0.6529232999964734,1562.2479783000017,1562.2479783000017,80,2.72,,,sub-032,45,80,700,bloc_loop.csv,2023-06-28_17h57.20.465,PainUncertainty,2022.2.5,143.10328050022756,
grave,moderee,stimuli/330Hz,stimuli/moderee,bloc_7,prob80hthp_12trials.xlsx,2,24,80,20,1,,,,,0,6,6,6,1,5,17,2,,,,,,,,3.2,1562.2479783000017,1565.4494531000018,1565.4493394200024,0.3052791000009165,1565.8937529000032,1565.8937529000032,n,0.6117485999966448,1568.339589700001,1568.339589700001,29,1.761,,,sub-032,45,80,700,bloc_loop.csv,2023-06-28_17h57.20.465,PainUncertainty,2022.2.5,143.10328050022756,
grave,forte,stimuli/330Hz,stimuli/forte,bloc_7,prob80hthp_12trials.xlsx,2,24,80,20,1,,,,,0,6,6,6,1,6,18,5,,,,,,,,4,1568.339589700001,1572.3390578000035,1572.3391152200008,0.3001640000002226,1572.7840840000026,1572.7840840000026,m,0.8734560999982932,1576.1069622000032,1576.1069622000032,78,2.4,,,sub-032,45,80,700,bloc_loop.csv,2023-06-28_17h57.20.465,PainUncertainty,2022.2.5,143.10328050022756,
aigu,forte,stimuli/660Hz,stimuli/forte,bloc_7,prob80hthp_12trials.xlsx,2,24,80,20,1,,,,,0,6,6,6,1,7,19,8,,,,,,,,3.1,1576.1069622000032,1579.2079466000032,1579.208052320001,0.30081760000030044,1579.6527059,1579.6527059,m,0.7202087999976357,1581.9576011000026,1581.9576011000026,80,1.525,,,sub-032,45,80,700,bloc_loop.csv,2023-06-28_17h57.20.465,PainUncertainty,2022.2.5,143.10328050022756,
aigu,forte,stimuli/660Hz,stimuli/forte,bloc_7,prob80hthp_12trials.xlsx,2,24,80,20,1,,,,,0,6,6,6,1,8,20,9,,,,,,,,3.1,1581.9576011000026,1585.0629031000026,1585.0627531200032,0.3049739000016416,1585.506980000002,1585.506980000002,m,0.7431493000003684,1587.872301200001,1587.872301200001,76,1.566,,,sub-032,45,80,700,bloc_loop.csv,2023-06-28_17h57.20.465,PainUncertainty,2022.2.5,143.10328050022756,
aigu,forte,stimuli/660Hz,stimuli/forte,bloc_7,prob80hthp_12trials.xlsx,2,24,80,20,1,,,,,0,6,6,6,1,9,21,6,,,,,,,,4.4,1587.872301200001,1592.2719856000003,1592.2720283200022,0.30509990000064136,1592.7164524000036,1592.7164524000036,m,0.7954370999977982,1595.4195616000034,1595.4195616000034,77,1.837,,,sub-032,45,80,700,bloc_loop.csv,2023-06-28_17h57.20.465,PainUncertainty,2022.2.5,143.10328050022756,
grave,moderee,stimuli/330Hz,stimuli/moderee,bloc_7,prob80hthp_12trials.xlsx,2,24,80,20,1,,,,,0,6,6,6,1,10,22,1,,,,,,,,3.3,1595.4195616000034,1598.7240548000009,1598.7244173200004,0.30479399999967427,1599.1683650000014,1599.1683650000014,n,0.6950507999972615,1602.5491610000026,1602.5491610000026,29,2.637,,,sub-032,45,80,700,bloc_loop.csv,2023-06-28_17h57.20.465,PainUncertainty,2022.2.5,143.10328050022756,
aigu,moderee,stimuli/660Hz,stimuli/moderee,bloc_7,prob80hthp_12trials.xlsx,2,24,80,20,1,,,,,0,6,6,6,1,11,23,11,,,,,,,,4.8,1602.5491610000026,1607.350484300001,1607.3506208200004,0.3050079000022379,1607.7949788000005,1607.7949788000005,n,0.7181530999987444,1612.4923055000036,1612.4923055000036,26,1.949,,,sub-032,45,80,700,bloc_loop.csv,2023-06-28_17h57.20.465,PainUncertainty,2022.2.5,143.10328050022756,
,,,,bloc_7,prob80hthp_12trials.xlsx,2,24,80,20,1,,,,,0,6,6,6,,,,,0,0,0,0,,,,,,,,,,,,,,,,,1612.4923055000036,1717.3634064000034,sub-032,45,80,700,bloc_loop.csv,2023-06-28_17h57.20.465,PainUncertainty,2022.2.5,143.10328050022756,
aigu,forte,stimuli/660Hz,stimuli/forte,bloc_8,prob50_50_4trials.xlsx,3,12,50,50,0,,,,,0,7,7,7,0,0,0,3,,,,,,,,3.6,1719.6992714000007,1723.3019989000022,1723.3015573200016,0.30526199999803794,1723.7529731000031,1723.7529731000031,m,0.7957725999985996,1726.2197225000018,1726.2197225000018,77,1.609,,,sub-032,45,80,700,bloc_loop.csv,2023-06-28_17h57.20.465,PainUncertainty,2022.2.5,143.10328050022756,
grave,forte,stimuli/330Hz,stimuli/forte,bloc_8,prob50_50_4trials.xlsx,3,12,50,50,0,,,,,0,7,7,7,0,1,1,1,,,,,,,,3.2,1726.2197225000018,1729.4204073,1729.4203324200014,0.3051783999981126,1729.8646466000027,1729.8646466000027,m,0.5634280999984185,1732.0878789000017,1732.0878789000017,74,1.588,,,sub-032,45,80,700,bloc_loop.csv,2023-06-28_17h57.20.465,PainUncertainty,2022.2.5,143.10328050022756,
aigu,moderee,stimuli/660Hz,stimuli/moderee,bloc_8,prob50_50_4trials.xlsx,3,12,50,50,0,,,,,0,7,7,7,0,2,2,2,,,,,,,,4.9,1732.0878789000017,1736.9905836000034,1736.9905890200014,0.3053405999999086,1737.4350012000032,1737.4350012000032,n,1.0846827999957895,1740.4325430000026,1740.4325430000026,36,1.858,,,sub-032,45,80,700,bloc_loop.csv,2023-06-28_17h57.20.465,PainUncertainty,2022.2.5,143.10328050022756,
grave,moderee,stimuli/330Hz,stimuli/moderee,bloc_8,prob50_50_4trials.xlsx,3,12,50,50,0,,,,,0,7,7,7,0,3,3,0,,,,,,,,4.9,1740.4325430000026,1745.3318827000003,1745.3320513200003,0.30507829999987734,1745.7761148000027,1745.7761148000027,n,0.6760146999986318,1747.6595069000032,1747.6595069000032,28,1.143,,,sub-032,45,80,700,bloc_loop.csv,2023-06-28_17h57.20.465,PainUncertainty,2022.2.5,143.10328050022756,
aigu,moderee,stimuli/660Hz,stimuli/moderee,bloc_8,prob50_50_4trials.xlsx,3,12,50,50,0,,,,,0,7,7,7,1,0,4,2,,,,,,,,4.7,1747.6595069000032,1752.3605629000012,1752.3605862200009,0.3050870999977633,1752.8046986000008,1752.8046986000008,n,0.7542081999999937,1755.2198386000018,1755.2198386000018,31,1.594,,,sub-032,45,80,700,bloc_loop.csv,2023-06-28_17h57.20.465,PainUncertainty,2022.2.5,143.10328050022756,
grave,forte,stimuli/330Hz,stimuli/forte,bloc_8,prob50_50_4trials.xlsx,3,12,50,50,0,,,,,0,7,7,7,1,1,5,1,,,,,,,,3.6,1755.2198386000018,1758.8196655000029,1758.819655320002,0.3054718999992474,1759.2666826000022,1759.2666826000022,m,1.0412573999965389,1762.0795928000007,1762.0795928000007,75,1.706,,,sub-032,45,80,700,bloc_loop.csv,2023-06-28_17h57.20.465,PainUncertainty,2022.2.5,143.10328050022756,
aigu,forte,stimuli/660Hz,stimuli/forte,bloc_8,prob50_50_4trials.xlsx,3,12,50,50,0,,,,,0,7,7,7,1,2,6,3,,,,,,,,4.8,1762.0795928000007,1766.8834250000036,1766.8833660200023,0.30496380000113277,1767.327546200002,1767.327546200002,m,1.311993600000278,1769.7851998000006,1769.7851998000006,80,1.073,,,sub-032,45,80,700,bloc_loop.csv,2023-06-28_17h57.20.465,PainUncertainty,2022.2.5,143.10328050022756,
grave,moderee,stimuli/330Hz,stimuli/moderee,bloc_8,prob50_50_4trials.xlsx,3,12,50,50,0,,,,,0,7,7,7,1,3,7,0,,,,,,,,3.3,1769.7851998000006,1773.0853083000002,1773.0853330200032,0.3050351999991108,1773.5331178000015,1773.5331178000015,n,0.6713683999987552,1775.3310375,1775.3310375,29,1.06,,,sub-032,45,80,700,bloc_loop.csv,2023-06-28_17h57.20.465,PainUncertainty,2022.2.5,143.10328050022756,
grave,moderee,stimuli/330Hz,stimuli/moderee,bloc_8,prob50_50_4trials.xlsx,3,12,50,50,0,,,,,0,7,7,7,2,0,8,0,,,,,,,,4.6,1775.3310375,1779.933249900001,1779.9333372200006,0.3049853999982588,1780.3773469000007,1780.3773469000007,n,0.6917362999956822,1783.4205253,1783.4205253,29,2.276,,,sub-032,45,80,700,bloc_loop.csv,2023-06-28_17h57.20.465,PainUncertainty,2022.2.5,143.10328050022756,
grave,forte,stimuli/330Hz,stimuli/forte,bloc_8,prob50_50_4trials.xlsx,3,12,50,50,0,,,,,0,7,7,7,2,1,9,1,,,,,,,,4.2,1783.4205253,1787.6217152000027,1787.6217562200025,0.30532490000041435,1788.0684777000024,1788.0684777000024,m,0.7063337999970827,1791.3340399000008,1791.3340399000008,70,2.504,,,sub-032,45,80,700,bloc_loop.csv,2023-06-28_17h57.20.465,PainUncertainty,2022.2.5,143.10328050022756,
aigu,forte,stimuli/660Hz,stimuli/forte,bloc_8,prob50_50_4trials.xlsx,3,12,50,50,0,,,,,0,7,7,7,2,2,10,3,,,,,,,,5,1791.3340399000008,1796.3379962000035,1796.3380391200033,0.30496100000164006,1796.7821233000031,1796.7821233000031,m,0.8094524999978603,1800.3030155000015,1800.3030155000015,73,2.636,,,sub-032,45,80,700,bloc_loop.csv,2023-06-28_17h57.20.465,PainUncertainty,2022.2.5,143.10328050022756,
aigu,moderee,stimuli/660Hz,stimuli/moderee,bloc_8,prob50_50_4trials.xlsx,3,12,50,50,0,,,,,0,7,7,7,2,3,11,2,,,,,,,,3.6,1800.3030155000015,1803.9101123,1803.9089671200006,0.3046840000024531,1804.3530486000018,1804.3530486000018,n,0.6346183999994537,1806.3940699000013,1806.3940699000013,29,1.33,,,sub-032,45,80,700,bloc_loop.csv,2023-06-28_17h57.20.465,PainUncertainty,2022.2.5,143.10328050022756,
grave,forte,stimuli/330Hz,stimuli/forte,bloc_9,prob20hthp_12trials.xlsx,3,36,80,20,0,,,,,0,8,8,8,0,0,0,0,,,,,,,,4.6,1806.3940699000013,1810.9928959000026,1810.993970420003,0.303964900002029,1811.4403599000034,1811.4403599000034,m,0.7776421999988088,1814.290183600002,1814.290183600002,68,2.011,,,sub-032,45,80,700,bloc_loop.csv,2023-06-28_17h57.20.465,PainUncertainty,2022.2.5,143.10328050022756,
grave,forte,stimuli/330Hz,stimuli/forte,bloc_9,prob20hthp_12trials.xlsx,3,36,80,20,0,,,,,0,8,8,8,0,1,1,4,,,,,,,,3.9,1814.290183600002,1818.194822100002,1818.1949219200021,0.30548320000161766,1818.6430794000007,1818.6430794000007,m,0.5872893999985536,1821.8527127000016,1821.8527127000016,72,2.56,,,sub-032,45,80,700,bloc_loop.csv,2023-06-28_17h57.20.465,PainUncertainty,2022.2.5,143.10328050022756,
grave,forte,stimuli/330Hz,stimuli/forte,bloc_9,prob20hthp_12trials.xlsx,3,36,80,20,0,,,,,0,8,8,8,0,2,2,2,,,,,,,,4,1821.8527127000016,1825.8555629000002,1825.855640620003,0.3050275999994483,1826.3036672000017,1826.3036672000017,m,0.9596723999966343,1830.2929018000032,1830.2929018000032,80,2.962,,,sub-032,45,80,700,bloc_loop.csv,2023-06-28_17h57.20.465,PainUncertainty,2022.2.5,143.10328050022756,
aigu,moderee,stimuli/660Hz,stimuli/moderee,bloc_9,prob20hthp_12trials.xlsx,3,36,80,20,0,,,,,0,8,8,8,0,3,3,8,,,,,,,,4.4,1830.2929018000032,1834.6967225000008,1834.6967113200033,0.30523470000116504,1835.1409976000032,1835.1409976000032,n,0.6702846000007412,1837.3283429000003,1837.3283429000003,26,1.449,,,sub-032,45,80,700,bloc_loop.csv,2023-06-28_17h57.20.465,PainUncertainty,2022.2.5,143.10328050022756,
grave,forte,stimuli/330Hz,stimuli/forte,bloc_9,prob20hthp_12trials.xlsx,3,36,80,20,0,,,,,0,8,8,8,0,4,4,1,,,,,,,,4.9,1837.3283429000003,1842.232772700001,1842.2327727200015,0.30509359999996377,1842.6805909000032,1842.6805909000032,m,0.8629288999982236,1846.615395300003,1846.615395300003,81,3.003,,,sub-032,45,80,700,bloc_loop.csv,2023-06-28_17h57.20.465,PainUncertainty,2022.2.5,143.10328050022756,
aigu,moderee,stimuli/660Hz,stimuli/moderee,bloc_9,prob20hthp_12trials.xlsx,3,36,80,20,0,,,,,0,8,8,8,0,5,5,7,,,,,,,,3.9,1846.615395300003,1850.5180154000009,1850.5180283200013,0.30504609999843524,1850.9621579000013,1850.9621579000013,n,0.714377100001002,1853.2984787000023,1853.2984787000023,31,1.553,,,sub-032,45,80,700,bloc_loop.csv,2023-06-28_17h57.20.465,PainUncertainty,2022.2.5,143.10328050022756,
aigu,forte,stimuli/660Hz,stimuli/forte,bloc_9,prob20hthp_12trials.xlsx,3,36,80,20,0,,,,,0,8,8,8,0,6,6,11,,,,,,,,3.7,1853.2984787000023,1856.9979791000005,1856.9980887200024,0.3050175999997009,1857.4461431000018,1857.4461431000018,m,0.8340279999974882,1859.405267500002,1859.405267500002,76,1.045,,,sub-032,45,80,700,bloc_loop.csv,2023-06-28_17h57.20.465,PainUncertainty,2022.2.5,143.10328050022756,
aigu,moderee,stimuli/660Hz,stimuli/moderee,bloc_9,prob20hthp_12trials.xlsx,3,36,80,20,0,,,,,0,8,8,8,0,7,7,10,,,,,,,,5,1859.405267500002,1864.4086546000035,1864.408645620001,0.300118700000894,1864.8513711000014,1864.8513711000014,n,0.7278319999968517,1867.8300209000008,1867.8300209000008,29,2.197,,,sub-032,45,80,700,bloc_loop.csv,2023-06-28_17h57.20.465,PainUncertainty,2022.2.5,143.10328050022756,
grave,moderee,stimuli/330Hz,stimuli/moderee,bloc_9,prob20hthp_12trials.xlsx,3,36,80,20,0,,,,,0,8,8,8,0,8,8,5,,,,,,,,3.6,1867.8300209000008,1871.4302867000006,1871.4303007200022,0.3052157999991323,1871.8786101000005,1871.8786101000005,n,0.6058491999974649,1873.9380361000003,1873.9380361000003,23,1.387,,,sub-032,45,80,700,bloc_loop.csv,2023-06-28_17h57.20.465,PainUncertainty,2022.2.5,143.10328050022756,
grave,forte,stimuli/330Hz,stimuli/forte,bloc_9,prob20hthp_12trials.xlsx,3,36,80,20,0,,,,,0,8,8,8,0,9,9,3,,,,,,,,3.3,1873.9380361000003,1877.2435387000005,1877.2434741200002,0.3051593000018329,1877.6876465000023,1877.6876465000023,m,0.7325778999984323,1880.7319330000028,1880.7319330000028,80,2.239,,,sub-032,45,80,700,bloc_loop.csv,2023-06-28_17h57.20.465,PainUncertainty,2022.2.5,143.10328050022756,
aigu,moderee,stimuli/660Hz,stimuli/moderee,bloc_9,prob20hthp_12trials.xlsx,3,36,80,20,0,,,,,0,8,8,8,0,10,10,6,,,,,,,,4.1,1880.7319330000028,1884.8346662000004,1884.8348057200008,0.3048802000012074,1885.278764300001,1885.278764300001,n,0.641479399997479,1888.4846958000016,1888.4846958000016,27,2.496,,,sub-032,45,80,700,bloc_loop.csv,2023-06-28_17h57.20.465,PainUncertainty,2022.2.5,143.10328050022756,
aigu,moderee,stimuli/660Hz,stimuli/moderee,bloc_9,prob20hthp_12trials.xlsx,3,36,80,20,0,,,,,0,8,8,8,0,11,11,9,,,,,,,,4.7,1888.4846958000016,1893.1898656000012,1893.189814420001,0.30536470000151894,1893.6340683000017,1893.6340683000017,n,0.6105200999991212,1895.3419540000032,1895.3419540000032,25,1.037,,,sub-032,45,80,700,bloc_loop.csv,2023-06-28_17h57.20.465,PainUncertainty,2022.2.5,143.10328050022756,
aigu,moderee,stimuli/660Hz,stimuli/moderee,bloc_9,prob20hthp_12trials.xlsx,3,36,80,20,0,,,,,0,8,8,8,1,0,12,7,,,,,,,,4.3,1895.3419540000032,1899.6420591000024,1899.6419122200011,0.2991935000027297,1900.0843031000004,1900.0843031000004,n,1.1994804999994813,1902.5372526000028,1902.5372526000028,25,1.177,,,sub-032,45,80,700,bloc_loop.csv,2023-06-28_17h57.20.465,PainUncertainty,2022.2.5,143.10328050022756,
aigu,forte,stimuli/660Hz,stimuli/forte,bloc_9,prob20hthp_12trials.xlsx,3,36,80,20,0,,,,,0,8,8,8,1,1,13,11,,,,,,,,5,1902.5372526000028,1907.5387926000003,1907.5387589200025,0.3050541000011435,1907.9828807000013,1907.9828807000013,m,0.9789968999975827,1910.035195700002,1910.035195700002,73,0.996,,,sub-032,45,80,700,bloc_loop.csv,2023-06-28_17h57.20.465,PainUncertainty,2022.2.5,143.10328050022756,
aigu,moderee,stimuli/660Hz,stimuli/moderee,bloc_9,prob20hthp_12trials.xlsx,3,36,80,20,0,,,,,0,8,8,8,1,2,14,9,,,,,,,,3,1910.035195700002,1913.0401190000011,1913.0399561200018,0.30463740000050166,1913.4835805000002,1913.4835805000002,n,1.1106232999991335,1917.4051061000027,1917.4051061000027,31,2.734,,,sub-032,45,80,700,bloc_loop.csv,2023-06-28_17h57.20.465,PainUncertainty,2022.2.5,143.10328050022756,
grave,forte,stimuli/330Hz,stimuli/forte,bloc_9,prob20hthp_12trials.xlsx,3,36,80,20,0,,,,,0,8,8,8,1,3,15,4,,,,,,,,3.2,1917.4051061000027,1920.6097745000006,1920.6097881200028,0.30521070000031614,1921.0577073000022,1921.0577073000022,m,0.8041679999987537,1923.0939805000016,1923.0939805000016,73,1.178,,,sub-032,45,80,700,bloc_loop.csv,2023-06-28_17h57.20.465,PainUncertainty,2022.2.5,143.10328050022756,
grave,forte,stimuli/330Hz,stimuli/forte,bloc_9,prob20hthp_12trials.xlsx,3,36,80,20,0,,,,,0,8,8,8,1,4,16,1,,,,,,,,4.7,1923.0939805000016,1927.7980591000014,1927.7982631200018,0.30514019999827724,1928.246493300001,1928.246493300001,m,0.5835071000001335,1930.2081817000035,1930.2081817000035,75,1.273,,,sub-032,45,80,700,bloc_loop.csv,2023-06-28_17h57.20.465,PainUncertainty,2022.2.5,143.10328050022756,
grave,forte,stimuli/330Hz,stimuli/forte,bloc_9,prob20hthp_12trials.xlsx,3,36,80,20,0,,,,,0,8,8,8,1,5,17,0,,,,,,,,3.4,1930.2081817000035,1933.6111949000006,1933.611159220002,0.30543720000059693,1934.060564000003,1934.060564000003,m,1.690329400000337,1937.1477756000022,1937.1477756000022,81,1.325,,,sub-032,45,80,700,bloc_loop.csv,2023-06-28_17h57.20.465,PainUncertainty,2022.2.5,143.10328050022756,
aigu,moderee,stimuli/660Hz,stimuli/moderee,bloc_9,prob20hthp_12trials.xlsx,3,36,80,20,0,,,,,0,8,8,8,1,6,18,8,,,,,,,,4.5,1937.1477756000022,1941.6470556000022,1941.6471139200028,0.3049748000012187,1942.0910774000004,1942.0910774000004,n,1.38706749999983,1944.7257408000005,1944.7257408000005,29,1.178,,,sub-032,45,80,700,bloc_loop.csv,2023-06-28_17h57.20.465,PainUncertainty,2022.2.5,143.10328050022756,
grave,forte,stimuli/330Hz,stimuli/forte,bloc_9,prob20hthp_12trials.xlsx,3,36,80,20,0,,,,,0,8,8,8,1,7,19,2,,,,,,,,3.8,1944.7257408000005,1948.5298069000019,1948.5299549200015,0.30473089999941294,1948.973963700002,1948.973963700002,m,0.7666587999956391,1950.7849373000026,1950.7849373000026,80,0.984,,,sub-032,45,80,700,bloc_loop.csv,2023-06-28_17h57.20.465,PainUncertainty,2022.2.5,143.10328050022756,
grave,forte,stimuli/330Hz,stimuli/forte,bloc_9,prob20hthp_12trials.xlsx,3,36,80,20,0,,,,,0,8,8,8,1,8,20,3,,,,,,,,3.3,1950.7849373000026,1954.0860888000025,1954.0862119200017,0.304698299998563,1954.5303131,1954.5303131,m,0.6461952999998175,1957.4838453000011,1957.4838453000011,81,2.241,,,sub-032,45,80,700,bloc_loop.csv,2023-06-28_17h57.20.465,PainUncertainty,2022.2.5,143.10328050022756,
aigu,moderee,stimuli/660Hz,stimuli/moderee,bloc_9,prob20hthp_12trials.xlsx,3,36,80,20,0,,,,,0,8,8,8,1,9,21,10,,,,,,,,3.2,1957.4838453000011,1960.684029600001,1960.684089420002,0.30511119999937364,1961.1284195000007,1961.1284195000007,n,0.6808141999972577,1963.4297092000015,1963.4297092000015,24,1.561,,,sub-032,45,80,700,bloc_loop.csv,2023-06-28_17h57.20.465,PainUncertainty,2022.2.5,143.10328050022756,
aigu,moderee,stimuli/660Hz,stimuli/moderee,bloc_9,prob20hthp_12trials.xlsx,3,36,80,20,0,,,,,0,8,8,8,1,10,22,6,,,,,,,,3.7,1963.4297092000015,1967.1292097000005,1967.1293568200006,0.3050859999966633,1967.5775211,1967.5775211,n,0.667452299996512,1969.4561335000035,1969.4561335000035,32,1.156,,,sub-032,45,80,700,bloc_loop.csv,2023-06-28_17h57.20.465,PainUncertainty,2022.2.5,143.10328050022756,
grave,moderee,stimuli/330Hz,stimuli/moderee,bloc_9,prob20hthp_12trials.xlsx,3,36,80,20,0,,,,,0,8,8,8,1,11,23,5,,,,,,,,3.3,1969.4561335000035,1972.7617310000023,1972.7617578200031,0.3052696999984619,1973.206641300003,1973.206641300003,n,1.0459479999990435,1976.106099800003,1976.106099800003,33,1.804,,,sub-032,45,80,700,bloc_loop.csv,2023-06-28_17h57.20.465,PainUncertainty,2022.2.5,143.10328050022756,
aigu,moderee,stimuli/660Hz,stimuli/moderee,bloc_9,prob20hthp_12trials.xlsx,3,36,80,20,0,,,,,0,8,8,8,2,0,24,10,,,,,,,,3.9,1976.106099800003,1980.0060604000028,1980.0061667200014,0.30171330000302987,1980.450845000003,1980.450845000003,n,0.8786076999967918,1983.6048727000016,1983.6048727000016,32,2.205,,,sub-032,45,80,700,bloc_loop.csv,2023-06-28_17h57.20.465,PainUncertainty,2022.2.5,143.10328050022756,
grave,forte,stimuli/330Hz,stimuli/forte,bloc_9,prob20hthp_12trials.xlsx,3,36,80,20,0,,,,,0,8,8,8,2,1,25,3,,,,,,,,3.6,1983.6048727000016,1987.2084207000007,1987.2083936200022,0.3051209999975981,1987.656276900001,1987.656276900001,m,0.5291687999997521,1991.1504609000003,1991.1504609000003,77,2.899,,,sub-032,45,80,700,bloc_loop.csv,2023-06-28_17h57.20.465,PainUncertainty,2022.2.5,143.10328050022756,
grave,forte,stimuli/330Hz,stimuli/forte,bloc_9,prob20hthp_12trials.xlsx,3,36,80,20,0,,,,,0,8,8,8,2,2,26,2,,,,,,,,3.5,1991.1504609000003,1994.6537167000024,1994.6541228200028,0.304394400001911,1995.0979141000025,1995.0979141000025,m,0.4592507999986992,1996.8253494000019,1996.8253494000019,75,1.199,,,sub-032,45,80,700,bloc_loop.csv,2023-06-28_17h57.20.465,PainUncertainty,2022.2.5,143.10328050022756,
aigu,moderee,stimuli/660Hz,stimuli/moderee,bloc_9,prob20hthp_12trials.xlsx,3,36,80,20,0,,,,,0,8,8,8,2,3,27,8,,,,,,,,4,1996.8253494000019,2000.8277370000033,2000.8277332200003,0.30521739999676356,2001.2723415,2001.2723415,n,0.5749371999954747,2002.899381700001,2002.899381700001,25,1.004,,,sub-032,45,80,700,bloc_loop.csv,2023-06-28_17h57.20.465,PainUncertainty,2022.2.5,143.10328050022756,
aigu,moderee,stimuli/660Hz,stimuli/moderee,bloc_9,prob20hthp_12trials.xlsx,3,36,80,20,0,,,,,0,8,8,8,2,4,28,9,,,,,,,,4.6,2002.899381700001,2007.5020773000033,2007.5021235200027,0.305240199999389,2007.9465345000026,2007.9465345000026,n,0.7947338999983913,2009.7281298000016,2009.7281298000016,30,0.908,,,sub-032,45,80,700,bloc_loop.csv,2023-06-28_17h57.20.465,PainUncertainty,2022.2.5,143.10328050022756,
aigu,forte,stimuli/660Hz,stimuli/forte,bloc_9,prob20hthp_12trials.xlsx,3,36,80,20,0,,,,,0,8,8,8,2,5,29,11,,,,,,,,4.7,2009.7281298000016,2014.4334048000019,2014.4334979200019,0.3049835999991046,2014.8777272000007,2014.8777272000007,m,0.7226801999968302,2017.241232100001,2017.241232100001,74,1.566,,,sub-032,45,80,700,bloc_loop.csv,2023-06-28_17h57.20.465,PainUncertainty,2022.2.5,143.10328050022756,
grave,moderee,stimuli/330Hz,stimuli/moderee,bloc_9,prob20hthp_12trials.xlsx,3,36,80,20,0,,,,,0,8,8,8,2,6,30,5,,,,,,,,4.7,2017.241232100001,2021.941378200001,2021.9415441200024,0.304959000000963,2022.389368600001,2022.389368600001,n,0.7196020999981556,2025.1061384000022,2025.1061384000022,28,1.919,,,sub-032,45,80,700,bloc_loop.csv,2023-06-28_17h57.20.465,PainUncertainty,2022.2.5,143.10328050022756,
grave,forte,stimuli/330Hz,stimuli/forte,bloc_9,prob20hthp_12trials.xlsx,3,36,80,20,0,,,,,0,8,8,8,2,7,31,0,,,,,,,,3.8,2025.1061384000022,2028.9078181000004,2028.9078703200018,0.3047621000005165,2029.3518616000001,2029.3518616000001,m,1.678201299997454,2032.6690899000023,2032.6690899000023,73,1.562,,,sub-032,45,80,700,bloc_loop.csv,2023-06-28_17h57.20.465,PainUncertainty,2022.2.5,143.10328050022756,
aigu,moderee,stimuli/660Hz,stimuli/moderee,bloc_9,prob20hthp_12trials.xlsx,3,36,80,20,0,,,,,0,8,8,8,2,8,32,6,,,,,,,,4.6,2032.6690899000023,2037.2698009000014,2037.2698073200033,0.30015560000174446,2037.714312400003,2037.714312400003,n,0.5376982999987376,2040.9800620000024,2040.9800620000024,26,2.657,,,sub-032,45,80,700,bloc_loop.csv,2023-06-28_17h57.20.465,PainUncertainty,2022.2.5,143.10328050022756,
grave,forte,stimuli/330Hz,stimuli/forte,bloc_9,prob20hthp_12trials.xlsx,3,36,80,20,0,,,,,0,8,8,8,2,9,33,1,,,,,,,,4.9,2040.9800620000024,2045.8821267000021,2045.8821847200004,0.30477909999899566,2046.3304843000005,2046.3304843000005,m,0.8024213999960921,2049.438444200001,2049.438444200001,73,2.218,,,sub-032,45,80,700,bloc_loop.csv,2023-06-28_17h57.20.465,PainUncertainty,2022.2.5,143.10328050022756,
aigu,moderee,stimuli/660Hz,stimuli/moderee,bloc_9,prob20hthp_12trials.xlsx,3,36,80,20,0,,,,,0,8,8,8,2,10,34,7,,,,,,,,3.6,2049.438444200001,2053.042778700001,2053.042756320002,0.3048711000010371,2053.489024100003,2053.489024100003,n,0.4901077999966219,2055.5110311000026,2055.5110311000026,32,1.454,,,sub-032,45,80,700,bloc_loop.csv,2023-06-28_17h57.20.465,PainUncertainty,2022.2.5,143.10328050022756,
grave,forte,stimuli/330Hz,stimuli/forte,bloc_9,prob20hthp_12trials.xlsx,3,36,80,20,0,,,,,0,8,8,8,2,11,35,4,,,,,,,,3.8,2055.5110311000026,2059.3138160000017,2059.3139500200004,0.30498639999859734,2059.758300200003,2059.758300200003,m,0.5672207999959937,2061.202802900003,2061.202802900003,70,0.85,,,sub-032,45,80,700,bloc_loop.csv,2023-06-28_17h57.20.465,PainUncertainty,2022.2.5,143.10328050022756,
