cue_,stimulus_,cue_fichier,stimulus_fichier,block_name,block_trials_file,block_n_reps,block_ntrials,block_prob_highP_highT,block_prob_highP_lowT,block_pause_after,Bloc_essai.thisRepN,Bloc_essai.thisTrialN,Bloc_essai.thisN,Bloc_essai.thisIndex,blocks.thisRepN,blocks.thisTrialN,blocks.thisN,blocks.thisIndex,trials.thisRepN,trials.thisTrialN,trials.thisN,trials.thisIndex,pause_loop.thisRepN,pause_loop.thisTrialN,pause_loop.thisN,pause_loop.thisIndex,key_resp_5.started,start_calib.started,key_resp_2.started,ISI_duration,pause.started,pause.stopped,cue.started,ISI.started,choice_pain.started,Choice.started,choice_pain.keys,choice_pain.rt,main_text.started,confirm_text.started,ratingScale.response,ratingScale.rt,key_resp_3.started,key_resp_6.started,choice_pain.stopped,Choice.stopped,participant,low_ma,high_ma,failsafe_ma,block_file,date,expName,psychopyVersion,frameRate,
aigu,forte,stimuli/660Hz,stimuli/forte,,,,,,,,0,0,0,3,,,,,,,,,,,,,27.788155999999844,204.1034193999999,252.47013300000003,3.5,257.74527509999984,261.2553607,261.2560315600001,0.3063758999999209,261.6988300999999,261.6988300999999,m,1.4629807000001165,267.5404787,267.5404787,41,4.286,,,,,sub-061,45,60,700,bloc_loop.csv,2023-10-25_13h51.26.525,PainUncertainty,2022.2.5,142.37652040319992,
grave,moderee,stimuli/330Hz,stimuli/moderee,,,,,,,,0,1,1,0,,,,,,,,,,,,,,,,3.4,267.5404787,270.944567,270.94460892999996,0.30135249999989355,271.3890162,271.3890162,n,1.132936200000131,275.29418179999993,275.29418179999993,10,2.713,,,,,sub-061,45,60,700,bloc_loop.csv,2023-10-25_13h51.26.525,PainUncertainty,2022.2.5,142.37652040319992,
aigu,moderee,stimuli/660Hz,stimuli/moderee,,,,,,,,0,2,2,2,,,,,,,,,,,,,,,,4.5,275.29418179999993,279.799749,279.79991883,0.3050464999998894,280.24421110000003,280.24421110000003,m,0.6777638000003208,283.1255701,283.1255701,45,2.127,,,,,sub-061,45,60,700,bloc_loop.csv,2023-10-25_13h51.26.525,PainUncertainty,2022.2.5,142.37652040319992,
grave,forte,stimuli/330Hz,stimuli/forte,,,,,,,,0,3,3,1,,,,,,,,,,,,,,,,3.6,283.1255701,286.7314197999999,286.73129023,0.2993842000000768,287.1740055,287.1740055,m,1.185980200000131,289.84119080000005,289.84119080000005,46,1.454,,,,,sub-061,45,60,700,bloc_loop.csv,2023-10-25_13h51.26.525,PainUncertainty,2022.2.5,142.37652040319992,
aigu,moderee,stimuli/660Hz,stimuli/moderee,bloc_1,prob20hthp_12trials.xlsx,4,48,20,80,0,,,,,0,0,0,0,0,0,0,8,,,,,,,,5,331.36153890000014,336.3621543999998,336.3622362299998,0.3048652000002221,336.80656199999976,336.80656199999976,m,0.9326178999999684,340.60082280000006,340.60082280000006,47,2.8,,,,,sub-061,45,60,700,bloc_loop.csv,2023-10-25_13h51.26.525,PainUncertainty,2022.2.5,142.37652040319992,
aigu,moderee,stimuli/660Hz,stimuli/moderee,bloc_1,prob20hthp_12trials.xlsx,4,48,20,80,0,,,,,0,0,0,0,0,1,1,9,,,,,,,,3.6,340.60082280000006,344.2032273,344.20342592999987,0.30506229999991774,344.6477731,344.6477731,m,0.6192573000002994,346.7552857999999,346.7552857999999,45,1.414,,,,,sub-061,45,60,700,bloc_loop.csv,2023-10-25_13h51.26.525,PainUncertainty,2022.2.5,142.37652040319992,
grave,forte,stimuli/330Hz,stimuli/forte,bloc_1,prob20hthp_12trials.xlsx,4,48,20,80,0,,,,,0,0,0,0,0,2,2,4,,,,,,,,3.6,346.7552857999999,350.3571852,350.3572896300002,0.30527440000014394,350.8039091999999,350.8039091999999,m,1.4391961999999694,353.6616346999999,353.6616346999999,54,1.365,,,,,sub-061,45,60,700,bloc_loop.csv,2023-10-25_13h51.26.525,PainUncertainty,2022.2.5,142.37652040319992,
grave,forte,stimuli/330Hz,stimuli/forte,bloc_1,prob20hthp_12trials.xlsx,4,48,20,80,0,,,,,0,0,0,0,0,3,3,2,,,,,,,,3.3,353.6616346999999,356.96172609999985,356.9619044299998,0.30516609999995126,357.40608250000014,357.40608250000014,m,0.6914841000002525,360.1834893,360.1834893,62,2.032,,,,,sub-061,45,60,700,bloc_loop.csv,2023-10-25_13h51.26.525,PainUncertainty,2022.2.5,142.37652040319992,
grave,forte,stimuli/330Hz,stimuli/forte,bloc_1,prob20hthp_12trials.xlsx,4,48,20,80,0,,,,,0,0,0,0,0,4,4,0,,,,,,,,4.9,360.1834893,365.0880622999998,365.08813203,0.3012975000001461,365.53247039999997,365.53247039999997,m,0.5070072000003165,368.89589309999974,368.89589309999974,63,2.809,,,,,sub-061,45,60,700,bloc_loop.csv,2023-10-25_13h51.26.525,PainUncertainty,2022.2.5,142.37652040319992,
grave,forte,stimuli/330Hz,stimuli/forte,bloc_1,prob20hthp_12trials.xlsx,4,48,20,80,0,,,,,0,0,0,0,0,5,5,1,,,,,,,,4.9,368.89589309999974,373.7973874999998,373.79738912999983,0.30527010000014343,374.24491119999993,374.24491119999993,m,0.45974310000019614,377.76894719999973,377.76894719999973,67,3.011,,,,,sub-061,45,60,700,bloc_loop.csv,2023-10-25_13h51.26.525,PainUncertainty,2022.2.5,142.37652040319992,
grave,forte,stimuli/330Hz,stimuli/forte,bloc_1,prob20hthp_12trials.xlsx,4,48,20,80,0,,,,,0,0,0,0,0,6,6,3,,,,,,,,3.3,377.76894719999973,381.06907490000003,381.0691455299998,0.3049424999999246,381.5202605999998,381.5202605999998,m,0.4254959000004419,384.00442399999974,384.00442399999974,68,1.99,,,,,sub-061,45,60,700,bloc_loop.csv,2023-10-25_13h51.26.525,PainUncertainty,2022.2.5,142.37652040319992,
grave,moderee,stimuli/330Hz,stimuli/moderee,bloc_1,prob20hthp_12trials.xlsx,4,48,20,80,0,,,,,0,0,0,0,0,7,7,5,,,,,,,,3.1,384.00442399999974,387.1041601000002,387.1042699300001,0.30565260000003036,387.5533451000001,387.5533451000001,n,1.7986526999998205,391.8221760000001,391.8221760000001,47,2.413,,,,,sub-061,45,60,700,bloc_loop.csv,2023-10-25_13h51.26.525,PainUncertainty,2022.2.5,142.37652040319992,
aigu,moderee,stimuli/660Hz,stimuli/moderee,bloc_1,prob20hthp_12trials.xlsx,4,48,20,80,0,,,,,0,0,0,0,0,8,8,10,,,,,,,,5,391.8221760000001,396.82758620000004,396.82774053,0.3053902999999991,397.2759557999998,397.2759557999998,n,0.8175883000003523,400.3595280999998,400.3595280999998,38,2.199,,,,,sub-061,45,60,700,bloc_loop.csv,2023-10-25_13h51.26.525,PainUncertainty,2022.2.5,142.37652040319992,
aigu,moderee,stimuli/660Hz,stimuli/moderee,bloc_1,prob20hthp_12trials.xlsx,4,48,20,80,0,,,,,0,0,0,0,0,9,9,6,,,,,,,,3.1,400.3595280999998,403.46070439999994,403.46083133,0.3046693999999661,403.9045784,403.9045784,n,1.9992395000003853,408.2716396999999,408.2716396999999,40,2.316,,,,,sub-061,45,60,700,bloc_loop.csv,2023-10-25_13h51.26.525,PainUncertainty,2022.2.5,142.37652040319992,
aigu,moderee,stimuli/660Hz,stimuli/moderee,bloc_1,prob20hthp_12trials.xlsx,4,48,20,80,0,,,,,0,0,0,0,0,10,10,7,,,,,,,,3,408.2716396999999,411.2737447999998,411.27376993000007,0.3052723999999216,411.71825249999983,411.71825249999983,n,0.7791865000003781,414.07627939999975,414.07627939999975,35,1.498,,,,,sub-061,45,60,700,bloc_loop.csv,2023-10-25_13h51.26.525,PainUncertainty,2022.2.5,142.37652040319992,
aigu,forte,stimuli/660Hz,stimuli/forte,bloc_1,prob20hthp_12trials.xlsx,4,48,20,80,0,,,,,0,0,0,0,0,11,11,11,,,,,,,,3,414.07627939999975,417.0799874999998,417.0800435299998,0.3049862999996549,417.5241281999997,417.5241281999997,m,1.248672500000339,420.7906124000001,420.7906124000001,54,1.938,,,,,sub-061,45,60,700,bloc_loop.csv,2023-10-25_13h51.26.525,PainUncertainty,2022.2.5,142.37652040319992,
aigu,moderee,stimuli/660Hz,stimuli/moderee,bloc_1,prob20hthp_12trials.xlsx,4,48,20,80,0,,,,,0,0,0,0,1,0,12,7,,,,,,,,4,420.7906124000001,424.79616739999983,424.7962983299999,0.29962549999982,425.2407462000001,425.2407462000001,n,0.7471770000001925,427.9037864000002,427.9037864000002,23,1.851,,,,,sub-061,45,60,700,bloc_loop.csv,2023-10-25_13h51.26.525,PainUncertainty,2022.2.5,142.37652040319992,
aigu,moderee,stimuli/660Hz,stimuli/moderee,bloc_1,prob20hthp_12trials.xlsx,4,48,20,80,0,,,,,0,0,0,0,1,1,13,8,,,,,,,,4.7,427.9037864000002,432.6033177999998,432.60326553000004,0.3051445999999487,433.04905180000014,433.04905180000014,n,0.6408769999998185,434.93807430000015,434.93807430000015,35,1.178,,,,,sub-061,45,60,700,bloc_loop.csv,2023-10-25_13h51.26.525,PainUncertainty,2022.2.5,142.37652040319992,
grave,forte,stimuli/330Hz,stimuli/forte,bloc_1,prob20hthp_12trials.xlsx,4,48,20,80,0,,,,,0,0,0,0,1,2,14,2,,,,,,,,3.8,434.93807430000015,438.742303,438.74227453000003,0.3051876999998058,439.18649589999995,439.18649589999995,m,0.5718120999999883,441.31647459999976,441.31647459999976,72,1.504,,,,,sub-061,45,60,700,bloc_loop.csv,2023-10-25_13h51.26.525,PainUncertainty,2022.2.5,142.37652040319992,
aigu,forte,stimuli/660Hz,stimuli/forte,bloc_1,prob20hthp_12trials.xlsx,4,48,20,80,0,,,,,0,0,0,0,1,3,15,11,,,,,,,,3.6,441.31647459999976,444.91667389999975,444.91680012999996,0.30490569999983563,445.3607895,445.3607895,n,0.9295897000001787,448.0647773999999,448.0647773999999,50,1.699,,,,,sub-061,45,60,700,bloc_loop.csv,2023-10-25_13h51.26.525,PainUncertainty,2022.2.5,142.37652040319992,
grave,moderee,stimuli/330Hz,stimuli/moderee,bloc_1,prob20hthp_12trials.xlsx,4,48,20,80,0,,,,,0,0,0,0,1,4,16,5,,,,,,,,3.3,448.0647773999999,451.3687915999999,451.36892463000004,0.30519249999997555,451.8177126999999,451.8177126999999,n,1.9452828000003137,455.19351670000015,455.19351670000015,50,1.38,,,,,sub-061,45,60,700,bloc_loop.csv,2023-10-25_13h51.26.525,PainUncertainty,2022.2.5,142.37652040319992,
aigu,moderee,stimuli/660Hz,stimuli/moderee,bloc_1,prob20hthp_12trials.xlsx,4,48,20,80,0,,,,,0,0,0,0,1,5,17,6,,,,,,,,4.1,455.19351670000015,459.2937102000001,459.29367803000014,0.30495520000022225,459.73773600000004,459.73773600000004,n,1.4986834000001181,463.49088200000006,463.49088200000006,30,2.205,,,,,sub-061,45,60,700,bloc_loop.csv,2023-10-25_13h51.26.525,PainUncertainty,2022.2.5,142.37652040319992,
aigu,moderee,stimuli/660Hz,stimuli/moderee,bloc_1,prob20hthp_12trials.xlsx,4,48,20,80,0,,,,,0,0,0,0,1,6,18,10,,,,,,,,3.8,463.49088200000006,467.2942300999998,467.29430362999983,0.30510529999992286,467.7385116999999,467.7385116999999,n,0.6877195000001848,471.0536277000001,471.0536277000001,31,2.555,,,,,sub-061,45,60,700,bloc_loop.csv,2023-10-25_13h51.26.525,PainUncertainty,2022.2.5,142.37652040319992,
grave,forte,stimuli/330Hz,stimuli/forte,bloc_1,prob20hthp_12trials.xlsx,4,48,20,80,0,,,,,0,0,0,0,1,7,19,1,,,,,,,,4.3,471.0536277000001,475.35767769999984,475.3577328299998,0.30502819999992425,475.8018879000001,475.8018879000001,m,0.6300675000002229,477.4804297999999,477.4804297999999,66,0.989,,,,,sub-061,45,60,700,bloc_loop.csv,2023-10-25_13h51.26.525,PainUncertainty,2022.2.5,142.37652040319992,
grave,forte,stimuli/330Hz,stimuli/forte,bloc_1,prob20hthp_12trials.xlsx,4,48,20,80,0,,,,,0,0,0,0,1,8,20,3,,,,,,,,3.8,477.4804297999999,481.2853482999999,481.28241303000004,0.30514739999989615,481.72968709999986,481.72968709999986,m,0.8051303000002008,484.96268199999986,484.96268199999986,61,2.344,,,,,sub-061,45,60,700,bloc_loop.csv,2023-10-25_13h51.26.525,PainUncertainty,2022.2.5,142.37652040319992,
aigu,moderee,stimuli/660Hz,stimuli/moderee,bloc_1,prob20hthp_12trials.xlsx,4,48,20,80,0,,,,,0,0,0,0,1,9,21,9,,,,,,,,4.6,484.96268199999986,489.5680143999998,489.56838402999983,0.30118890000039755,490.01238539999986,490.01238539999986,n,0.6637190999999802,491.6290448,491.6290448,31,0.88,,,,,sub-061,45,60,700,bloc_loop.csv,2023-10-25_13h51.26.525,PainUncertainty,2022.2.5,142.37652040319992,
grave,forte,stimuli/330Hz,stimuli/forte,bloc_1,prob20hthp_12trials.xlsx,4,48,20,80,0,,,,,0,0,0,0,1,10,22,4,,,,,,,,5,491.6290448,496.63139539999975,496.63168412999994,0.3046853999999257,497.0751614999999,497.0751614999999,m,0.7333223999999063,499.4452218000001,499.4452218000001,64,1.579,,,,,sub-061,45,60,700,bloc_loop.csv,2023-10-25_13h51.26.525,PainUncertainty,2022.2.5,142.37652040319992,
grave,forte,stimuli/330Hz,stimuli/forte,bloc_1,prob20hthp_12trials.xlsx,4,48,20,80,0,,,,,0,0,0,0,1,11,23,0,,,,,,,,5,499.4452218000001,504.44447949999994,504.4445039299999,0.30518739999979516,504.8886643000001,504.8886643000001,m,0.4992232000004151,506.3837567999999,506.3837567999999,67,0.933,,,,,sub-061,45,60,700,bloc_loop.csv,2023-10-25_13h51.26.525,PainUncertainty,2022.2.5,142.37652040319992,
grave,forte,stimuli/330Hz,stimuli/forte,bloc_1,prob20hthp_12trials.xlsx,4,48,20,80,0,,,,,0,0,0,0,2,0,24,4,,,,,,,,4.6,506.3837567999999,510.9868867,510.98702563000006,0.30542749999995067,511.4351223999997,511.4351223999997,m,0.5448764000002484,513.0982390999998,513.0982390999998,69,1.059,,,,,sub-061,45,60,700,bloc_loop.csv,2023-10-25_13h51.26.525,PainUncertainty,2022.2.5,142.37652040319992,
grave,forte,stimuli/330Hz,stimuli/forte,bloc_1,prob20hthp_12trials.xlsx,4,48,20,80,0,,,,,0,0,0,0,2,1,25,3,,,,,,,,5,513.0982390999998,518.0992866000001,518.09942993,0.30467440000029455,518.5433687999998,518.5433687999998,m,0.5651925000001938,519.9738109,519.9738109,60,0.81,,,,,sub-061,45,60,700,bloc_loop.csv,2023-10-25_13h51.26.525,PainUncertainty,2022.2.5,142.37652040319992,
grave,forte,stimuli/330Hz,stimuli/forte,bloc_1,prob20hthp_12trials.xlsx,4,48,20,80,0,,,,,0,0,0,0,2,2,26,1,,,,,,,,3,519.9738109,522.9755606999997,522.9749915299999,0.30505730000004405,523.4224251999999,523.4224251999999,m,0.38119659999983924,524.5289515999998,524.5289515999998,70,0.663,,,,,sub-061,45,60,700,bloc_loop.csv,2023-10-25_13h51.26.525,PainUncertainty,2022.2.5,142.37652040319992,
grave,forte,stimuli/330Hz,stimuli/forte,bloc_1,prob20hthp_12trials.xlsx,4,48,20,80,0,,,,,0,0,0,0,2,3,27,2,,,,,,,,3.4,524.5289515999998,527.9334814999997,527.93349803,0.30513180000025386,528.3817005999999,528.3817005999999,m,0.6470836000003146,532.7965748000001,532.7965748000001,64,3.691,,,,,sub-061,45,60,700,bloc_loop.csv,2023-10-25_13h51.26.525,PainUncertainty,2022.2.5,142.37652040319992,
aigu,moderee,stimuli/660Hz,stimuli/moderee,bloc_1,prob20hthp_12trials.xlsx,4,48,20,80,0,,,,,0,0,0,0,2,4,28,9,,,,,,,,4,532.7965748000001,536.7956049,536.79603843,0.30491910000000644,537.2436600999999,537.2436600999999,n,0.5411335999997391,539.6678824999999,539.6678824999999,32,1.829,,,,,sub-061,45,60,700,bloc_loop.csv,2023-10-25_13h51.26.525,PainUncertainty,2022.2.5,142.37652040319992,
aigu,moderee,stimuli/660Hz,stimuli/moderee,bloc_1,prob20hthp_12trials.xlsx,4,48,20,80,0,,,,,0,0,0,0,2,5,29,7,,,,,,,,4.9,539.6678824999999,544.5673201999998,544.5673498299998,0.30519079999976384,545.0117126999999,545.0117126999999,n,0.5397940000002563,546.4799951999998,546.4799951999998,27,0.825,,,,,sub-061,45,60,700,bloc_loop.csv,2023-10-25_13h51.26.525,PainUncertainty,2022.2.5,142.37652040319992,
aigu,moderee,stimuli/660Hz,stimuli/moderee,bloc_1,prob20hthp_12trials.xlsx,4,48,20,80,0,,,,,0,0,0,0,2,6,30,10,,,,,,,,4.6,546.4799951999998,551.0819606999999,551.0820523299999,0.30514129999983197,551.5261471999997,551.5261471999997,n,1.2064473999998881,555.5912620999998,555.5912620999998,25,2.802,,,,,sub-061,45,60,700,bloc_loop.csv,2023-10-25_13h51.26.525,PainUncertainty,2022.2.5,142.37652040319992,
grave,moderee,stimuli/330Hz,stimuli/moderee,bloc_1,prob20hthp_12trials.xlsx,4,48,20,80,0,,,,,0,0,0,0,2,7,31,5,,,,,,,,4.4,555.5912620999998,559.9926427,559.9927834300001,0.30509589999974196,560.4369728000001,560.4369728000001,m,0.8820619000002807,563.6184103,563.6184103,49,2.218,,,,,sub-061,45,60,700,bloc_loop.csv,2023-10-25_13h51.26.525,PainUncertainty,2022.2.5,142.37652040319992,
aigu,forte,stimuli/660Hz,stimuli/forte,bloc_1,prob20hthp_12trials.xlsx,4,48,20,80,0,,,,,0,0,0,0,2,8,32,11,,,,,,,,4.5,563.6184103,568.1199916,568.1192552299999,0.3012808999997105,568.5633591999999,568.5633591999999,n,0.6447256000001289,571.7860084999998,571.7860084999998,33,2.505,,,,,sub-061,45,60,700,bloc_loop.csv,2023-10-25_13h51.26.525,PainUncertainty,2022.2.5,142.37652040319992,
aigu,moderee,stimuli/660Hz,stimuli/moderee,bloc_1,prob20hthp_12trials.xlsx,4,48,20,80,0,,,,,0,0,0,0,2,9,33,8,,,,,,,,5,571.7860084999998,576.7864836999997,576.7866718300002,0.3048596999997244,577.2305996,577.2305996,n,1.9739986000004137,581.3960010999999,581.3960010999999,39,2.115,,,,,sub-061,45,60,700,bloc_loop.csv,2023-10-25_13h51.26.525,PainUncertainty,2022.2.5,142.37652040319992,
grave,forte,stimuli/330Hz,stimuli/forte,bloc_1,prob20hthp_12trials.xlsx,4,48,20,80,0,,,,,0,0,0,0,2,10,34,0,,,,,,,,4.4,581.3960010999999,585.8012949999998,585.80140433,0.30516709999983505,586.2455531999999,586.2455531999999,m,0.8324083000002247,589.0374738,589.0374738,68,1.879,,,,,sub-061,45,60,700,bloc_loop.csv,2023-10-25_13h51.26.525,PainUncertainty,2022.2.5,142.37652040319992,
aigu,moderee,stimuli/660Hz,stimuli/moderee,bloc_1,prob20hthp_12trials.xlsx,4,48,20,80,0,,,,,0,0,0,0,2,11,35,6,,,,,,,,4.5,589.0374738,593.5384048000001,593.53861413,0.30466900000010355,593.9846237000002,593.9846237000002,n,0.713147299999946,595.9121845,595.9121845,25,1.142,,,,,sub-061,45,60,700,bloc_loop.csv,2023-10-25_13h51.26.525,PainUncertainty,2022.2.5,142.37652040319992,
aigu,forte,stimuli/660Hz,stimuli/forte,bloc_1,prob20hthp_12trials.xlsx,4,48,20,80,0,,,,,0,0,0,0,3,0,36,11,,,,,,,,4.9,595.9121845,600.8171192,600.81717643,0.305305099999714,601.2650757000001,601.2650757000001,m,0.826867100000527,605.6146300999999,605.6146300999999,67,3.462,,,,,sub-061,45,60,700,bloc_loop.csv,2023-10-25_13h51.26.525,PainUncertainty,2022.2.5,142.37652040319992,
grave,forte,stimuli/330Hz,stimuli/forte,bloc_1,prob20hthp_12trials.xlsx,4,48,20,80,0,,,,,0,0,0,0,3,1,37,4,,,,,,,,3.6,605.6146300999999,609.2137659,609.2139302300002,0.305209399999967,609.6580700999998,609.6580700999998,m,0.7224911000002976,613.6902028,613.6902028,69,3.238,,,,,sub-061,45,60,700,bloc_loop.csv,2023-10-25_13h51.26.525,PainUncertainty,2022.2.5,142.37652040319992,
grave,moderee,stimuli/330Hz,stimuli/moderee,bloc_1,prob20hthp_12trials.xlsx,4,48,20,80,0,,,,,0,0,0,0,3,2,38,5,,,,,,,,4.5,613.6902028,618.1943253999998,618.1945369300001,0.3048100999999406,618.6384914,618.6384914,n,0.8170543999999609,621.1696496999998,621.1696496999998,26,1.663,,,,,sub-061,45,60,700,bloc_loop.csv,2023-10-25_13h51.26.525,PainUncertainty,2022.2.5,142.37652040319992,
aigu,moderee,stimuli/660Hz,stimuli/moderee,bloc_1,prob20hthp_12trials.xlsx,4,48,20,80,0,,,,,0,0,0,0,3,3,39,7,,,,,,,,3.7,621.1696496999998,624.8684988,624.86870813,0.3007236000003104,625.3144508999999,625.3144508999999,n,0.8383131000000503,627.4528762999998,627.4528762999998,33,1.232,,,,,sub-061,45,60,700,bloc_loop.csv,2023-10-25_13h51.26.525,PainUncertainty,2022.2.5,142.37652040319992,
grave,forte,stimuli/330Hz,stimuli/forte,bloc_1,prob20hthp_12trials.xlsx,4,48,20,80,0,,,,,0,0,0,0,3,4,40,3,,,,,,,,3.7,627.4528762999998,631.1539222000001,631.15397523,0.30494309999994584,631.5983031999999,631.5983031999999,m,0.555227300000297,634.1670373000002,634.1670373000002,66,1.947,,,,,sub-061,45,60,700,bloc_loop.csv,2023-10-25_13h51.26.525,PainUncertainty,2022.2.5,142.37652040319992,
aigu,moderee,stimuli/660Hz,stimuli/moderee,bloc_1,prob20hthp_12trials.xlsx,4,48,20,80,0,,,,,0,0,0,0,3,5,41,9,,,,,,,,3.7,634.1670373000002,637.8701293999998,637.8702056299999,0.30505630000016026,638.3141623000001,638.3141623000001,n,0.8918114000002788,641.6488952,641.6488952,32,2.386,,,,,sub-061,45,60,700,bloc_loop.csv,2023-10-25_13h51.26.525,PainUncertainty,2022.2.5,142.37652040319992,
aigu,moderee,stimuli/660Hz,stimuli/moderee,bloc_1,prob20hthp_12trials.xlsx,4,48,20,80,0,,,,,0,0,0,0,3,6,42,6,,,,,,,,3.4,641.6488952,645.0513735999998,645.05149063,0.3052936999997655,645.4979048,645.4979048,n,0.8202386000002662,648.8604150000001,648.8604150000001,32,2.484,,,,,sub-061,45,60,700,bloc_loop.csv,2023-10-25_13h51.26.525,PainUncertainty,2022.2.5,142.37652040319992,
aigu,moderee,stimuli/660Hz,stimuli/moderee,bloc_1,prob20hthp_12trials.xlsx,4,48,20,80,0,,,,,0,0,0,0,3,7,43,8,,,,,,,,3.2,648.8604150000001,652.0593829999998,652.0594336300001,0.30498390000002473,652.5035929000001,652.5035929000001,n,0.6098983000001681,654.6159552999998,654.6159552999998,28,1.434,,,,,sub-061,45,60,700,bloc_loop.csv,2023-10-25_13h51.26.525,PainUncertainty,2022.2.5,142.37652040319992,
grave,forte,stimuli/330Hz,stimuli/forte,bloc_1,prob20hthp_12trials.xlsx,4,48,20,80,0,,,,,0,0,0,0,3,8,44,1,,,,,,,,3.1,654.6159552999998,657.7196797000001,657.7198082300001,0.30479250000007596,658.1639036000001,658.1639036000001,m,0.5748405000003913,660.0179745,660.0179745,78,1.224,,,,,sub-061,45,60,700,bloc_loop.csv,2023-10-25_13h51.26.525,PainUncertainty,2022.2.5,142.37652040319992,
grave,forte,stimuli/330Hz,stimuli/forte,bloc_1,prob20hthp_12trials.xlsx,4,48,20,80,0,,,,,0,0,0,0,3,9,45,2,,,,,,,,3,660.0179745,663.0195481999999,663.0196073299999,0.300322099999903,663.4637576,663.4637576,m,0.46699000000035085,666.5243339999997,666.5243339999997,75,2.532,,,,,sub-061,45,60,700,bloc_loop.csv,2023-10-25_13h51.26.525,PainUncertainty,2022.2.5,142.37652040319992,
grave,forte,stimuli/330Hz,stimuli/forte,bloc_1,prob20hthp_12trials.xlsx,4,48,20,80,0,,,,,0,0,0,0,3,10,46,0,,,,,,,,4.5,666.5243339999997,671.0270338,671.02722993,0.30580220000001646,671.4745800000001,671.4745800000001,m,0.5052856000002066,673.2085177999998,673.2085177999998,80,1.147,,,,,sub-061,45,60,700,bloc_loop.csv,2023-10-25_13h51.26.525,PainUncertainty,2022.2.5,142.37652040319992,
aigu,moderee,stimuli/660Hz,stimuli/moderee,bloc_1,prob20hthp_12trials.xlsx,4,48,20,80,0,,,,,0,0,0,0,3,11,47,10,,,,,,,,3.3,673.2085177999998,676.5136926,676.5137648300001,0.30530899999985195,676.9603272999998,676.9603272999998,n,0.47652719999996407,679.3308668999998,679.3308668999998,19,1.837,,,,,sub-061,45,60,700,bloc_loop.csv,2023-10-25_13h51.26.525,PainUncertainty,2022.2.5,142.37652040319992,
aigu,moderee,stimuli/660Hz,stimuli/moderee,bloc_2,prob50_50_4trials.xlsx,2,8,50,50,1,,,,,0,1,1,1,0,0,0,2,,,,,,,,4.3,679.3308668999998,683.6324613000002,683.63246863,0.3054031000001487,684.0804791999999,684.0804791999999,n,0.4138244000000668,685.4234109999998,685.4234109999998,23,0.844,,,,,sub-061,45,60,700,bloc_loop.csv,2023-10-25_13h51.26.525,PainUncertainty,2022.2.5,142.37652040319992,
grave,forte,stimuli/330Hz,stimuli/forte,bloc_2,prob50_50_4trials.xlsx,2,8,50,50,1,,,,,0,1,1,1,0,1,1,1,,,,,,,,3.8,685.4234109999998,689.2234039999998,689.2234383300001,0.305038500000137,689.6677602,689.6677602,m,2.23567120000007,694.7436131999998,694.7436131999998,56,2.762,,,,,sub-061,45,60,700,bloc_loop.csv,2023-10-25_13h51.26.525,PainUncertainty,2022.2.5,142.37652040319992,
grave,moderee,stimuli/330Hz,stimuli/moderee,bloc_2,prob50_50_4trials.xlsx,2,8,50,50,1,,,,,0,1,1,1,0,2,2,0,,,,,,,,4.6,694.7436131999998,699.3426623999999,699.3428465299999,0.30510499999991225,699.7894035999998,699.7894035999998,n,1.6165599000000839,702.8973338999999,702.8973338999999,24,1.406,,,,,sub-061,45,60,700,bloc_loop.csv,2023-10-25_13h51.26.525,PainUncertainty,2022.2.5,142.37652040319992,
aigu,forte,stimuli/660Hz,stimuli/forte,bloc_2,prob50_50_4trials.xlsx,2,8,50,50,1,,,,,0,1,1,1,0,3,3,3,,,,,,,,3.3,702.8973338999999,706.1977216999999,706.1977207300001,0.30494309999994584,706.6463030999998,706.6463030999998,m,1.0467230000003838,709.3248874999999,709.3248874999999,75,1.546,,,,,sub-061,45,60,700,bloc_loop.csv,2023-10-25_13h51.26.525,PainUncertainty,2022.2.5,142.37652040319992,
grave,moderee,stimuli/330Hz,stimuli/moderee,bloc_2,prob50_50_4trials.xlsx,2,8,50,50,1,,,,,0,1,1,1,1,0,4,0,,,,,,,,3,709.3248874999999,712.3302239999998,712.3304333299998,0.3049799999998868,712.7745137000002,712.7745137000002,n,0.909443900000042,716.0840604999999,716.0840604999999,22,2.343,,,,,sub-061,45,60,700,bloc_loop.csv,2023-10-25_13h51.26.525,PainUncertainty,2022.2.5,142.37652040319992,
aigu,moderee,stimuli/660Hz,stimuli/moderee,bloc_2,prob50_50_4trials.xlsx,2,8,50,50,1,,,,,0,1,1,1,1,1,5,2,,,,,,,,3.2,716.0840604999999,719.2893945999999,719.28963273,0.3049631000003501,719.7338423000001,719.7338423000001,n,0.7946783000002142,723.7437144,723.7437144,17,3.137,,,,,sub-061,45,60,700,bloc_loop.csv,2023-10-25_13h51.26.525,PainUncertainty,2022.2.5,142.37652040319992,
grave,forte,stimuli/330Hz,stimuli/forte,bloc_2,prob50_50_4trials.xlsx,2,8,50,50,1,,,,,0,1,1,1,1,2,6,1,,,,,,,,4.2,723.7437144,727.9431985000001,727.9433147300001,0.30504149999978836,728.3876225999998,728.3876225999998,m,0.7139341000001878,731.3846138999997,731.3846138999997,77,2.218,,,,,sub-061,45,60,700,bloc_loop.csv,2023-10-25_13h51.26.525,PainUncertainty,2022.2.5,142.37652040319992,
aigu,forte,stimuli/660Hz,stimuli/forte,bloc_2,prob50_50_4trials.xlsx,2,8,50,50,1,,,,,0,1,1,1,1,3,7,3,,,,,,,,3.9,731.3846138999997,735.2844098,735.2845477300002,0.3049818999998024,735.7288411,735.7288411,m,0.7061894000003122,739.2184518999998,739.2184518999998,80,0.754,,,,,sub-061,45,60,700,bloc_loop.csv,2023-10-25_13h51.26.525,PainUncertainty,2022.2.5,142.37652040319992,
,,,,bloc_2,prob50_50_4trials.xlsx,2,8,50,50,1,,,,,0,1,1,1,,,,,0,0,0,0,,,,,,,,,,,,,,,,,739.2184518999998,767.4756324,,,sub-061,45,60,700,bloc_loop.csv,2023-10-25_13h51.26.525,PainUncertainty,2022.2.5,142.37652040319992,
grave,moderee,stimuli/330Hz,stimuli/moderee,bloc_3,prob80hthp_12trials.xlsx,2,24,80,20,0,,,,,0,2,2,2,0,0,0,1,,,,,,,,3.6,768.7957716999999,772.3998713999999,772.3999712300001,0.30490789999976187,772.8440185999998,772.8440185999998,n,0.8082616000001508,776.8525559999998,776.8525559999998,21,3.113,,,,,sub-061,45,60,700,bloc_loop.csv,2023-10-25_13h51.26.525,PainUncertainty,2022.2.5,142.37652040319992,
aigu,forte,stimuli/660Hz,stimuli/forte,bloc_3,prob80hthp_12trials.xlsx,2,24,80,20,0,,,,,0,2,2,2,0,1,1,9,,,,,,,,3.9,776.8525559999998,780.7550646999998,780.7550986299998,0.3050418999996509,781.2033538000001,781.2033538000001,m,0.5098948999998356,783.0232511999998,783.0232511999998,76,1.24,,,,,sub-061,45,60,700,bloc_loop.csv,2023-10-25_13h51.26.525,PainUncertainty,2022.2.5,142.37652040319992,
grave,moderee,stimuli/330Hz,stimuli/moderee,bloc_3,prob80hthp_12trials.xlsx,2,24,80,20,0,,,,,0,2,2,2,0,2,2,0,,,,,,,,3.9,783.0232511999998,786.9224528,786.92241853,0.30555550000008225,787.3705113000001,787.3705113000001,n,0.5814897000000201,789.4327459000001,789.4327459000001,21,1.427,,,,,sub-061,45,60,700,bloc_loop.csv,2023-10-25_13h51.26.525,PainUncertainty,2022.2.5,142.37652040319992,
grave,moderee,stimuli/330Hz,stimuli/moderee,bloc_3,prob80hthp_12trials.xlsx,2,24,80,20,0,,,,,0,2,2,2,0,3,3,4,,,,,,,,3.1,789.4327459000001,792.5341036,792.5343904299998,0.30502530000012484,792.9783438,792.9783438,n,0.8170178000000305,796.5946352999999,796.5946352999999,22,2.747,,,,,sub-061,45,60,700,bloc_loop.csv,2023-10-25_13h51.26.525,PainUncertainty,2022.2.5,142.37652040319992,
grave,moderee,stimuli/330Hz,stimuli/moderee,bloc_3,prob80hthp_12trials.xlsx,2,24,80,20,0,,,,,0,2,2,2,0,4,4,2,,,,,,,,4.9,796.5946352999999,801.4936127999999,801.49370133,0.30512799999996787,801.9377233,801.9377233,n,0.6617582000003495,803.4391732999998,803.4391732999998,26,0.773,,,,,sub-061,45,60,700,bloc_loop.csv,2023-10-25_13h51.26.525,PainUncertainty,2022.2.5,142.37652040319992,
grave,moderee,stimuli/330Hz,stimuli/moderee,bloc_3,prob80hthp_12trials.xlsx,2,24,80,20,0,,,,,0,2,2,2,0,5,5,3,,,,,,,,3.3,803.4391732999998,806.7445432999998,806.74472393,0.3047977000001083,807.1882882999998,807.1882882999998,n,0.5187989000000925,811.4166093999997,811.4166093999997,15,3.636,,,,,sub-061,45,60,700,bloc_loop.csv,2023-10-25_13h51.26.525,PainUncertainty,2022.2.5,142.37652040319992,
aigu,forte,stimuli/660Hz,stimuli/forte,bloc_3,prob80hthp_12trials.xlsx,2,24,80,20,0,,,,,0,2,2,2,0,6,6,7,,,,,,,,3.9,811.4166093999997,815.3216511999999,815.3217977300001,0.3049938000003749,815.7658302999998,815.7658302999998,m,0.5898987000000488,818.2408811999999,818.2408811999999,73,1.83,,,,,sub-061,45,60,700,bloc_loop.csv,2023-10-25_13h51.26.525,PainUncertainty,2022.2.5,142.37652040319992,
aigu,forte,stimuli/660Hz,stimuli/forte,bloc_3,prob80hthp_12trials.xlsx,2,24,80,20,0,,,,,0,2,2,2,0,7,7,10,,,,,,,,4.9,818.2408811999999,823.1424416999998,823.1426892300001,0.30507149999994,823.5913403999998,823.5913403999998,m,0.4749759000001177,825.3556046999997,825.3556046999997,74,1.233,,,,,sub-061,45,60,700,bloc_loop.csv,2023-10-25_13h51.26.525,PainUncertainty,2022.2.5,142.37652040319992,
aigu,forte,stimuli/660Hz,stimuli/forte,bloc_3,prob80hthp_12trials.xlsx,2,24,80,20,0,,,,,0,2,2,2,0,8,8,8,,,,,,,,4,825.3556046999997,829.3579691999998,829.3579957299999,0.3050668000000769,829.8041807,829.8041807,m,0.4619550000002164,832.7743993999998,832.7743993999998,70,2.449,,,,,sub-061,45,60,700,bloc_loop.csv,2023-10-25_13h51.26.525,PainUncertainty,2022.2.5,142.37652040319992,
aigu,forte,stimuli/660Hz,stimuli/forte,bloc_3,prob80hthp_12trials.xlsx,2,24,80,20,0,,,,,0,2,2,2,0,9,9,6,,,,,,,,4,832.7743993999998,836.7758064,836.7759773299999,0.30476020000014614,837.2197577000002,837.2197577000002,m,0.43713560000014695,839.2008765,839.2008765,75,1.489,,,,,sub-061,45,60,700,bloc_loop.csv,2023-10-25_13h51.26.525,PainUncertainty,2022.2.5,142.37652040319992,
grave,forte,stimuli/330Hz,stimuli/forte,bloc_3,prob80hthp_12trials.xlsx,2,24,80,20,0,,,,,0,2,2,2,0,10,10,5,,,,,,,,3.6,839.2008765,842.8039604,842.8040812300001,0.3050850000004175,843.2482212,843.2482212,m,0.712203099999897,845.6592802999999,845.6592802999999,62,1.629,,,,,sub-061,45,60,700,bloc_loop.csv,2023-10-25_13h51.26.525,PainUncertainty,2022.2.5,142.37652040319992,
aigu,moderee,stimuli/660Hz,stimuli/moderee,bloc_3,prob80hthp_12trials.xlsx,2,24,80,20,0,,,,,0,2,2,2,0,11,11,11,,,,,,,,4.5,845.6592802999999,850.1590904999998,850.1591713299999,0.30492170000025,850.6035013999999,850.6035013999999,n,0.6701550000002499,853.2067299999999,853.2067299999999,23,1.851,,,,,sub-061,45,60,700,bloc_loop.csv,2023-10-25_13h51.26.525,PainUncertainty,2022.2.5,142.37652040319992,
aigu,forte,stimuli/660Hz,stimuli/forte,bloc_3,prob80hthp_12trials.xlsx,2,24,80,20,0,,,,,0,2,2,2,1,0,12,8,,,,,,,,4,853.2067299999999,857.2086095999998,857.2092271299998,0.3012991000000511,857.6535639999997,857.6535639999997,m,0.6941617000002225,860.3033249,860.3033249,63,1.891,,,,,sub-061,45,60,700,bloc_loop.csv,2023-10-25_13h51.26.525,PainUncertainty,2022.2.5,142.37652040319992,
grave,forte,stimuli/330Hz,stimuli/forte,bloc_3,prob80hthp_12trials.xlsx,2,24,80,20,0,,,,,0,2,2,2,1,1,13,5,,,,,,,,3,860.3033249,863.3064175999998,863.3065184299999,0.3051601000001938,863.7506795999998,863.7506795999998,n,2.336026899999979,868.3445379,868.3445379,48,2.198,,,,,sub-061,45,60,700,bloc_loop.csv,2023-10-25_13h51.26.525,PainUncertainty,2022.2.5,142.37652040319992,
aigu,forte,stimuli/660Hz,stimuli/forte,bloc_3,prob80hthp_12trials.xlsx,2,24,80,20,0,,,,,0,2,2,2,1,2,14,7,,,,,,,,4.9,868.3445379,873.2451714999997,873.24525773,0.3050290999999561,873.6893853000001,873.6893853000001,n,1.9931061000002046,877.4898104999997,877.4898104999997,41,1.737,,,,,sub-061,45,60,700,bloc_loop.csv,2023-10-25_13h51.26.525,PainUncertainty,2022.2.5,142.37652040319992,
grave,moderee,stimuli/330Hz,stimuli/moderee,bloc_3,prob80hthp_12trials.xlsx,2,24,80,20,0,,,,,0,2,2,2,1,3,15,4,,,,,,,,3.6,877.4898104999997,881.0937376000002,881.0937436300001,0.30494950000002063,881.5375288999999,881.5375288999999,n,0.7140610000001288,883.2120056999997,883.2120056999997,12,0.862,,,,,sub-061,45,60,700,bloc_loop.csv,2023-10-25_13h51.26.525,PainUncertainty,2022.2.5,142.37652040319992,
grave,moderee,stimuli/330Hz,stimuli/moderee,bloc_3,prob80hthp_12trials.xlsx,2,24,80,20,0,,,,,0,2,2,2,1,4,16,2,,,,,,,,3.9,883.2120056999997,887.1148496000001,887.1149613299999,0.3051384999998845,887.5589365999999,887.5589365999999,n,1.7518153000000893,890.583435,890.583435,16,1.197,,,,,sub-061,45,60,700,bloc_loop.csv,2023-10-25_13h51.26.525,PainUncertainty,2022.2.5,142.37652040319992,
aigu,forte,stimuli/660Hz,stimuli/forte,bloc_3,prob80hthp_12trials.xlsx,2,24,80,20,0,,,,,0,2,2,2,1,5,17,6,,,,,,,,4.3,890.583435,894.8866708,894.8868006299999,0.3064334000000599,895.3343890000001,895.3343890000001,m,0.6103179000001546,897.1060441,897.1060441,74,1.08,,,,,sub-061,45,60,700,bloc_loop.csv,2023-10-25_13h51.26.525,PainUncertainty,2022.2.5,142.37652040319992,
grave,moderee,stimuli/330Hz,stimuli/moderee,bloc_3,prob80hthp_12trials.xlsx,2,24,80,20,0,,,,,0,2,2,2,1,6,18,3,,,,,,,,4.6,897.1060441,901.7075538999998,901.7072460300001,0.3052242000003389,902.1558875999999,902.1558875999999,n,0.6120648999999503,905.9944004999998,905.9944004999998,21,3.171,,,,,sub-061,45,60,700,bloc_loop.csv,2023-10-25_13h51.26.525,PainUncertainty,2022.2.5,142.37652040319992,
grave,moderee,stimuli/330Hz,stimuli/moderee,bloc_3,prob80hthp_12trials.xlsx,2,24,80,20,0,,,,,0,2,2,2,1,7,19,0,,,,,,,,4.1,905.9944004999998,910.0972778999999,910.0971592300002,0.30454280000003564,910.5410911999998,910.5410911999998,n,0.5717193999998926,912.6281497999998,912.6281497999998,14,1.462,,,,,sub-061,45,60,700,bloc_loop.csv,2023-10-25_13h51.26.525,PainUncertainty,2022.2.5,142.37652040319992,
aigu,moderee,stimuli/660Hz,stimuli/moderee,bloc_3,prob80hthp_12trials.xlsx,2,24,80,20,0,,,,,0,2,2,2,1,8,20,11,,,,,,,,4.1,912.6281497999998,916.7295620999998,916.7295365300001,0.304971999999907,917.1738643999997,917.1738643999997,n,0.8913006000002497,919.328192,919.328192,26,1.185,,,,,sub-061,45,60,700,bloc_loop.csv,2023-10-25_13h51.26.525,PainUncertainty,2022.2.5,142.37652040319992,
aigu,forte,stimuli/660Hz,stimuli/forte,bloc_3,prob80hthp_12trials.xlsx,2,24,80,20,0,,,,,0,2,2,2,1,9,21,9,,,,,,,,4,919.328192,923.3278836999998,923.3279255299999,0.3051932999997007,923.7760877999999,923.7760877999999,m,2.1747355000002244,927.9779557000002,927.9779557000002,50,1.956,,,,,sub-061,45,60,700,bloc_loop.csv,2023-10-25_13h51.26.525,PainUncertainty,2022.2.5,142.37652040319992,
grave,moderee,stimuli/330Hz,stimuli/moderee,bloc_3,prob80hthp_12trials.xlsx,2,24,80,20,0,,,,,0,2,2,2,1,10,22,1,,,,,,,,4.3,927.9779557000002,932.2802237000001,932.28025983,0.3049221999999645,932.7243303,932.7243303,n,1.4313054999997803,935.5552607999998,935.5552607999998,43,1.313,,,,,sub-061,45,60,700,bloc_loop.csv,2023-10-25_13h51.26.525,PainUncertainty,2022.2.5,142.37652040319992,
aigu,forte,stimuli/660Hz,stimuli/forte,bloc_3,prob80hthp_12trials.xlsx,2,24,80,20,0,,,,,0,2,2,2,1,11,23,10,,,,,,,,4.9,935.5552607999998,940.4544560999998,940.4545594299998,0.30502530000012484,940.8989621000001,940.8989621000001,m,1.210374899999806,944.4435634000001,944.4435634000001,65,2.261,,,,,sub-061,45,60,700,bloc_loop.csv,2023-10-25_13h51.26.525,PainUncertainty,2022.2.5,142.37652040319992,
aigu,moderee,stimuli/660Hz,stimuli/moderee,bloc_4,prob50_50_4trials.xlsx,2,8,50,50,1,,,,,0,3,3,3,0,0,0,2,,,,,,,,4.7,944.4435634000001,949.1433228999999,949.14348303,0.3050485000003391,949.5908107,949.5908107,m,1.7647127000000182,952.7882718999999,952.7882718999999,64,1.371,,,,,sub-061,45,60,700,bloc_loop.csv,2023-10-25_13h51.26.525,PainUncertainty,2022.2.5,142.37652040319992,
grave,moderee,stimuli/330Hz,stimuli/moderee,bloc_4,prob50_50_4trials.xlsx,2,8,50,50,1,,,,,0,3,3,3,0,1,1,0,,,,,,,,4.7,952.7882718999999,957.4917083,957.4915142300001,0.30481090000012045,957.9355280999998,957.9355280999998,n,1.2029641000003721,961.1358144000001,961.1358144000001,22,1.92,,,,,sub-061,45,60,700,bloc_loop.csv,2023-10-25_13h51.26.525,PainUncertainty,2022.2.5,142.37652040319992,
grave,forte,stimuli/330Hz,stimuli/forte,bloc_4,prob50_50_4trials.xlsx,2,8,50,50,1,,,,,0,3,3,3,0,2,2,1,,,,,,,,3.3,961.1358144000001,964.4364778999998,964.4366031300001,0.3049327999997331,964.8810797000001,964.8810797000001,m,0.8922734000002492,967.4638134000002,967.4638134000002,74,1.636,,,,,sub-061,45,60,700,bloc_loop.csv,2023-10-25_13h51.26.525,PainUncertainty,2022.2.5,142.37652040319992,
aigu,forte,stimuli/660Hz,stimuli/forte,bloc_4,prob50_50_4trials.xlsx,2,8,50,50,1,,,,,0,3,3,3,0,3,3,3,,,,,,,,4,967.4638134000002,971.4659889,971.4655171300001,0.30477620000010575,971.9094678000001,971.9094678000001,m,0.7741764000002149,974.9645381,974.9645381,67,2.196,,,,,sub-061,45,60,700,bloc_loop.csv,2023-10-25_13h51.26.525,PainUncertainty,2022.2.5,142.37652040319992,
grave,moderee,stimuli/330Hz,stimuli/moderee,bloc_4,prob50_50_4trials.xlsx,2,8,50,50,1,,,,,0,3,3,3,1,0,4,0,,,,,,,,3.3,974.9645381,978.2648810000001,978.2649842300002,0.30505940000011833,978.7088131999999,978.7088131999999,n,0.6176211000001786,980.1413911999998,980.1413911999998,25,0.768,,,,,sub-061,45,60,700,bloc_loop.csv,2023-10-25_13h51.26.525,PainUncertainty,2022.2.5,142.37652040319992,
aigu,moderee,stimuli/660Hz,stimuli/moderee,bloc_4,prob50_50_4trials.xlsx,2,8,50,50,1,,,,,0,3,3,3,1,1,5,2,,,,,,,,4.3,980.1413911999998,984.4458992999998,984.4459061299999,0.30514769999990676,984.8902333999999,984.8902333999999,n,0.9232219999998961,988.8084220000001,988.8084220000001,28,2.927,,,,,sub-061,45,60,700,bloc_loop.csv,2023-10-25_13h51.26.525,PainUncertainty,2022.2.5,142.37652040319992,
aigu,forte,stimuli/660Hz,stimuli/forte,bloc_4,prob50_50_4trials.xlsx,2,8,50,50,1,,,,,0,3,3,3,1,2,6,3,,,,,,,,5,988.8084220000001,993.8084505000002,993.8084379299999,0.30186589999993885,994.2531008999999,994.2531008999999,m,1.077913399999943,997.4398445000002,997.4398445000002,70,2.052,,,,,sub-061,45,60,700,bloc_loop.csv,2023-10-25_13h51.26.525,PainUncertainty,2022.2.5,142.37652040319992,
grave,forte,stimuli/330Hz,stimuli/forte,bloc_4,prob50_50_4trials.xlsx,2,8,50,50,1,,,,,0,3,3,3,1,3,7,1,,,,,,,,4.5,997.4398445000002,1001.9408780999997,1001.9410007299998,0.3052989000002526,1002.3850690999998,1002.3850690999998,m,2.285213300000123,1008.1173462000002,1008.1173462000002,68,1.42,,,,,sub-061,45,60,700,bloc_loop.csv,2023-10-25_13h51.26.525,PainUncertainty,2022.2.5,142.37652040319992,
,,,,bloc_4,prob50_50_4trials.xlsx,2,8,50,50,1,,,,,0,3,3,3,,,,,0,0,0,0,,,,,,,,,,,,,,,,,1008.1173462000002,1071.7964911999998,,,sub-061,45,60,700,bloc_loop.csv,2023-10-25_13h51.26.525,PainUncertainty,2022.2.5,142.37652040319992,
grave,forte,stimuli/330Hz,stimuli/forte,bloc_5,prob20hthp_12trials.xlsx,2,24,20,80,0,,,,,0,4,4,4,0,0,0,4,,,,,,,,4.2,1073.2363900999999,1077.4361417,1077.4361303300002,0.3051007999997637,1077.880076,1077.880076,m,2.1448302000003423,1083.5951486,1083.5951486,65,3.511,,,,,sub-061,45,60,700,bloc_loop.csv,2023-10-25_13h51.26.525,PainUncertainty,2022.2.5,142.37652040319992,
grave,forte,stimuli/330Hz,stimuli/forte,bloc_5,prob20hthp_12trials.xlsx,2,24,20,80,0,,,,,0,4,4,4,0,1,1,2,,,,,,,,4.2,1083.5951486,1087.7982696999998,1087.79849453,0.3049663000001601,1088.2424848,1088.2424848,m,1.172907000000123,1090.5006502,1090.5006502,66,1.024,,,,,sub-061,45,60,700,bloc_loop.csv,2023-10-25_13h51.26.525,PainUncertainty,2022.2.5,142.37652040319992,
grave,forte,stimuli/330Hz,stimuli/forte,bloc_5,prob20hthp_12trials.xlsx,2,24,20,80,0,,,,,0,4,4,4,0,2,2,3,,,,,,,,3.2,1090.5006502,1093.7018195,1093.7019485300002,0.30499079999981404,1094.1460335000002,1094.1460335000002,m,0.6948986000002151,1095.6024192,1095.6024192,70,0.685,,,,,sub-061,45,60,700,bloc_loop.csv,2023-10-25_13h51.26.525,PainUncertainty,2022.2.5,142.37652040319992,
aigu,moderee,stimuli/660Hz,stimuli/moderee,bloc_5,prob20hthp_12trials.xlsx,2,24,20,80,0,,,,,0,4,4,4,0,3,3,7,,,,,,,,3.5,1095.6024192,1099.1052122,1099.1052776299998,0.3050970000003872,1099.5518220999998,1099.5518220999998,n,0.5018989000000147,1101.1477697999999,1101.1477697999999,25,1.037,,,,,sub-061,45,60,700,bloc_loop.csv,2023-10-25_13h51.26.525,PainUncertainty,2022.2.5,142.37652040319992,
grave,moderee,stimuli/330Hz,stimuli/moderee,bloc_5,prob20hthp_12trials.xlsx,2,24,20,80,0,,,,,0,4,4,4,0,4,4,5,,,,,,,,4.1,1101.1477697999999,1105.2518283999998,1105.2519636299999,0.304940600000009,1105.6998899,1105.6998899,None,,1110.5970355,1110.5970355,23,2.372,,,,,sub-061,45,60,700,bloc_loop.csv,2023-10-25_13h51.26.525,PainUncertainty,2022.2.5,142.37652040319992,
aigu,forte,stimuli/660Hz,stimuli/forte,bloc_5,prob20hthp_12trials.xlsx,2,24,20,80,0,,,,,0,4,4,4,0,5,5,11,,,,,,,,3.6,1110.5970355,1114.1989855000002,1114.1977855300001,0.30519219999996494,1114.6456051,1114.6456051,m,0.5630606999998236,1116.8150216999998,1116.8150216999998,74,1.531,,,,,sub-061,45,60,700,bloc_loop.csv,2023-10-25_13h51.26.525,PainUncertainty,2022.2.5,142.37652040319992,
aigu,moderee,stimuli/660Hz,stimuli/moderee,bloc_5,prob20hthp_12trials.xlsx,2,24,20,80,0,,,,,0,4,4,4,0,6,6,6,,,,,,,,3.9,1116.8150216999998,1120.7190503000002,1120.71904833,0.2994235999999546,1121.1620448999997,1121.1620448999997,m,2.069482500000049,1125.4329368999997,1125.4329368999997,47,2.15,,,,,sub-061,45,60,700,bloc_loop.csv,2023-10-25_13h51.26.525,PainUncertainty,2022.2.5,142.37652040319992,
aigu,moderee,stimuli/660Hz,stimuli/moderee,bloc_5,prob20hthp_12trials.xlsx,2,24,20,80,0,,,,,0,4,4,4,0,7,7,10,,,,,,,,3.9,1125.4329368999997,1129.3380312,1129.3381389299998,0.3015413000002809,1129.7835673,1129.7835673,m,0.9995101999998042,1132.9158687999998,1132.9158687999998,50,2.052,,,,,sub-061,45,60,700,bloc_loop.csv,2023-10-25_13h51.26.525,PainUncertainty,2022.2.5,142.37652040319992,
grave,forte,stimuli/330Hz,stimuli/forte,bloc_5,prob20hthp_12trials.xlsx,2,24,20,80,0,,,,,0,4,4,4,0,8,8,0,,,,,,,,4.4,1132.9158687999998,1137.3184063999997,1137.31853353,0.3047908999997162,1137.7622978,1137.7622978,m,2.3014979999998104,1143.2567547999997,1143.2567547999997,63,3.129,,,,,sub-061,45,60,700,bloc_loop.csv,2023-10-25_13h51.26.525,PainUncertainty,2022.2.5,142.37652040319992,
grave,forte,stimuli/330Hz,stimuli/forte,bloc_5,prob20hthp_12trials.xlsx,2,24,20,80,0,,,,,0,4,4,4,0,9,9,1,,,,,,,,3,1143.2567547999997,1146.2566216999999,1146.25682943,0.29922350000015285,1146.6974562,1146.6974562,m,1.2510175000002164,1149.814841,1149.814841,73,1.78,,,,,sub-061,45,60,700,bloc_loop.csv,2023-10-25_13h51.26.525,PainUncertainty,2022.2.5,142.37652040319992,
aigu,moderee,stimuli/660Hz,stimuli/moderee,bloc_5,prob20hthp_12trials.xlsx,2,24,20,80,0,,,,,0,4,4,4,0,10,10,9,,,,,,,,4.2,1149.814841,1154.0148362999998,1154.0149095299998,0.3051668999996764,1154.4590069,1154.4590069,n,0.6397454000002654,1158.3180567,1158.3180567,23,3.163,,,,,sub-061,45,60,700,bloc_loop.csv,2023-10-25_13h51.26.525,PainUncertainty,2022.2.5,142.37652040319992,
aigu,moderee,stimuli/660Hz,stimuli/moderee,bloc_5,prob20hthp_12trials.xlsx,2,24,20,80,0,,,,,0,4,4,4,0,11,11,8,,,,,,,,3.9,1158.3180567,1162.2172288000002,1162.2172939299999,0.30497680000007676,1162.6613165999997,1162.6613165999997,n,1.0477022000000034,1165.4483292999998,1165.4483292999998,22,1.665,,,,,sub-061,45,60,700,bloc_loop.csv,2023-10-25_13h51.26.525,PainUncertainty,2022.2.5,142.37652040319992,
grave,forte,stimuli/330Hz,stimuli/forte,bloc_5,prob20hthp_12trials.xlsx,2,24,20,80,0,,,,,0,4,4,4,1,0,12,2,,,,,,,,3.9,1165.4483292999998,1169.3500052999998,1169.35129573,0.3039301999997406,1169.7938711000002,1169.7938711000002,m,0.6960468000002038,1174.0331075999998,1174.0331075999998,72,3.484,,,,,sub-061,45,60,700,bloc_loop.csv,2023-10-25_13h51.26.525,PainUncertainty,2022.2.5,142.37652040319992,
grave,forte,stimuli/330Hz,stimuli/forte,bloc_5,prob20hthp_12trials.xlsx,2,24,20,80,0,,,,,0,4,4,4,1,1,13,1,,,,,,,,3.3,1174.0331075999998,1177.3394051,1177.3371378299998,0.3050221000003148,1177.7810556,1177.7810556,m,0.6227019000002656,1180.3950043,1180.3950043,69,1.928,,,,,sub-061,45,60,700,bloc_loop.csv,2023-10-25_13h51.26.525,PainUncertainty,2022.2.5,142.37652040319992,
grave,forte,stimuli/330Hz,stimuli/forte,bloc_5,prob20hthp_12trials.xlsx,2,24,20,80,0,,,,,0,4,4,4,1,2,14,3,,,,,,,,4.1,1180.3950043,1184.4973841,1184.49749243,0.3056790999999066,1184.9466140999998,1184.9466140999998,m,1.4340698000000884,1187.9913694000002,1187.9913694000002,67,1.525,,,,,sub-061,45,60,700,bloc_loop.csv,2023-10-25_13h51.26.525,PainUncertainty,2022.2.5,142.37652040319992,
aigu,moderee,stimuli/660Hz,stimuli/moderee,bloc_5,prob20hthp_12trials.xlsx,2,24,20,80,0,,,,,0,4,4,4,1,3,15,10,,,,,,,,4.1,1187.9913694000002,1192.0957155,1192.0958414299998,0.30529299999989234,1192.5444856,1192.5444856,n,0.769677700000102,1195.4403812,1195.4403812,14,2.046,,,,,sub-061,45,60,700,bloc_loop.csv,2023-10-25_13h51.26.525,PainUncertainty,2022.2.5,142.37652040319992,
grave,forte,stimuli/330Hz,stimuli/forte,bloc_5,prob20hthp_12trials.xlsx,2,24,20,80,0,,,,,0,4,4,4,1,4,16,4,,,,,,,,3.1,1195.4403812,1198.5405716,1198.54069773,0.2993242000002283,1198.9828705,1198.9828705,m,0.9280077000003075,1201.1467564,1201.1467564,63,1.171,,,,,sub-061,45,60,700,bloc_loop.csv,2023-10-25_13h51.26.525,PainUncertainty,2022.2.5,142.37652040319992,
aigu,forte,stimuli/660Hz,stimuli/forte,bloc_5,prob20hthp_12trials.xlsx,2,24,20,80,0,,,,,0,4,4,4,1,5,17,11,,,,,,,,3.6,1201.1467564,1204.7497780999997,1204.74981793,0.3050634999999602,1205.1938337000001,1205.1938337000001,m,1.2283643000000666,1208.5989396999998,1208.5989396999998,60,2.101,,,,,sub-061,45,60,700,bloc_loop.csv,2023-10-25_13h51.26.525,PainUncertainty,2022.2.5,142.37652040319992,
grave,moderee,stimuli/330Hz,stimuli/moderee,bloc_5,prob20hthp_12trials.xlsx,2,24,20,80,0,,,,,0,4,4,4,1,6,18,5,,,,,,,,4.2,1208.5989396999998,1212.7995713,1212.7997372300001,0.3000459999998384,1213.2440766999998,1213.2440766999998,n,0.44000640000012936,1216.1096159999997,1216.1096159999997,17,2.371,,,,,sub-061,45,60,700,bloc_loop.csv,2023-10-25_13h51.26.525,PainUncertainty,2022.2.5,142.37652040319992,
aigu,moderee,stimuli/660Hz,stimuli/moderee,bloc_5,prob20hthp_12trials.xlsx,2,24,20,80,0,,,,,0,4,4,4,1,7,19,7,,,,,,,,4.9,1216.1096159999997,1221.0089161,1221.00903303,0.30237239999996746,1221.4529026,1221.4529026,n,1.3135534000002735,1224.2163777,1224.2163777,27,1.386,,,,,sub-061,45,60,700,bloc_loop.csv,2023-10-25_13h51.26.525,PainUncertainty,2022.2.5,142.37652040319992,
aigu,moderee,stimuli/660Hz,stimuli/moderee,bloc_5,prob20hthp_12trials.xlsx,2,24,20,80,0,,,,,0,4,4,4,1,8,20,8,,,,,,,,5,1224.2163777,1229.2178918,1229.2179741300001,0.29906740000024,1229.65589,1229.65589,n,1.4879870000004303,1233.1997559000001,1233.1997559000001,29,2.004,,,,,sub-061,45,60,700,bloc_loop.csv,2023-10-25_13h51.26.525,PainUncertainty,2022.2.5,142.37652040319992,
aigu,moderee,stimuli/660Hz,stimuli/moderee,bloc_5,prob20hthp_12trials.xlsx,2,24,20,80,0,,,,,0,4,4,4,1,9,21,6,,,,,,,,4.6,1233.1997559000001,1237.8028792999999,1237.8026783300002,0.3049507000000631,1238.2464257000001,1238.2464257000001,n,1.0260191000002123,1240.9703074,1240.9703074,24,1.636,,,,,sub-061,45,60,700,bloc_loop.csv,2023-10-25_13h51.26.525,PainUncertainty,2022.2.5,142.37652040319992,
aigu,moderee,stimuli/660Hz,stimuli/moderee,bloc_5,prob20hthp_12trials.xlsx,2,24,20,80,0,,,,,0,4,4,4,1,10,22,9,,,,,,,,5,1240.9703074,1245.9701931,1245.9701940300001,0.3051605999999083,1246.4140612,1246.4140612,n,0.5346275000001697,1249.7007227999998,1249.7007227999998,18,2.686,,,,,sub-061,45,60,700,bloc_loop.csv,2023-10-25_13h51.26.525,PainUncertainty,2022.2.5,142.37652040319992,
grave,forte,stimuli/330Hz,stimuli/forte,bloc_5,prob20hthp_12trials.xlsx,2,24,20,80,0,,,,,0,4,4,4,1,11,23,0,,,,,,,,4.7,1249.7007227999998,1254.4015718,1254.40168653,0.30500660000006974,1254.8460059999998,1254.8460059999998,m,0.6133579000002101,1257.2442916,1257.2442916,71,1.726,,,,,sub-061,45,60,700,bloc_loop.csv,2023-10-25_13h51.26.525,PainUncertainty,2022.2.5,142.37652040319992,
aigu,forte,stimuli/660Hz,stimuli/forte,bloc_6,prob50_50_4trials.xlsx,2,8,50,50,0,,,,,0,5,5,5,0,0,0,3,,,,,,,,4.3,1257.2442916,1261.5481527000002,1261.54825773,0.30163530000027095,1261.992925,1261.992925,m,1.6037679000000935,1265.7190572999998,1265.7190572999998,73,2.059,,,,,sub-061,45,60,700,bloc_loop.csv,2023-10-25_13h51.26.525,PainUncertainty,2022.2.5,142.37652040319992,
grave,forte,stimuli/330Hz,stimuli/forte,bloc_6,prob50_50_4trials.xlsx,2,8,50,50,0,,,,,0,5,5,5,0,1,1,1,,,,,,,,3.6,1265.7190572999998,1269.3203866999997,1269.32028443,0.2994050000002062,1269.7630912999998,1269.7630912999998,m,0.815224599999965,1272.7542917,1272.7542917,80,2.094,,,,,sub-061,45,60,700,bloc_loop.csv,2023-10-25_13h51.26.525,PainUncertainty,2022.2.5,142.37652040319992,
grave,moderee,stimuli/330Hz,stimuli/moderee,bloc_6,prob50_50_4trials.xlsx,2,8,50,50,0,,,,,0,5,5,5,0,2,2,0,,,,,,,,3.6,1272.7542917,1276.3559010999998,1276.3558628300002,0.30481779999990977,1276.7996577999997,1276.7996577999997,n,0.7908086000002186,1278.7008768,1278.7008768,16,1.058,,,,,sub-061,45,60,700,bloc_loop.csv,2023-10-25_13h51.26.525,PainUncertainty,2022.2.5,142.37652040319992,
aigu,moderee,stimuli/660Hz,stimuli/moderee,bloc_6,prob50_50_4trials.xlsx,2,8,50,50,0,,,,,0,5,5,5,0,3,3,2,,,,,,,,3.5,1278.7008768,1282.2033677,1282.20346393,0.3054355999997824,1282.6497624999997,1282.6497624999997,n,1.186033800000132,1285.4635871,1285.4635871,18,1.568,,,,,sub-061,45,60,700,bloc_loop.csv,2023-10-25_13h51.26.525,PainUncertainty,2022.2.5,142.37652040319992,
aigu,moderee,stimuli/660Hz,stimuli/moderee,bloc_6,prob50_50_4trials.xlsx,2,8,50,50,0,,,,,0,5,5,5,1,0,4,2,,,,,,,,4.5,1285.4635871,1289.9681219,1289.96811893,0.30542479999985517,1290.4129373,1290.4129373,n,0.5934065999999802,1294.5296076999998,1294.5296076999998,15,3.45,,,,,sub-061,45,60,700,bloc_loop.csv,2023-10-25_13h51.26.525,PainUncertainty,2022.2.5,142.37652040319992,
grave,forte,stimuli/330Hz,stimuli/forte,bloc_6,prob50_50_4trials.xlsx,2,8,50,50,0,,,,,0,5,5,5,1,1,5,1,,,,,,,,3.6,1294.5296076999998,1298.1287953,1298.1288954299998,0.30516510000006747,1298.5730349,1298.5730349,None,,1302.4878813999999,1302.4878813999999,67,1.419,,,1301.0435450999998,1301.0435450999998,sub-061,45,60,700,bloc_loop.csv,2023-10-25_13h51.26.525,PainUncertainty,2022.2.5,142.37652040319992,
aigu,forte,stimuli/660Hz,stimuli/forte,bloc_6,prob50_50_4trials.xlsx,2,8,50,50,0,,,,,0,5,5,5,1,2,6,3,,,,,,,,3.7,1302.4878813999999,1306.1922902000001,1306.1925117300002,0.30497730000024603,1306.6366595999998,1306.6366595999998,m,1.1356206000000384,1309.0128790999997,1309.0128790999997,81,1.157,,,,,sub-061,45,60,700,bloc_loop.csv,2023-10-25_13h51.26.525,PainUncertainty,2022.2.5,142.37652040319992,
grave,moderee,stimuli/330Hz,stimuli/moderee,bloc_6,prob50_50_4trials.xlsx,2,8,50,50,0,,,,,0,5,5,5,1,3,7,0,,,,,,,,4.8,1309.0128790999997,1313.8183054,1313.8183030300002,0.2991757999998299,1314.2605761,1314.2605761,n,0.9434345000004214,1316.4785493999998,1316.4785493999998,21,1.153,,,,,sub-061,45,60,700,bloc_loop.csv,2023-10-25_13h51.26.525,PainUncertainty,2022.2.5,142.37652040319992,
aigu,forte,stimuli/660Hz,stimuli/forte,bloc_7,prob80hthp_12trials.xlsx,2,24,80,20,1,,,,,0,6,6,6,0,0,0,9,,,,,,,,3.8,1316.4785493999998,1320.2772519999999,1320.27758833,0.30506419999983336,1320.7217313,1320.7217313,m,0.7829794000003858,1323.1134428999999,1323.1134428999999,77,1.545,,,,,sub-061,45,60,700,bloc_loop.csv,2023-10-25_13h51.26.525,PainUncertainty,2022.2.5,142.37652040319992,
aigu,forte,stimuli/660Hz,stimuli/forte,bloc_7,prob80hthp_12trials.xlsx,2,24,80,20,1,,,,,0,6,6,6,0,1,1,6,,,,,,,,3.8,1323.1134428999999,1326.9175688,1326.9174078299998,0.3053150000000642,1327.3650082,1327.3650082,m,1.6260937000001832,1330.3236588,1330.3236588,70,1.259,,,,,sub-061,45,60,700,bloc_loop.csv,2023-10-25_13h51.26.525,PainUncertainty,2022.2.5,142.37652040319992,
grave,moderee,stimuli/330Hz,stimuli/moderee,bloc_7,prob80hthp_12trials.xlsx,2,24,80,20,1,,,,,0,6,6,6,0,2,2,2,,,,,,,,4.9,1330.3236588,1335.2238318,1335.2238504299999,0.30491639999991094,1335.6678438,1335.6678438,n,0.6205653000001803,1337.1318806,1337.1318806,13,0.789,,,,,sub-061,45,60,700,bloc_loop.csv,2023-10-25_13h51.26.525,PainUncertainty,2022.2.5,142.37652040319992,
aigu,moderee,stimuli/660Hz,stimuli/moderee,bloc_7,prob80hthp_12trials.xlsx,2,24,80,20,1,,,,,0,6,6,6,0,3,3,11,,,,,,,,3.2,1337.1318806,1340.3351536,1340.33528123,0.30556269999988217,1340.7835956,1340.7835956,n,0.7369842000002791,1343.0150121000001,1343.0150121000001,15,1.441,,,,,sub-061,45,60,700,bloc_loop.csv,2023-10-25_13h51.26.525,PainUncertainty,2022.2.5,142.37652040319992,
grave,moderee,stimuli/330Hz,stimuli/moderee,bloc_7,prob80hthp_12trials.xlsx,2,24,80,20,1,,,,,0,6,6,6,0,4,4,1,,,,,,,,3.4,1343.0150121000001,1346.4197298999998,1346.41990533,0.3045510000001741,1346.86355,1346.86355,n,0.9658491000004688,1349.7791994,1349.7791994,18,1.879,,,,,sub-061,45,60,700,bloc_loop.csv,2023-10-25_13h51.26.525,PainUncertainty,2022.2.5,142.37652040319992,
grave,forte,stimuli/330Hz,stimuli/forte,bloc_7,prob80hthp_12trials.xlsx,2,24,80,20,1,,,,,0,6,6,6,0,5,5,5,,,,,,,,3.1,1349.7791994,1352.8784249,1352.87848683,0.30474240000012287,1353.3264837000002,1353.3264837000002,m,0.8653302000002441,1356.8771493999998,1356.8771493999998,66,2.631,,,,,sub-061,45,60,700,bloc_loop.csv,2023-10-25_13h51.26.525,PainUncertainty,2022.2.5,142.37652040319992,
aigu,forte,stimuli/660Hz,stimuli/forte,bloc_7,prob80hthp_12trials.xlsx,2,24,80,20,1,,,,,0,6,6,6,0,6,6,7,,,,,,,,4.9,1356.8771493999998,1361.7823101,1361.78227453,0.30555059999960577,1362.2308569000002,1362.2308569000002,m,0.9454430999999204,1365.8300313,1365.8300313,68,2.595,,,,,sub-061,45,60,700,bloc_loop.csv,2023-10-25_13h51.26.525,PainUncertainty,2022.2.5,142.37652040319992,
aigu,forte,stimuli/660Hz,stimuli/forte,bloc_7,prob80hthp_12trials.xlsx,2,24,80,20,1,,,,,0,6,6,6,0,7,7,10,,,,,,,,3.8,1365.8300313,1369.6304381999998,1369.63067383,0.30469929999981105,1370.0745917999998,1370.0745917999998,m,1.7669144000001324,1372.7676295,1372.7676295,80,0.851,,,,,sub-061,45,60,700,bloc_loop.csv,2023-10-25_13h51.26.525,PainUncertainty,2022.2.5,142.37652040319992,
grave,moderee,stimuli/330Hz,stimuli/moderee,bloc_7,prob80hthp_12trials.xlsx,2,24,80,20,1,,,,,0,6,6,6,0,8,8,4,,,,,,,,3,1372.7676295,1375.7705301,1375.77067123,0.3047504999999546,1376.21807,1376.21807,n,0.6539671000000453,1379.9144889999998,1379.9144889999998,20,2.963,,,,,sub-061,45,60,700,bloc_loop.csv,2023-10-25_13h51.26.525,PainUncertainty,2022.2.5,142.37652040319992,
aigu,forte,stimuli/660Hz,stimuli/forte,bloc_7,prob80hthp_12trials.xlsx,2,24,80,20,1,,,,,0,6,6,6,0,9,9,8,,,,,,,,4.7,1379.9144889999998,1384.618536,1384.61859293,0.30493829999977606,1385.0626544000002,1385.0626544000002,n,1.2343259000003854,1388.7871218999999,1388.7871218999999,26,2.411,,,,,sub-061,45,60,700,bloc_loop.csv,2023-10-25_13h51.26.525,PainUncertainty,2022.2.5,142.37652040319992,
grave,moderee,stimuli/330Hz,stimuli/moderee,bloc_7,prob80hthp_12trials.xlsx,2,24,80,20,1,,,,,0,6,6,6,0,10,10,3,,,,,,,,3.1,1388.7871218999999,1391.8900175999997,1391.89022053,0.3055655000002844,1392.3351414999997,1392.3351414999997,n,0.7273689000003287,1396.2210623,1396.2210623,19,3.109,,,,,sub-061,45,60,700,bloc_loop.csv,2023-10-25_13h51.26.525,PainUncertainty,2022.2.5,142.37652040319992,
grave,moderee,stimuli/330Hz,stimuli/moderee,bloc_7,prob80hthp_12trials.xlsx,2,24,80,20,1,,,,,0,6,6,6,0,11,11,0,,,,,,,,4.1,1396.2210623,1400.3218338000001,1400.3218652300002,0.305216400000063,1400.7691185999997,1400.7691185999997,n,0.8665444000002935,1402.4885329999997,1402.4885329999997,15,0.775,,,,,sub-061,45,60,700,bloc_loop.csv,2023-10-25_13h51.26.525,PainUncertainty,2022.2.5,142.37652040319992,
aigu,forte,stimuli/660Hz,stimuli/forte,bloc_7,prob80hthp_12trials.xlsx,2,24,80,20,1,,,,,0,6,6,6,1,0,12,8,,,,,,,,4.4,1402.4885329999997,1406.8922100999998,1406.8920440299999,0.299373000000287,1407.3301572999999,1407.3301572999999,m,0.6058087000001251,1408.8176798999998,1408.8176798999998,80,0.823,,,,,sub-061,45,60,700,bloc_loop.csv,2023-10-25_13h51.26.525,PainUncertainty,2022.2.5,142.37652040319992,
aigu,forte,stimuli/660Hz,stimuli/forte,bloc_7,prob80hthp_12trials.xlsx,2,24,80,20,1,,,,,0,6,6,6,1,1,13,6,,,,,,,,3,1408.8176798999998,1411.8230171999999,1411.82297573,0.3052026999998816,1412.2670448,1412.2670448,m,0.8451112000002468,1416.0439593,1416.0439593,75,2.857,,,,,sub-061,45,60,700,bloc_loop.csv,2023-10-25_13h51.26.525,PainUncertainty,2022.2.5,142.37652040319992,
grave,moderee,stimuli/330Hz,stimuli/moderee,bloc_7,prob80hthp_12trials.xlsx,2,24,80,20,1,,,,,0,6,6,6,1,2,14,1,,,,,,,,4.8,1416.0439593,1420.8451227,1420.84526053,0.3049062000000049,1421.2889664999998,1421.2889664999998,n,0.6454380000000128,1424.5968904000001,1424.5968904000001,15,2.6,,,,,sub-061,45,60,700,bloc_loop.csv,2023-10-25_13h51.26.525,PainUncertainty,2022.2.5,142.37652040319992,
grave,moderee,stimuli/330Hz,stimuli/moderee,bloc_7,prob80hthp_12trials.xlsx,2,24,80,20,1,,,,,0,6,6,6,1,3,15,2,,,,,,,,3.9,1424.5968904000001,1428.4989433,1428.49928013,0.3021043999997346,1428.9432304000002,1428.9432304000002,n,1.113498200000322,1431.3609588,1431.3609588,17,1.218,,,,,sub-061,45,60,700,bloc_loop.csv,2023-10-25_13h51.26.525,PainUncertainty,2022.2.5,142.37652040319992,
aigu,forte,stimuli/660Hz,stimuli/forte,bloc_7,prob80hthp_12trials.xlsx,2,24,80,20,1,,,,,0,6,6,6,1,4,16,10,,,,,,,,4.3,1431.3609588,1435.6660409,1435.66605363,0.3050647999998546,1436.1127016,1436.1127016,m,1.0659732000003714,1438.8584247999997,1438.8584247999997,80,1.615,,,,,sub-061,45,60,700,bloc_loop.csv,2023-10-25_13h51.26.525,PainUncertainty,2022.2.5,142.37652040319992,
grave,forte,stimuli/330Hz,stimuli/forte,bloc_7,prob80hthp_12trials.xlsx,2,24,80,20,1,,,,,0,6,6,6,1,5,17,5,,,,,,,,4.6,1438.8584247999997,1443.4585963,1443.45869313,0.3051244000002953,1443.9029099,1443.9029099,n,1.1643376000001808,1446.389209,1446.389209,23,1.24,,,,,sub-061,45,60,700,bloc_loop.csv,2023-10-25_13h51.26.525,PainUncertainty,2022.2.5,142.37652040319992,
aigu,moderee,stimuli/660Hz,stimuli/moderee,bloc_7,prob80hthp_12trials.xlsx,2,24,80,20,1,,,,,0,6,6,6,1,6,18,11,,,,,,,,4.3,1446.389209,1450.6885573999998,1450.68866743,0.30492809999987003,1451.1327326,1451.1327326,n,2.2690533000004507,1454.4944695,1454.4944695,18,1.018,,,,,sub-061,45,60,700,bloc_loop.csv,2023-10-25_13h51.26.525,PainUncertainty,2022.2.5,142.37652040319992,
aigu,forte,stimuli/660Hz,stimuli/forte,bloc_7,prob80hthp_12trials.xlsx,2,24,80,20,1,,,,,0,6,6,6,1,7,19,9,,,,,,,,4.5,1454.4944695,1458.9950364000001,1458.99537813,0.30525310000030004,1459.4419767999998,1459.4419767999998,m,0.9086709000002884,1462.2326365999998,1462.2326365999998,77,1.798,,,,,sub-061,45,60,700,bloc_loop.csv,2023-10-25_13h51.26.525,PainUncertainty,2022.2.5,142.37652040319992,
grave,moderee,stimuli/330Hz,stimuli/moderee,bloc_7,prob80hthp_12trials.xlsx,2,24,80,20,1,,,,,0,6,6,6,1,8,20,0,,,,,,,,4.3,1462.2326365999998,1466.5380028999998,1466.5380346299999,0.3050956000001861,1466.9818753,1466.9818753,n,0.802184600000146,1469.0724590999998,1469.0724590999998,18,1.235,,,,,sub-061,45,60,700,bloc_loop.csv,2023-10-25_13h51.26.525,PainUncertainty,2022.2.5,142.37652040319992,
grave,moderee,stimuli/330Hz,stimuli/moderee,bloc_7,prob80hthp_12trials.xlsx,2,24,80,20,1,,,,,0,6,6,6,1,9,21,3,,,,,,,,3.6,1469.0724590999998,1472.6773180999999,1472.67732583,0.3053638999999748,1473.1214973,1473.1214973,n,0.6486995999998726,1474.7329406,1474.7329406,19,0.886,,,,,sub-061,45,60,700,bloc_loop.csv,2023-10-25_13h51.26.525,PainUncertainty,2022.2.5,142.37652040319992,
aigu,forte,stimuli/660Hz,stimuli/forte,bloc_7,prob80hthp_12trials.xlsx,2,24,80,20,1,,,,,0,6,6,6,1,10,22,7,,,,,,,,3.1,1474.7329406,1477.8376973,1477.8377322299998,0.3050794999999198,1478.2818183,1478.2818183,m,0.8351391000001058,1480.0248892,1480.0248892,75,0.837,,,,,sub-061,45,60,700,bloc_loop.csv,2023-10-25_13h51.26.525,PainUncertainty,2022.2.5,142.37652040319992,
grave,moderee,stimuli/330Hz,stimuli/moderee,bloc_7,prob80hthp_12trials.xlsx,2,24,80,20,1,,,,,0,6,6,6,1,11,23,4,,,,,,,,4.1,1480.0248892,1484.1300759,1484.13012403,0.2994988000000376,1484.5727630000001,1484.5727630000001,n,1.1827375000002576,1491.1399198,1491.1399198,9,3.357,,,,,sub-061,45,60,700,bloc_loop.csv,2023-10-25_13h51.26.525,PainUncertainty,2022.2.5,142.37652040319992,
,,,,bloc_7,prob80hthp_12trials.xlsx,2,24,80,20,1,,,,,0,6,6,6,,,,,0,0,0,0,,,,,,,,,,,,,,,,,1491.1399198,1518.3215743,,,sub-061,45,60,700,bloc_loop.csv,2023-10-25_13h51.26.525,PainUncertainty,2022.2.5,142.37652040319992,
grave,forte,stimuli/330Hz,stimuli/forte,bloc_8,prob50_50_4trials.xlsx,3,12,50,50,0,,,,,0,7,7,7,0,0,0,1,,,,,,,,3.4,1519.6427082999999,1523.0445141999999,1523.04446533,0.3048972000001413,1523.4887727999999,1523.4887727999999,m,0.9736157000002095,1525.2526156999998,1525.2526156999998,80,0.705,,,,,sub-061,45,60,700,bloc_loop.csv,2023-10-25_13h51.26.525,PainUncertainty,2022.2.5,142.37652040319992,
aigu,moderee,stimuli/660Hz,stimuli/moderee,bloc_8,prob50_50_4trials.xlsx,3,12,50,50,0,,,,,0,7,7,7,0,1,1,2,,,,,,,,3.9,1525.2526156999998,1529.1566426999998,1529.1566960300001,0.3051146000002518,1529.6048962999998,1529.6048962999998,n,0.5058812000002035,1531.599408,1531.599408,14,1.406,,,,,sub-061,45,60,700,bloc_loop.csv,2023-10-25_13h51.26.525,PainUncertainty,2022.2.5,142.37652040319992,
aigu,forte,stimuli/660Hz,stimuli/forte,bloc_8,prob50_50_4trials.xlsx,3,12,50,50,0,,,,,0,7,7,7,0,2,2,3,,,,,,,,3.6,1531.599408,1535.1985659000002,1535.19867643,0.30512039999985063,1535.6428416999997,1535.6428416999997,n,2.19532879999997,1538.6490466,1538.6490466,20,0.741,,,,,sub-061,45,60,700,bloc_loop.csv,2023-10-25_13h51.26.525,PainUncertainty,2022.2.5,142.37652040319992,
grave,moderee,stimuli/330Hz,stimuli/moderee,bloc_8,prob50_50_4trials.xlsx,3,12,50,50,0,,,,,0,7,7,7,0,3,3,0,,,,,,,,3.3,1538.6490466,1541.9493696999998,1541.9495258299999,0.30498020000004544,1542.3935616999997,1542.3935616999997,n,0.8982187999999951,1546.0500969,1546.0500969,11,2.706,,,,,sub-061,45,60,700,bloc_loop.csv,2023-10-25_13h51.26.525,PainUncertainty,2022.2.5,142.37652040319992,
grave,moderee,stimuli/330Hz,stimuli/moderee,bloc_8,prob50_50_4trials.xlsx,3,12,50,50,0,,,,,0,7,7,7,1,0,4,0,,,,,,,,4.8,1546.0500969,1550.8532516,1550.85337883,0.30492299999968964,1551.2980797,1551.2980797,n,1.0837409000000662,1554.7180012,1554.7180012,21,2.262,,,,,sub-061,45,60,700,bloc_loop.csv,2023-10-25_13h51.26.525,PainUncertainty,2022.2.5,142.37652040319992,
grave,forte,stimuli/330Hz,stimuli/forte,bloc_8,prob50_50_4trials.xlsx,3,12,50,50,0,,,,,0,7,7,7,1,1,5,1,,,,,,,,4.4,1554.7180012,1559.1183883999997,1559.12007473,0.30333669999981794,1559.5622168,1559.5622168,m,0.7590029000002687,1563.2685106999998,1563.2685106999998,73,2.885,,,,,sub-061,45,60,700,bloc_loop.csv,2023-10-25_13h51.26.525,PainUncertainty,2022.2.5,142.37652040319992,
aigu,forte,stimuli/660Hz,stimuli/forte,bloc_8,prob50_50_4trials.xlsx,3,12,50,50,0,,,,,0,7,7,7,1,2,6,3,,,,,,,,4.2,1563.2685106999998,1567.4733471,1567.4733839300002,0.30485680000037974,1567.9174205999998,1567.9174205999998,m,1.0828308999998626,1570.2224406999999,1570.2224406999999,83,1.149,,,,,sub-061,45,60,700,bloc_loop.csv,2023-10-25_13h51.26.525,PainUncertainty,2022.2.5,142.37652040319992,
aigu,moderee,stimuli/660Hz,stimuli/moderee,bloc_8,prob50_50_4trials.xlsx,3,12,50,50,0,,,,,0,7,7,7,1,3,7,2,,,,,,,,4.6,1570.2224406999999,1574.8212988,1574.82144203,0.30516179999995074,1575.2659118000001,1575.2659118000001,n,1.3886846000000332,1577.7859829999998,1577.7859829999998,31,1.053,,,,,sub-061,45,60,700,bloc_loop.csv,2023-10-25_13h51.26.525,PainUncertainty,2022.2.5,142.37652040319992,
aigu,forte,stimuli/660Hz,stimuli/forte,bloc_8,prob50_50_4trials.xlsx,3,12,50,50,0,,,,,0,7,7,7,2,0,8,3,,,,,,,,3,1577.7859829999998,1580.7873519,1580.7874514300001,0.30512220000036905,1581.2315276,1581.2315276,m,0.7781580000000758,1584.8828696,1584.8828696,72,2.816,,,,,sub-061,45,60,700,bloc_loop.csv,2023-10-25_13h51.26.525,PainUncertainty,2022.2.5,142.37652040319992,
grave,forte,stimuli/330Hz,stimuli/forte,bloc_8,prob50_50_4trials.xlsx,3,12,50,50,0,,,,,0,7,7,7,2,1,9,1,,,,,,,,3.6,1584.8828696,1588.4827300000002,1588.4829933299998,0.3047234999999091,1588.9268489,1588.9268489,m,1.2866831000001184,1592.8130861999998,1592.8130861999998,71,2.524,,,,,sub-061,45,60,700,bloc_loop.csv,2023-10-25_13h51.26.525,PainUncertainty,2022.2.5,142.37652040319992,
grave,moderee,stimuli/330Hz,stimuli/moderee,bloc_8,prob50_50_4trials.xlsx,3,12,50,50,0,,,,,0,7,7,7,2,2,10,0,,,,,,,,4.4,1592.8130861999998,1597.213163,1597.21342473,0.30499609999969834,1597.6596626,1597.6596626,n,0.5788389000003917,1599.6867364999998,1599.6867364999998,18,1.392,,,,,sub-061,45,60,700,bloc_loop.csv,2023-10-25_13h51.26.525,PainUncertainty,2022.2.5,142.37652040319992,
aigu,moderee,stimuli/660Hz,stimuli/moderee,bloc_8,prob50_50_4trials.xlsx,3,12,50,50,0,,,,,0,7,7,7,2,3,11,2,,,,,,,,3.4,1599.6867364999998,1603.0886643999997,1603.0887243299999,0.2990047999996932,1603.5275137999997,1603.5275137999997,n,0.6304631000002701,1605.8910701,1605.8910701,17,1.656,,,,,sub-061,45,60,700,bloc_loop.csv,2023-10-25_13h51.26.525,PainUncertainty,2022.2.5,142.37652040319992,
grave,forte,stimuli/330Hz,stimuli/forte,bloc_9,prob20hthp_12trials.xlsx,3,36,80,20,0,,,,,0,8,8,8,0,0,0,2,,,,,,,,3.6,1605.8910701,1609.4928306000002,1609.49296233,0.3047561999997015,1609.9400114,1609.9400114,m,0.9378349000003254,1613.8204194,1613.8204194,75,2.87,,,,,sub-061,45,60,700,bloc_loop.csv,2023-10-25_13h51.26.525,PainUncertainty,2022.2.5,142.37652040319992,
aigu,moderee,stimuli/660Hz,stimuli/moderee,bloc_9,prob20hthp_12trials.xlsx,3,36,80,20,0,,,,,0,8,8,8,0,1,1,7,,,,,,,,4.8,1613.8204194,1618.6252114,1618.62537243,0.304994699999952,1619.0694088999999,1619.0694088999999,n,0.9095539000004464,1622.5813133000001,1622.5813133000001,25,2.553,,,,,sub-061,45,60,700,bloc_loop.csv,2023-10-25_13h51.26.525,PainUncertainty,2022.2.5,142.37652040319992,
aigu,moderee,stimuli/660Hz,stimuli/moderee,bloc_9,prob20hthp_12trials.xlsx,3,36,80,20,0,,,,,0,8,8,8,0,2,2,10,,,,,,,,3.9,1622.5813133000001,1626.4807932999997,1626.48110253,0.30453720000014073,1626.9246921,1626.9246921,n,0.6745461000000432,1628.8495659999999,1628.8495659999999,17,1.164,,,,,sub-061,45,60,700,bloc_loop.csv,2023-10-25_13h51.26.525,PainUncertainty,2022.2.5,142.37652040319992,
grave,forte,stimuli/330Hz,stimuli/forte,bloc_9,prob20hthp_12trials.xlsx,3,36,80,20,0,,,,,0,8,8,8,0,3,3,0,,,,,,,,3.4,1628.8495659999999,1632.2533689000002,1632.2524315300002,0.299013300000297,1632.6947045000002,1632.6947045000002,m,0.8579537999999047,1635.1955156,1635.1955156,80,1.571,,,,,sub-061,45,60,700,bloc_loop.csv,2023-10-25_13h51.26.525,PainUncertainty,2022.2.5,142.37652040319992,
grave,forte,stimuli/330Hz,stimuli/forte,bloc_9,prob20hthp_12trials.xlsx,3,36,80,20,0,,,,,0,8,8,8,0,4,4,3,,,,,,,,4.8,1635.1955156,1639.9961112,1639.99604293,0.30532380000022386,1640.439891,1640.439891,m,0.5059590000000753,1643.124585,1643.124585,79,2.115,,,,,sub-061,45,60,700,bloc_loop.csv,2023-10-25_13h51.26.525,PainUncertainty,2022.2.5,142.37652040319992,
aigu,forte,stimuli/660Hz,stimuli/forte,bloc_9,prob20hthp_12trials.xlsx,3,36,80,20,0,,,,,0,8,8,8,0,5,5,11,,,,,,,,5,1643.124585,1648.1286768,1648.1288309299998,0.30507760000000417,1648.5727854000002,1648.5727854000002,m,0.9070314000000508,1651.8366502,1651.8366502,79,2.289,,,,,sub-061,45,60,700,bloc_loop.csv,2023-10-25_13h51.26.525,PainUncertainty,2022.2.5,142.37652040319992,
aigu,moderee,stimuli/660Hz,stimuli/moderee,bloc_9,prob20hthp_12trials.xlsx,3,36,80,20,0,,,,,0,8,8,8,0,6,6,8,,,,,,,,3.7,1651.8366502,1655.5394155999998,1655.5394921299999,0.3049663000001601,1655.9834962,1655.9834962,n,1.4803460000002815,1659.3339799999999,1659.3339799999999,15,1.809,,,,,sub-061,45,60,700,bloc_loop.csv,2023-10-25_13h51.26.525,PainUncertainty,2022.2.5,142.37652040319992,
aigu,moderee,stimuli/660Hz,stimuli/moderee,bloc_9,prob20hthp_12trials.xlsx,3,36,80,20,0,,,,,0,8,8,8,0,7,7,9,,,,,,,,5,1659.3339799999999,1664.3393591999998,1664.3395789299998,0.3006956000003811,1664.7855516,1664.7855516,n,0.7817233999999189,1666.7207915,1666.7207915,26,1.087,,,,,sub-061,45,60,700,bloc_loop.csv,2023-10-25_13h51.26.525,PainUncertainty,2022.2.5,142.37652040319992,
grave,forte,stimuli/330Hz,stimuli/forte,bloc_9,prob20hthp_12trials.xlsx,3,36,80,20,0,,,,,0,8,8,8,0,8,8,4,,,,,,,,3.1,1666.7207915,1669.8256431,1669.8258445299998,0.3047994999997172,1670.2701994999998,1670.2701994999998,m,0.6681376000001364,1672.2375395999998,1672.2375395999998,75,1.22,,,,,sub-061,45,60,700,bloc_loop.csv,2023-10-25_13h51.26.525,PainUncertainty,2022.2.5,142.37652040319992,
aigu,moderee,stimuli/660Hz,stimuli/moderee,bloc_9,prob20hthp_12trials.xlsx,3,36,80,20,0,,,,,0,8,8,8,0,9,9,6,,,,,,,,4.1,1672.2375395999998,1676.3403193,1676.34044933,0.3048462000001564,1676.7882912,1676.7882912,n,0.8136162000000695,1679.3813088000002,1679.3813088000002,27,1.719,,,,,sub-061,45,60,700,bloc_loop.csv,2023-10-25_13h51.26.525,PainUncertainty,2022.2.5,142.37652040319992,
grave,moderee,stimuli/330Hz,stimuli/moderee,bloc_9,prob20hthp_12trials.xlsx,3,36,80,20,0,,,,,0,8,8,8,0,10,10,5,,,,,,,,4.2,1679.3813088000002,1683.5847346,1683.58480823,0.30475499999965905,1684.0286268999998,1684.0286268999998,n,0.6565369999998438,1686.6262243,1686.6262243,25,1.858,,,,,sub-061,45,60,700,bloc_loop.csv,2023-10-25_13h51.26.525,PainUncertainty,2022.2.5,142.37652040319992,
grave,forte,stimuli/330Hz,stimuli/forte,bloc_9,prob20hthp_12trials.xlsx,3,36,80,20,0,,,,,0,8,8,8,0,11,11,1,,,,,,,,3.7,1686.6262243,1690.3281975999998,1690.3284100300002,0.30497409999998126,1690.7724242,1690.7724242,m,0.8263993999999002,1693.4664183999998,1693.4664183999998,56,1.796,,,,,sub-061,45,60,700,bloc_loop.csv,2023-10-25_13h51.26.525,PainUncertainty,2022.2.5,142.37652040319992,
aigu,moderee,stimuli/660Hz,stimuli/moderee,bloc_9,prob20hthp_12trials.xlsx,3,36,80,20,0,,,,,0,8,8,8,1,0,12,6,,,,,,,,3.2,1693.4664183999998,1696.6695141999999,1696.6696332299998,0.3014996000001702,1697.1137215999997,1697.1137215999997,n,0.45076209999979255,1699.3355336,1699.3355336,15,1.698,,,,,sub-061,45,60,700,bloc_loop.csv,2023-10-25_13h51.26.525,PainUncertainty,2022.2.5,142.37652040319992,
grave,forte,stimuli/330Hz,stimuli/forte,bloc_9,prob20hthp_12trials.xlsx,3,36,80,20,0,,,,,0,8,8,8,1,1,13,3,,,,,,,,4.3,1699.3355336,1703.6352643999999,1703.6353724300002,0.3050496999999268,1704.0794041,1704.0794041,m,0.6808451000001696,1706.0009254000001,1706.0009254000001,81,1.175,,,,,sub-061,45,60,700,bloc_loop.csv,2023-10-25_13h51.26.525,PainUncertainty,2022.2.5,142.37652040319992,
grave,forte,stimuli/330Hz,stimuli/forte,bloc_9,prob20hthp_12trials.xlsx,3,36,80,20,0,,,,,0,8,8,8,1,2,14,2,,,,,,,,3.6,1706.0009254000001,1709.601287,1709.6013078299998,0.30524289999993925,1710.0457132000001,1710.0457132000001,m,1.2934518000001844,1712.5247110999999,1712.5247110999999,80,1.108,,,,,sub-061,45,60,700,bloc_loop.csv,2023-10-25_13h51.26.525,PainUncertainty,2022.2.5,142.37652040319992,
aigu,moderee,stimuli/660Hz,stimuli/moderee,bloc_9,prob20hthp_12trials.xlsx,3,36,80,20,0,,,,,0,8,8,8,1,3,15,8,,,,,,,,4.3,1712.5247110999999,1716.8242952,1716.8243526299998,0.30575130000033823,1717.2717761,1717.2717761,n,0.8579773000001296,1719.6861740999998,1719.6861740999998,12,1.495,,,,,sub-061,45,60,700,bloc_loop.csv,2023-10-25_13h51.26.525,PainUncertainty,2022.2.5,142.37652040319992,
aigu,moderee,stimuli/660Hz,stimuli/moderee,bloc_9,prob20hthp_12trials.xlsx,3,36,80,20,0,,,,,0,8,8,8,1,4,16,10,,,,,,,,4.8,1719.6861740999998,1724.4854016,1724.48553043,0.2992111000003206,1724.9296617,1724.9296617,n,1.7450494999998227,1728.2869912,1728.2869912,18,1.544,,,,,sub-061,45,60,700,bloc_loop.csv,2023-10-25_13h51.26.525,PainUncertainty,2022.2.5,142.37652040319992,
aigu,moderee,stimuli/660Hz,stimuli/moderee,bloc_9,prob20hthp_12trials.xlsx,3,36,80,20,0,,,,,0,8,8,8,1,5,17,7,,,,,,,,3.2,1728.2869912,1731.4864586999997,1731.4865270300002,0.3048124000001735,1731.9300471000001,1731.9300471000001,n,0.573695300000054,1734.8098332999998,1734.8098332999998,21,2.254,,,,,sub-061,45,60,700,bloc_loop.csv,2023-10-25_13h51.26.525,PainUncertainty,2022.2.5,142.37652040319992,
aigu,moderee,stimuli/660Hz,stimuli/moderee,bloc_9,prob20hthp_12trials.xlsx,3,36,80,20,0,,,,,0,8,8,8,1,6,18,9,,,,,,,,3.6,1734.8098332999998,1738.4103165000001,1738.41036593,0.30512799999996787,1738.8545328999999,1738.8545328999999,n,0.4342928999999458,1741.6693602999999,1741.6693602999999,23,2.31,,,,,sub-061,45,60,700,bloc_loop.csv,2023-10-25_13h51.26.525,PainUncertainty,2022.2.5,142.37652040319992,
aigu,forte,stimuli/660Hz,stimuli/forte,bloc_9,prob20hthp_12trials.xlsx,3,36,80,20,0,,,,,0,8,8,8,1,7,19,11,,,,,,,,4.4,1741.6693602999999,1746.0710132,1746.07101443,0.3050843999999415,1746.5150769000002,1746.5150769000002,m,0.6395985000003748,1749.3436201,1749.3436201,64,2.107,,,,,sub-061,45,60,700,bloc_loop.csv,2023-10-25_13h51.26.525,PainUncertainty,2022.2.5,142.37652040319992,
grave,moderee,stimuli/330Hz,stimuli/moderee,bloc_9,prob20hthp_12trials.xlsx,3,36,80,20,0,,,,,0,8,8,8,1,8,20,5,,,,,,,,4,1749.3436201,1753.3428218999998,1753.34284483,0.30518879999999626,1753.7915506999998,1753.7915506999998,n,0.5934759000001577,1755.2886721999998,1755.2886721999998,24,0.826,,,,,sub-061,45,60,700,bloc_loop.csv,2023-10-25_13h51.26.525,PainUncertainty,2022.2.5,142.37652040319992,
grave,forte,stimuli/330Hz,stimuli/forte,bloc_9,prob20hthp_12trials.xlsx,3,36,80,20,0,,,,,0,8,8,8,1,9,21,4,,,,,,,,3.9,1755.2886721999998,1759.1904654999998,1759.1905010300002,0.30512980000003154,1759.634791,1759.634791,m,0.7444675000001553,1762.1310614999998,1762.1310614999998,66,1.698,,,,,sub-061,45,60,700,bloc_loop.csv,2023-10-25_13h51.26.525,PainUncertainty,2022.2.5,142.37652040319992,
grave,forte,stimuli/330Hz,stimuli/forte,bloc_9,prob20hthp_12trials.xlsx,3,36,80,20,0,,,,,0,8,8,8,1,10,22,0,,,,,,,,4.8,1762.1310614999998,1766.9344231999999,1766.9346316299998,0.30506889999969644,1767.3785183999998,1767.3785183999998,m,0.5215321999999105,1770.0133160999999,1770.0133160999999,82,2.051,,,,,sub-061,45,60,700,bloc_loop.csv,2023-10-25_13h51.26.525,PainUncertainty,2022.2.5,142.37652040319992,
grave,forte,stimuli/330Hz,stimuli/forte,bloc_9,prob20hthp_12trials.xlsx,3,36,80,20,0,,,,,0,8,8,8,1,11,23,1,,,,,,,,5,1770.0133160999999,1775.018795,1775.01888633,0.3048932000001514,1775.4630335000002,1775.4630335000002,m,0.7827124000004915,1777.4625541999999,1777.4625541999999,78,1.163,,,,,sub-061,45,60,700,bloc_loop.csv,2023-10-25_13h51.26.525,PainUncertainty,2022.2.5,142.37652040319992,
grave,forte,stimuli/330Hz,stimuli/forte,bloc_9,prob20hthp_12trials.xlsx,3,36,80,20,0,,,,,0,8,8,8,2,0,24,0,,,,,,,,4.4,1777.4625541999999,1781.8667707999998,1781.8668256299998,0.30483760000015536,1782.3108108000001,1782.3108108000001,m,0.5797969000000194,1783.6833339,1783.6833339,80,0.738,,,,,sub-061,45,60,700,bloc_loop.csv,2023-10-25_13h51.26.525,PainUncertainty,2022.2.5,142.37652040319992,
grave,forte,stimuli/330Hz,stimuli/forte,bloc_9,prob20hthp_12trials.xlsx,3,36,80,20,0,,,,,0,8,8,8,2,1,25,3,,,,,,,,4.3,1783.6833339,1787.9856288,1787.98574823,0.3052198000000317,1788.4297449,1788.4297449,m,0.563566400000127,1792.04569,1792.04569,75,2.976,,,,,sub-061,45,60,700,bloc_loop.csv,2023-10-25_13h51.26.525,PainUncertainty,2022.2.5,142.37652040319992,
grave,moderee,stimuli/330Hz,stimuli/moderee,bloc_9,prob20hthp_12trials.xlsx,3,36,80,20,0,,,,,0,8,8,8,2,2,26,5,,,,,,,,4.1,1792.04569,1796.1461920000002,1796.14625453,0.30526579999968817,1796.5903711,1796.5903711,n,0.733378900000389,1798.7256165999997,1798.7256165999997,21,1.343,,,,,sub-061,45,60,700,bloc_loop.csv,2023-10-25_13h51.26.525,PainUncertainty,2022.2.5,142.37652040319992,
aigu,moderee,stimuli/660Hz,stimuli/moderee,bloc_9,prob20hthp_12trials.xlsx,3,36,80,20,0,,,,,0,8,8,8,2,3,27,10,,,,,,,,3.2,1798.7256165999997,1801.9247943999999,1801.92482553,0.30511470000010377,1802.3688824,1802.3688824,n,0.91114430000016,1804.5462724999998,1804.5462724999998,24,1.205,,,,,sub-061,45,60,700,bloc_loop.csv,2023-10-25_13h51.26.525,PainUncertainty,2022.2.5,142.37652040319992,
aigu,moderee,stimuli/660Hz,stimuli/moderee,bloc_9,prob20hthp_12trials.xlsx,3,36,80,20,0,,,,,0,8,8,8,2,4,28,6,,,,,,,,3.8,1804.5462724999998,1808.3491780999998,1808.34933263,0.30033819999971456,1808.7938937,1808.7938937,n,1.0073026000004575,1811.2444596,1811.2444596,27,1.378,,,,,sub-061,45,60,700,bloc_loop.csv,2023-10-25_13h51.26.525,PainUncertainty,2022.2.5,142.37652040319992,
aigu,moderee,stimuli/660Hz,stimuli/moderee,bloc_9,prob20hthp_12trials.xlsx,3,36,80,20,0,,,,,0,8,8,8,2,5,29,9,,,,,,,,3.3,1811.2444596,1814.5442583,1814.5443841299998,0.3050185000001875,1814.9925549,1814.9925549,n,0.5704632000001766,1818.3899892,1818.3899892,24,2.761,,,,,sub-061,45,60,700,bloc_loop.csv,2023-10-25_13h51.26.525,PainUncertainty,2022.2.5,142.37652040319992,
aigu,forte,stimuli/660Hz,stimuli/forte,bloc_9,prob20hthp_12trials.xlsx,3,36,80,20,0,,,,,0,8,8,8,2,6,30,11,,,,,,,,5,1818.3899892,1823.3927817999997,1823.3928411299999,0.30510770000000775,1823.8366827,1823.8366827,m,1.3198542000004636,1826.6727210999998,1826.6727210999998,72,1.442,,,,,sub-061,45,60,700,bloc_loop.csv,2023-10-25_13h51.26.525,PainUncertainty,2022.2.5,142.37652040319992,
aigu,moderee,stimuli/660Hz,stimuli/moderee,bloc_9,prob20hthp_12trials.xlsx,3,36,80,20,0,,,,,0,8,8,8,2,7,31,8,,,,,,,,4,1826.6727210999998,1830.6785317999997,1830.67875083,0.30164949999971213,1831.1227749999998,1831.1227749999998,n,0.6524931000003562,1833.0499765,1833.0499765,23,1.226,,,,,sub-061,45,60,700,bloc_loop.csv,2023-10-25_13h51.26.525,PainUncertainty,2022.2.5,142.37652040319992,
aigu,moderee,stimuli/660Hz,stimuli/moderee,bloc_9,prob20hthp_12trials.xlsx,3,36,80,20,0,,,,,0,8,8,8,2,8,32,7,,,,,,,,3.1,1833.0499765,1836.1508897999997,1836.15104613,0.304932000000008,1836.5952330999999,1836.5952330999999,n,0.4844090999999935,1838.5195177,1838.5195177,28,1.358,,,,,sub-061,45,60,700,bloc_loop.csv,2023-10-25_13h51.26.525,PainUncertainty,2022.2.5,142.37652040319992,
grave,forte,stimuli/330Hz,stimuli/forte,bloc_9,prob20hthp_12trials.xlsx,3,36,80,20,0,,,,,0,8,8,8,2,9,33,1,,,,,,,,5,1838.5195177,1843.5201582999998,1843.52032903,0.3000053000000662,1843.9647105999998,1843.9647105999998,m,0.5635268999999425,1845.6961983,1845.6961983,74,1.115,,,,,sub-061,45,60,700,bloc_loop.csv,2023-10-25_13h51.26.525,PainUncertainty,2022.2.5,142.37652040319992,
grave,forte,stimuli/330Hz,stimuli/forte,bloc_9,prob20hthp_12trials.xlsx,3,36,80,20,0,,,,,0,8,8,8,2,10,34,4,,,,,,,,3,1845.6961983,1848.7011782999998,1848.70119573,0.30489689999967595,1849.1453729999998,1849.1453729999998,m,0.5908469999999397,1851.8672416999998,1851.8672416999998,69,2.079,,,,,sub-061,45,60,700,bloc_loop.csv,2023-10-25_13h51.26.525,PainUncertainty,2022.2.5,142.37652040319992,
grave,forte,stimuli/330Hz,stimuli/forte,bloc_9,prob20hthp_12trials.xlsx,3,36,80,20,0,,,,,0,8,8,8,2,11,35,2,,,,,,,,3.8,1851.8672416999998,1855.6676904,1855.6676262299998,0.30521660000022166,1856.1115882,1856.1115882,m,0.4675879999999779,1858.4852193000002,1858.4852193000002,69,1.88,,,,,sub-061,45,60,700,bloc_loop.csv,2023-10-25_13h51.26.525,PainUncertainty,2022.2.5,142.37652040319992,
