cue_,stimulus_,cue_fichier,stimulus_fichier,block_name,block_trials_file,block_n_reps,block_ntrials,block_prob_highP_highT,block_prob_highP_lowT,block_pause_after,Bloc_essai.thisRepN,Bloc_essai.thisTrialN,Bloc_essai.thisN,Bloc_essai.thisIndex,blocks.thisRepN,blocks.thisTrialN,blocks.thisN,blocks.thisIndex,trials.thisRepN,trials.thisTrialN,trials.thisN,trials.thisIndex,pause_loop.thisRepN,pause_loop.thisTrialN,pause_loop.thisN,pause_loop.thisIndex,key_resp_5.started,start_calib.started,key_resp_2.started,ISI_duration,pause.started,pause.stopped,cue.started,ISI.started,choice_pain.started,Choice.started,choice_pain.keys,choice_pain.rt,main_text.started,confirm_text.started,ratingScale.response,ratingScale.rt,key_resp_3.started,key_resp_6.started,participant,low_ma,high_ma,failsafe_ma,block_file,date,expName,psychopyVersion,frameRate,
aigu,forte,stimuli/660Hz,stimuli/forte,,,,,,,,0,0,0,3,,,,,,,,,,,,,38.58566930000052,41.43234740000025,48.82120699999996,3.2,51.05855969999993,54.25932069999999,54.25928111999974,0.3053367000002254,54.70381559999987,54.70381559999987,m,0.6251625999993848,60.19737129999976,60.19737129999976,70,4.778,,,sub-037,50,105,700,bloc_loop.csv,2023-07-05_13h01.17.923,PainUncertainty,2022.2.5,144.69518512283244,
aigu,moderee,stimuli/660Hz,stimuli/moderee,,,,,,,,0,1,1,2,,,,,,,,,,,,,,,,4.4,60.19737129999976,64.60140090000004,64.60118792000003,0.304894100000638,65.04878910000025,65.04878910000025,n,0.8461819999993168,71.78564110000025,71.78564110000025,33,5.815,,,sub-037,50,105,700,bloc_loop.csv,2023-07-05_13h01.17.923,PainUncertainty,2022.2.5,144.69518512283244,
grave,forte,stimuli/330Hz,stimuli/forte,,,,,,,,0,2,2,1,,,,,,,,,,,,,,,,3,71.78564110000025,74.79019859999971,74.7898041200001,0.3048663999998098,75.23386260000007,75.23386260000007,m,0.6212237999989156,80.72167050000007,80.72167050000007,62,4.79,,,sub-037,50,105,700,bloc_loop.csv,2023-07-05_13h01.17.923,PainUncertainty,2022.2.5,144.69518512283244,
grave,moderee,stimuli/330Hz,stimuli/moderee,,,,,,,,0,3,3,0,,,,,,,,,,,,,,,,4,80.72167050000007,84.7219414000001,84.72157152000045,0.3054876999995031,85.16995490000045,85.16995490000045,m,0.21565059999920777,103.3955089000001,103.3955089000001,33,17.985,,,sub-037,50,105,700,bloc_loop.csv,2023-07-05_13h01.17.923,PainUncertainty,2022.2.5,144.69518512283244,
aigu,moderee,stimuli/660Hz,stimuli/moderee,bloc_1,prob20hthp_12trials.xlsx,4,48,20,80,0,,,,,0,0,0,0,0,0,0,7,,,,,,,,4.6,152.1575598999998,156.75855820000015,156.7584470200004,0.3051267999999254,157.2061807,157.2061807,n,1.044921599999725,165.17146630000025,165.17146630000025,29,6.837,,,sub-037,50,105,700,bloc_loop.csv,2023-07-05_13h01.17.923,PainUncertainty,2022.2.5,144.69518512283244,
grave,forte,stimuli/330Hz,stimuli/forte,bloc_1,prob20hthp_12trials.xlsx,4,48,20,80,0,,,,,0,0,0,0,0,1,1,2,,,,,,,,4.5,165.17146630000025,169.67639099999997,169.67621162000023,0.305202300000019,170.12093660000028,170.12093660000028,m,1.0432577999999921,175.48124670000016,175.48124670000016,61,4.233,,,sub-037,50,105,700,bloc_loop.csv,2023-07-05_13h01.17.923,PainUncertainty,2022.2.5,144.69518512283244,
grave,moderee,stimuli/330Hz,stimuli/moderee,bloc_1,prob20hthp_12trials.xlsx,4,48,20,80,0,,,,,0,0,0,0,0,2,2,5,,,,,,,,3.7,175.48124670000016,179.18479800000023,179.18458771999985,0.3046433999998044,179.6286525000005,179.6286525000005,n,0.7015971999990143,184.76891810000052,184.76891810000052,25,4.372,,,sub-037,50,105,700,bloc_loop.csv,2023-07-05_13h01.17.923,PainUncertainty,2022.2.5,144.69518512283244,
aigu,forte,stimuli/660Hz,stimuli/forte,bloc_1,prob20hthp_12trials.xlsx,4,48,20,80,0,,,,,0,0,0,0,0,3,3,11,,,,,,,,4.1,184.76891810000052,188.8731985000004,188.87299982000013,0.30491039999924396,189.3174036999999,189.3174036999999,m,1.0312415999997029,196.69267610000043,196.69267610000043,69,6.268,,,sub-037,50,105,700,bloc_loop.csv,2023-07-05_13h01.17.923,PainUncertainty,2022.2.5,144.69518512283244,
aigu,moderee,stimuli/660Hz,stimuli/moderee,bloc_1,prob20hthp_12trials.xlsx,4,48,20,80,0,,,,,0,0,0,0,0,4,4,10,,,,,,,,3.6,196.69267610000043,200.29860280000048,200.29840191999983,0.3000956000005317,200.74288690000049,200.74288690000049,n,0.9934042999993835,211.93989020000026,211.93989020000026,40,10.13,,,sub-037,50,105,700,bloc_loop.csv,2023-07-05_13h01.17.923,PainUncertainty,2022.2.5,144.69518512283244,
grave,forte,stimuli/330Hz,stimuli/forte,bloc_1,prob20hthp_12trials.xlsx,4,48,20,80,0,,,,,0,0,0,0,0,5,5,3,,,,,,,,5,211.93989020000026,216.9397512000005,216.93942392000054,0.30455369999981485,217.3834579000004,217.3834579000004,m,0.8748931999998604,222.09258510000018,222.09258510000018,74,2.732,,,sub-037,50,105,700,bloc_loop.csv,2023-07-05_13h01.17.923,PainUncertainty,2022.2.5,144.69518512283244,
grave,forte,stimuli/330Hz,stimuli/forte,bloc_1,prob20hthp_12trials.xlsx,4,48,20,80,0,,,,,0,0,0,0,0,6,6,4,,,,,,,,4.8,222.09258510000018,226.89207609999994,226.89189742000008,0.3054677999998603,227.34001660000013,227.34001660000013,m,0.5232245999995939,234.1459700000005,234.1459700000005,79,6.206,,,sub-037,50,105,700,bloc_loop.csv,2023-07-05_13h01.17.923,PainUncertainty,2022.2.5,144.69518512283244,
aigu,moderee,stimuli/660Hz,stimuli/moderee,bloc_1,prob20hthp_12trials.xlsx,4,48,20,80,0,,,,,0,0,0,0,0,7,7,6,,,,,,,,3.6,234.1459700000005,237.74763600000006,237.74738152000054,0.30524309999964316,238.1938908000002,238.1938908000002,n,0.5201575999990382,241.8323577000001,241.8323577000001,35,3.06,,,sub-037,50,105,700,bloc_loop.csv,2023-07-05_13h01.17.923,PainUncertainty,2022.2.5,144.69518512283244,
aigu,moderee,stimuli/660Hz,stimuli/moderee,bloc_1,prob20hthp_12trials.xlsx,4,48,20,80,0,,,,,0,0,0,0,0,8,8,9,,,,,,,,3,241.8323577000001,244.83841060000032,244.83817042000055,0.3049942999996347,245.28253490000043,245.28253490000043,n,0.5166007999996509,253.51954170000045,253.51954170000045,32,7.634,,,sub-037,50,105,700,bloc_loop.csv,2023-07-05_13h01.17.923,PainUncertainty,2022.2.5,144.69518512283244,
grave,forte,stimuli/330Hz,stimuli/forte,bloc_1,prob20hthp_12trials.xlsx,4,48,20,80,0,,,,,0,0,0,0,0,9,9,1,,,,,,,,4.3,253.51954170000045,257.8194153000004,257.81946952000044,0.3050312000004851,258.26787160000003,258.26787160000003,m,0.26637359999949695,263.11089489999995,263.11089489999995,84,4.5,,,sub-037,50,105,700,bloc_loop.csv,2023-07-05_13h01.17.923,PainUncertainty,2022.2.5,144.69518512283244,
aigu,moderee,stimuli/660Hz,stimuli/moderee,bloc_1,prob20hthp_12trials.xlsx,4,48,20,80,0,,,,,0,0,0,0,0,10,10,8,,,,,,,,4.2,263.11089489999995,267.31364140000005,267.3136734200002,0.304926499999965,267.7615943999999,267.7615943999999,n,0.14276049999898532,273.61294290000023,273.61294290000023,36,5.63,,,sub-037,50,105,700,bloc_loop.csv,2023-07-05_13h01.17.923,PainUncertainty,2022.2.5,144.69518512283244,
grave,forte,stimuli/330Hz,stimuli/forte,bloc_1,prob20hthp_12trials.xlsx,4,48,20,80,0,,,,,0,0,0,0,0,11,11,0,,,,,,,,4.9,273.61294290000023,278.5160855000004,278.5159008200003,0.3049727999996321,278.96025759999975,278.96025759999975,m,0.1560336999991705,284.48080279999976,284.48080279999976,86,5.31,,,sub-037,50,105,700,bloc_loop.csv,2023-07-05_13h01.17.923,PainUncertainty,2022.2.5,144.69518512283244,
grave,forte,stimuli/330Hz,stimuli/forte,bloc_1,prob20hthp_12trials.xlsx,4,48,20,80,0,,,,,0,0,0,0,1,0,12,4,,,,,,,,3.5,284.48080279999976,287.9830313000002,287.9826622200003,0.30492599999979575,288.42721600000004,288.42721600000004,m,0.36006759999963833,291.29266430000007,291.29266430000007,90,2.429,,,sub-037,50,105,700,bloc_loop.csv,2023-07-05_13h01.17.923,PainUncertainty,2022.2.5,144.69518512283244,
aigu,moderee,stimuli/660Hz,stimuli/moderee,bloc_1,prob20hthp_12trials.xlsx,4,48,20,80,0,,,,,0,0,0,0,1,1,13,6,,,,,,,,3.4,291.29266430000007,294.69864570000027,294.69852442,0.30509840000013355,295.14321370000016,295.14321370000016,n,0.22761919999993552,300.4505192000006,300.4505192000006,38,5.02,,,sub-037,50,105,700,bloc_loop.csv,2023-07-05_13h01.17.923,PainUncertainty,2022.2.5,144.69518512283244,
grave,moderee,stimuli/330Hz,stimuli/moderee,bloc_1,prob20hthp_12trials.xlsx,4,48,20,80,0,,,,,0,0,0,0,1,2,14,5,,,,,,,,4.6,300.4505192000006,305.0540020999997,305.0539276200002,0.3051445999999487,305.49814700000024,305.49814700000024,n,0.5705403999991177,314.7087749000002,314.7087749000002,36,8.577,,,sub-037,50,105,700,bloc_loop.csv,2023-07-05_13h01.17.923,PainUncertainty,2022.2.5,144.69518512283244,
aigu,moderee,stimuli/660Hz,stimuli/moderee,bloc_1,prob20hthp_12trials.xlsx,4,48,20,80,0,,,,,0,0,0,0,1,3,15,10,,,,,,,,4.8,314.7087749000002,319.5141186000001,319.5139126199997,0.3050518000000011,319.9587132000006,319.9587132000006,n,0.41500429999905464,323.3389579000004,323.3389579000004,39,2.906,,,sub-037,50,105,700,bloc_loop.csv,2023-07-05_13h01.17.923,PainUncertainty,2022.2.5,144.69518512283244,
aigu,moderee,stimuli/660Hz,stimuli/moderee,bloc_1,prob20hthp_12trials.xlsx,4,48,20,80,0,,,,,0,0,0,0,1,4,16,9,,,,,,,,4.1,323.3389579000004,327.4389448000002,327.4388138199997,0.30484340000020893,327.8900418000003,327.8900418000003,n,0.24834479999935866,332.6591143000005,332.6591143000005,42,4.456,,,sub-037,50,105,700,bloc_loop.csv,2023-07-05_13h01.17.923,PainUncertainty,2022.2.5,144.69518512283244,
aigu,moderee,stimuli/660Hz,stimuli/moderee,bloc_1,prob20hthp_12trials.xlsx,4,48,20,80,0,,,,,0,0,0,0,1,5,17,8,,,,,,,,4.9,332.6591143000005,337.5650642999999,337.5648134200005,0.3022725000000719,338.00970550000056,338.00970550000056,n,0.2798832999997103,345.3984849999997,345.3984849999997,43,7.034,,,sub-037,50,105,700,bloc_loop.csv,2023-07-05_13h01.17.923,PainUncertainty,2022.2.5,144.69518512283244,
aigu,forte,stimuli/660Hz,stimuli/forte,bloc_1,prob20hthp_12trials.xlsx,4,48,20,80,0,,,,,0,0,0,0,1,6,18,11,,,,,,,,4,345.3984849999997,349.40020410000034,349.40014422000013,0.30556589999923744,349.84903209999993,349.84903209999993,m,0.41115889999946376,354.5105076,354.5105076,76,4.177,,,sub-037,50,105,700,bloc_loop.csv,2023-07-05_13h01.17.923,PainUncertainty,2022.2.5,144.69518512283244,
aigu,moderee,stimuli/660Hz,stimuli/moderee,bloc_1,prob20hthp_12trials.xlsx,4,48,20,80,0,,,,,0,0,0,0,1,7,19,7,,,,,,,,3.6,354.5105076,358.1166997,358.11632732000044,0.3011506000002555,358.5614360999998,358.5614360999998,n,0.5249351999991632,364.45189089999985,364.45189089999985,35,5.285,,,sub-037,50,105,700,bloc_loop.csv,2023-07-05_13h01.17.923,PainUncertainty,2022.2.5,144.69518512283244,
grave,forte,stimuli/330Hz,stimuli/forte,bloc_1,prob20hthp_12trials.xlsx,4,48,20,80,0,,,,,0,0,0,0,1,8,20,0,,,,,,,,3.4,364.45189089999985,367.85337640000034,367.85319582000056,0.30504259999997885,368.30169840000053,368.30169840000053,m,0.19678169999951933,372.5235437000001,372.5235437000001,83,3.977,,,sub-037,50,105,700,bloc_loop.csv,2023-07-05_13h01.17.923,PainUncertainty,2022.2.5,144.69518512283244,
grave,forte,stimuli/330Hz,stimuli/forte,bloc_1,prob20hthp_12trials.xlsx,4,48,20,80,0,,,,,0,0,0,0,1,9,21,3,,,,,,,,4.6,372.5235437000001,377.1252672999999,377.1250992199998,0.3051294000006237,377.5693763999998,377.5693763999998,m,0.1702748999987307,381.8269175000005,381.8269175000005,85,4.025,,,sub-037,50,105,700,bloc_loop.csv,2023-07-05_13h01.17.923,PainUncertainty,2022.2.5,144.69518512283244,
grave,forte,stimuli/330Hz,stimuli/forte,bloc_1,prob20hthp_12trials.xlsx,4,48,20,80,0,,,,,0,0,0,0,1,10,22,1,,,,,,,,4.8,381.8269175000005,386.6267077000002,386.62647642,0.3048527999999351,387.0707607000004,387.0707607000004,m,0.20953849999932572,393.2238963,393.2238963,88,5.887,,,sub-037,50,105,700,bloc_loop.csv,2023-07-05_13h01.17.923,PainUncertainty,2022.2.5,144.69518512283244,
grave,forte,stimuli/330Hz,stimuli/forte,bloc_1,prob20hthp_12trials.xlsx,4,48,20,80,0,,,,,0,0,0,0,1,11,23,2,,,,,,,,5,393.2238963,398.2250230999998,398.2248222200001,0.30506490000061603,398.6692479000003,398.6692479000003,m,0.1592025999989346,401.44094529999984,401.44094529999984,94,2.545,,,sub-037,50,105,700,bloc_loop.csv,2023-07-05_13h01.17.923,PainUncertainty,2022.2.5,144.69518512283244,
grave,moderee,stimuli/330Hz,stimuli/moderee,bloc_1,prob20hthp_12trials.xlsx,4,48,20,80,0,,,,,0,0,0,0,2,0,24,5,,,,,,,,3.8,401.44094529999984,405.24710740000046,405.2478267199999,0.2995912000005774,405.69256920000043,405.69256920000043,m,0.15273959999922226,420.4472633000005,420.4472633000005,38,14.548,,,sub-037,50,105,700,bloc_loop.csv,2023-07-05_13h01.17.923,PainUncertainty,2022.2.5,144.69518512283244,
aigu,moderee,stimuli/660Hz,stimuli/moderee,bloc_1,prob20hthp_12trials.xlsx,4,48,20,80,0,,,,,0,0,0,0,2,1,25,6,,,,,,,,4.2,420.4472633000005,424.6518579000003,424.65157752000005,0.30509650000021793,425.0962522,425.0962522,n,0.9533118999988801,432.8199437000003,432.8199437000003,35,6.691,,,sub-037,50,105,700,bloc_loop.csv,2023-07-05_13h01.17.923,PainUncertainty,2022.2.5,144.69518512283244,
grave,forte,stimuli/330Hz,stimuli/forte,bloc_1,prob20hthp_12trials.xlsx,4,48,20,80,0,,,,,0,0,0,0,2,2,26,1,,,,,,,,3.1,432.8199437000003,435.9240835999999,435.9237902199998,0.3051528000005419,436.36870929999986,436.36870929999986,m,0.2503259999994043,440.3469815999997,440.3469815999997,84,3.648,,,sub-037,50,105,700,bloc_loop.csv,2023-07-05_13h01.17.923,PainUncertainty,2022.2.5,144.69518512283244,
aigu,moderee,stimuli/660Hz,stimuli/moderee,bloc_1,prob20hthp_12trials.xlsx,4,48,20,80,0,,,,,0,0,0,0,2,3,27,10,,,,,,,,4.1,440.3469815999997,444.44841950000045,444.4463674200001,0.30453899999974965,444.8900715,444.8900715,n,0.48536739999963174,450.6753484000001,450.6753484000001,38,5.219,,,sub-037,50,105,700,bloc_loop.csv,2023-07-05_13h01.17.923,PainUncertainty,2022.2.5,144.69518512283244,
aigu,forte,stimuli/660Hz,stimuli/forte,bloc_1,prob20hthp_12trials.xlsx,4,48,20,80,0,,,,,0,0,0,0,2,4,28,11,,,,,,,,5,450.6753484000001,455.6764447000005,455.67617112000016,0.3051455000004353,456.12102649999997,456.12102649999997,m,1.8703807999991113,468.7382260000004,468.7382260000004,50,10.665,,,sub-037,50,105,700,bloc_loop.csv,2023-07-05_13h01.17.923,PainUncertainty,2022.2.5,144.69518512283244,
aigu,moderee,stimuli/660Hz,stimuli/moderee,bloc_1,prob20hthp_12trials.xlsx,4,48,20,80,0,,,,,0,0,0,0,2,5,29,9,,,,,,,,4.4,468.7382260000004,473.13766550000037,473.13731492000034,0.3048503999998502,473.5856276000004,473.5856276000004,n,0.541400899999644,477.38414470000043,477.38414470000043,36,3.192,,,sub-037,50,105,700,bloc_loop.csv,2023-07-05_13h01.17.923,PainUncertainty,2022.2.5,144.69518512283244,
aigu,moderee,stimuli/660Hz,stimuli/moderee,bloc_1,prob20hthp_12trials.xlsx,4,48,20,80,0,,,,,0,0,0,0,2,6,30,7,,,,,,,,4.8,477.38414470000043,482.1869496999998,482.1868560200005,0.3045787000000928,482.6310566000002,482.6310566000002,n,0.5749735999997938,485.6015593000002,485.6015593000002,35,2.323,,,sub-037,50,105,700,bloc_loop.csv,2023-07-05_13h01.17.923,PainUncertainty,2022.2.5,144.69518512283244,
grave,forte,stimuli/330Hz,stimuli/forte,bloc_1,prob20hthp_12trials.xlsx,4,48,20,80,0,,,,,0,0,0,0,2,7,31,4,,,,,,,,4.7,485.6015593000002,490.30546779999986,490.30535441999973,0.30514250000032916,490.75377990000015,490.75377990000015,m,0.19499909999922238,493.80161810000027,493.80161810000027,86,2.794,,,sub-037,50,105,700,bloc_loop.csv,2023-07-05_13h01.17.923,PainUncertainty,2022.2.5,144.69518512283244,
grave,forte,stimuli/330Hz,stimuli/forte,bloc_1,prob20hthp_12trials.xlsx,4,48,20,80,0,,,,,0,0,0,0,2,8,32,0,,,,,,,,4.5,493.80161810000027,498.30645640000057,498.3061969200003,0.3051961000001029,498.7505818999998,498.7505818999998,m,0.2629237999990437,502.6551390000004,502.6551390000004,83,3.587,,,sub-037,50,105,700,bloc_loop.csv,2023-07-05_13h01.17.923,PainUncertainty,2022.2.5,144.69518512283244,
grave,forte,stimuli/330Hz,stimuli/forte,bloc_1,prob20hthp_12trials.xlsx,4,48,20,80,0,,,,,0,0,0,0,2,9,33,3,,,,,,,,3.5,502.6551390000004,506.1545489,506.15447472000005,0.30539410000073985,506.5990655000005,506.5990655000005,m,0.23616719999972702,510.8740453999999,510.8740453999999,92,3.925,,,sub-037,50,105,700,bloc_loop.csv,2023-07-05_13h01.17.923,PainUncertainty,2022.2.5,144.69518512283244,
aigu,moderee,stimuli/660Hz,stimuli/moderee,bloc_1,prob20hthp_12trials.xlsx,4,48,20,80,0,,,,,0,0,0,0,2,10,34,8,,,,,,,,4.4,510.8740453999999,515.2741789000002,515.2740525200002,0.30450889999974606,515.7183296000003,515.7183296000003,n,0.45552999999927124,521.7920769000002,521.7920769000002,22,5.546,,,sub-037,50,105,700,bloc_loop.csv,2023-07-05_13h01.17.923,PainUncertainty,2022.2.5,144.69518512283244,
grave,forte,stimuli/330Hz,stimuli/forte,bloc_1,prob20hthp_12trials.xlsx,4,48,20,80,0,,,,,0,0,0,0,2,11,35,2,,,,,,,,3.5,521.7920769000002,525.2960788999999,525.2959529200002,0.3049205000006623,525.7400014000004,525.7400014000004,m,0.15172979999897507,528.4721633999998,528.4721633999998,88,2.525,,,sub-037,50,105,700,bloc_loop.csv,2023-07-05_13h01.17.923,PainUncertainty,2022.2.5,144.69518512283244,
grave,forte,stimuli/330Hz,stimuli/forte,bloc_1,prob20hthp_12trials.xlsx,4,48,20,80,0,,,,,0,0,0,0,3,0,36,3,,,,,,,,4.8,528.4721633999998,533.2759361999997,533.2757498200003,0.30524120000063704,533.7207563000002,533.7207563000002,m,0.19561139999950683,537.8250177999998,537.8250177999998,90,3.83,,,sub-037,50,105,700,bloc_loop.csv,2023-07-05_13h01.17.923,PainUncertainty,2022.2.5,144.69518512283244,
aigu,moderee,stimuli/660Hz,stimuli/moderee,bloc_1,prob20hthp_12trials.xlsx,4,48,20,80,0,,,,,0,0,0,0,3,1,37,8,,,,,,,,3.2,537.8250177999998,541.0267890000005,541.0267378200001,0.30487559999983205,541.4709007000001,541.4709007000001,n,0.5899470999993355,545.6261657000005,545.6261657000005,35,3.484,,,sub-037,50,105,700,bloc_loop.csv,2023-07-05_13h01.17.923,PainUncertainty,2022.2.5,144.69518512283244,
grave,forte,stimuli/330Hz,stimuli/forte,bloc_1,prob20hthp_12trials.xlsx,4,48,20,80,0,,,,,0,0,0,0,3,2,38,2,,,,,,,,3.5,545.6261657000005,549.1320648999999,549.1318362200004,0.3050239000003785,549.5785580000002,549.5785580000002,m,0.1266827999988891,552.5156315000004,552.5156315000004,83,2.733,,,sub-037,50,105,700,bloc_loop.csv,2023-07-05_13h01.17.923,PainUncertainty,2022.2.5,144.69518512283244,
aigu,moderee,stimuli/660Hz,stimuli/moderee,bloc_1,prob20hthp_12trials.xlsx,4,48,20,80,0,,,,,0,0,0,0,3,3,39,9,,,,,,,,3,552.5156315000004,555.5215527999999,555.5214936200005,0.3049220000002606,555.9660918999998,555.9660918999998,n,0.37413199999991775,560.3617519999998,560.3617519999998,38,3.964,,,sub-037,50,105,700,bloc_loop.csv,2023-07-05_13h01.17.923,PainUncertainty,2022.2.5,144.69518512283244,
aigu,moderee,stimuli/660Hz,stimuli/moderee,bloc_1,prob20hthp_12trials.xlsx,4,48,20,80,0,,,,,0,0,0,0,3,4,40,7,,,,,,,,4.5,560.3617519999998,564.8630174,564.8628243200005,0.3053480999997191,565.3095142000002,565.3095142000002,n,0.15782899999976507,570.3214960000005,570.3214960000005,40,4.789,,,sub-037,50,105,700,bloc_loop.csv,2023-07-05_13h01.17.923,PainUncertainty,2022.2.5,144.69518512283244,
grave,forte,stimuli/330Hz,stimuli/forte,bloc_1,prob20hthp_12trials.xlsx,4,48,20,80,0,,,,,0,0,0,0,3,5,41,4,,,,,,,,4.7,570.3214960000005,575.0239901000004,575.0238738200001,0.3016181000002689,575.4688520999998,575.4688520999998,m,0.18793949999962933,580.6315995000004,580.6315995000004,83,4.914,,,sub-037,50,105,700,bloc_loop.csv,2023-07-05_13h01.17.923,PainUncertainty,2022.2.5,144.69518512283244,
aigu,forte,stimuli/660Hz,stimuli/forte,bloc_1,prob20hthp_12trials.xlsx,4,48,20,80,0,,,,,0,0,0,0,3,6,42,11,,,,,,,,4.2,580.6315995000004,584.8311371999998,584.8309853200003,0.3050427000007403,585.2777444000003,585.2777444000003,n,0.16557079999893176,593.6743434,593.6743434,83,8.155,,,sub-037,50,105,700,bloc_loop.csv,2023-07-05_13h01.17.923,PainUncertainty,2022.2.5,144.69518512283244,
aigu,moderee,stimuli/660Hz,stimuli/moderee,bloc_1,prob20hthp_12trials.xlsx,4,48,20,80,0,,,,,0,0,0,0,3,7,43,6,,,,,,,,3.6,593.6743434,597.2765651999998,597.2764039200006,0.30494459999954415,597.720883,597.720883,n,0.4813752000000022,601.2036846000001,601.2036846000001,37,2.946,,,sub-037,50,105,700,bloc_loop.csv,2023-07-05_13h01.17.923,PainUncertainty,2022.2.5,144.69518512283244,
grave,moderee,stimuli/330Hz,stimuli/moderee,bloc_1,prob20hthp_12trials.xlsx,4,48,20,80,0,,,,,0,0,0,0,3,8,44,5,,,,,,,,5,601.2036846000001,606.2081945,606.2080078200001,0.30522970000038185,606.6526955999998,606.6526955999998,n,0.5273652999994738,609.7559673000005,609.7559673000005,38,2.519,,,sub-037,50,105,700,bloc_loop.csv,2023-07-05_13h01.17.923,PainUncertainty,2022.2.5,144.69518512283244,
aigu,moderee,stimuli/660Hz,stimuli/moderee,bloc_1,prob20hthp_12trials.xlsx,4,48,20,80,0,,,,,0,0,0,0,3,9,45,10,,,,,,,,5,609.7559673000005,614.7577989000001,614.7577160200003,0.30501300000014453,615.2020007000001,615.2020007000001,n,0.6057271999998193,618.0044040000002,618.0044040000002,32,2.123,,,sub-037,50,105,700,bloc_loop.csv,2023-07-05_13h01.17.923,PainUncertainty,2022.2.5,144.69518512283244,
grave,forte,stimuli/330Hz,stimuli/forte,bloc_1,prob20hthp_12trials.xlsx,4,48,20,80,0,,,,,0,0,0,0,3,10,46,1,,,,,,,,3,618.0044040000002,621.0085325,621.0083693199999,0.30521849999968254,621.4529665999999,621.4529665999999,m,0.2653149999987363,626.6984266999998,626.6984266999998,89,4.914,,,sub-037,50,105,700,bloc_loop.csv,2023-07-05_13h01.17.923,PainUncertainty,2022.2.5,144.69518512283244,
grave,forte,stimuli/330Hz,stimuli/forte,bloc_1,prob20hthp_12trials.xlsx,4,48,20,80,0,,,,,0,0,0,0,3,11,47,0,,,,,,,,4.9,626.6984266999998,631.6000331000005,631.6000339200004,0.30555959999946936,632.0493575,632.0493575,m,0.1386650999993435,639.6779033000003,639.6779033000003,88,7.436,,,sub-037,50,105,700,bloc_loop.csv,2023-07-05_13h01.17.923,PainUncertainty,2022.2.5,144.69518512283244,
aigu,forte,stimuli/660Hz,stimuli/forte,bloc_2,prob50_50_4trials.xlsx,2,8,50,50,1,,,,,0,1,1,1,0,0,0,3,,,,,,,,4.8,639.6779033000003,644.4835675000004,644.4833333199999,0.30549490000066726,644.9276798999999,644.9276798999999,n,0.18462999999974272,650.1985095999999,650.1985095999999,87,5.004,,,sub-037,50,105,700,bloc_loop.csv,2023-07-05_13h01.17.923,PainUncertainty,2022.2.5,144.69518512283244,
grave,moderee,stimuli/330Hz,stimuli/moderee,bloc_2,prob50_50_4trials.xlsx,2,8,50,50,1,,,,,0,1,1,1,0,1,1,0,,,,,,,,4.5,650.1985095999999,654.7001049,654.6999336200001,0.30505989999983285,655.1481045,655.1481045,n,0.5802965999992011,662.6171148000003,662.6171148000003,32,6.824,,,sub-037,50,105,700,bloc_loop.csv,2023-07-05_13h01.17.923,PainUncertainty,2022.2.5,144.69518512283244,
grave,forte,stimuli/330Hz,stimuli/forte,bloc_2,prob50_50_4trials.xlsx,2,8,50,50,1,,,,,0,1,1,1,0,2,2,1,,,,,,,,3.1,662.6171148000003,665.7226228,665.7224510199999,0.3048220999999103,666.1663911000005,666.1663911000005,m,0.2807097999993857,668.2123247999998,668.2123247999998,87,1.691,,,sub-037,50,105,700,bloc_loop.csv,2023-07-05_13h01.17.923,PainUncertainty,2022.2.5,144.69518512283244,
aigu,moderee,stimuli/660Hz,stimuli/moderee,bloc_2,prob50_50_4trials.xlsx,2,8,50,50,1,,,,,0,1,1,1,0,3,3,2,,,,,,,,3.3,668.2123247999998,671.5145674000005,671.5144140200005,0.2995525999995152,671.9531917000004,671.9531917000004,n,0.4946163999993587,676.9871865000005,676.9871865000005,42,4.476,,,sub-037,50,105,700,bloc_loop.csv,2023-07-05_13h01.17.923,PainUncertainty,2022.2.5,144.69518512283244,
aigu,moderee,stimuli/660Hz,stimuli/moderee,bloc_2,prob50_50_4trials.xlsx,2,8,50,50,1,,,,,0,1,1,1,1,0,4,2,,,,,,,,4,676.9871865000005,680.9879427000005,680.9877797200002,0.30488920000061626,681.4321049999999,681.4321049999999,n,0.5446680999993987,684.5173488999999,684.5173488999999,45,2.483,,,sub-037,50,105,700,bloc_loop.csv,2023-07-05_13h01.17.923,PainUncertainty,2022.2.5,144.69518512283244,
grave,moderee,stimuli/330Hz,stimuli/moderee,bloc_2,prob50_50_4trials.xlsx,2,8,50,50,1,,,,,0,1,1,1,1,1,5,0,,,,,,,,4.7,684.5173488999999,689.2179702000003,689.21785512,0.3051548000003095,689.6625441000006,689.6625441000006,n,0.8607352999997602,697.1300790000005,697.1300790000005,43,6.537,,,sub-037,50,105,700,bloc_loop.csv,2023-07-05_13h01.17.923,PainUncertainty,2022.2.5,144.69518512283244,
aigu,forte,stimuli/660Hz,stimuli/forte,bloc_2,prob50_50_4trials.xlsx,2,8,50,50,1,,,,,0,1,1,1,1,2,6,3,,,,,,,,3.2,697.1300790000005,700.3306651000003,700.3305359199999,0.30498179999995045,700.7772217000002,700.7772217000002,m,0.49612689999867143,705.6961363999999,705.6961363999999,84,4.359,,,sub-037,50,105,700,bloc_loop.csv,2023-07-05_13h01.17.923,PainUncertainty,2022.2.5,144.69518512283244,
grave,forte,stimuli/330Hz,stimuli/forte,bloc_2,prob50_50_4trials.xlsx,2,8,50,50,1,,,,,0,1,1,1,1,3,7,1,,,,,,,,4.1,705.6961363999999,709.7973253,709.7972408199998,0.3049705000003087,710.2462783999999,710.2462783999999,m,0.6312367999998969,716.7799531999999,716.7799531999999,94,3.873,,,sub-037,50,105,700,bloc_loop.csv,2023-07-05_13h01.17.923,PainUncertainty,2022.2.5,144.69518512283244,
,,,,bloc_2,prob50_50_4trials.xlsx,2,8,50,50,1,,,,,0,1,1,1,,,,,0,0,0,0,,,,,,,,,,,,,,,,,716.7799531999999,1005.5193872,sub-037,50,105,700,bloc_loop.csv,2023-07-05_13h01.17.923,PainUncertainty,2022.2.5,144.69518512283244,
aigu,forte,stimuli/660Hz,stimuli/forte,bloc_3,prob80hthp_12trials.xlsx,2,24,80,20,0,,,,,0,2,2,2,0,0,0,10,,,,,,,,4.4,1006.6169322000005,1011.0205221000006,1011.0202552200003,0.30516499999976077,1011.4687015,1011.4687015,m,2.3947486999995817,1019.4049393000005,1019.4049393000005,50,5.463,,,sub-037,50,105,700,bloc_loop.csv,2023-07-05_13h01.17.923,PainUncertainty,2022.2.5,144.69518512283244,
grave,moderee,stimuli/330Hz,stimuli/moderee,bloc_3,prob80hthp_12trials.xlsx,2,24,80,20,0,,,,,0,2,2,2,0,1,1,1,,,,,,,,3.7,1019.4049393000005,1023.1049164000005,1023.1047040200006,0.3000227000002269,1023.5492519999998,1023.5492519999998,n,0.6188932999993995,1029.0762474000003,1029.0762474000003,29,4.844,,,sub-037,50,105,700,bloc_loop.csv,2023-07-05_13h01.17.923,PainUncertainty,2022.2.5,144.69518512283244,
grave,moderee,stimuli/330Hz,stimuli/moderee,bloc_3,prob80hthp_12trials.xlsx,2,24,80,20,0,,,,,0,2,2,2,0,2,2,0,,,,,,,,5,1029.0762474000003,1034.0784547000003,1034.0781548199998,0.3051825000002282,1034.5225497000001,1034.5225497000001,m,2.3237609999996494,1041.2717629999997,1041.2717629999997,57,4.357,,,sub-037,50,105,700,bloc_loop.csv,2023-07-05_13h01.17.923,PainUncertainty,2022.2.5,144.69518512283244,
grave,forte,stimuli/330Hz,stimuli/forte,bloc_3,prob80hthp_12trials.xlsx,2,24,80,20,0,,,,,0,2,2,2,0,3,3,5,,,,,,,,4.5,1041.2717629999997,1045.7743566999998,1045.7741424199999,0.30481260000033217,1046.2212513000004,1046.2212513000004,m,0.4893890999992436,1050.3055595000005,1050.3055595000005,68,3.518,,,sub-037,50,105,700,bloc_loop.csv,2023-07-05_13h01.17.923,PainUncertainty,2022.2.5,144.69518512283244,
aigu,moderee,stimuli/660Hz,stimuli/moderee,bloc_3,prob80hthp_12trials.xlsx,2,24,80,20,0,,,,,0,2,2,2,0,4,4,11,,,,,,,,3.4,1050.3055595000005,1053.7057806000003,1053.7058779200001,0.3013647999996465,1054.1508609000002,1054.1508609000002,n,0.527732699999433,1059.0304936000002,1059.0304936000002,37,4.29,,,sub-037,50,105,700,bloc_loop.csv,2023-07-05_13h01.17.923,PainUncertainty,2022.2.5,144.69518512283244,
aigu,forte,stimuli/660Hz,stimuli/forte,bloc_3,prob80hthp_12trials.xlsx,2,24,80,20,0,,,,,0,2,2,2,0,5,5,7,,,,,,,,4.1,1059.0304936000002,1063.1304980000004,1063.1304246200002,0.30504019999989396,1063.5746055999998,1063.5746055999998,m,0.525257899999815,1066.1921971000002,1066.1921971000002,78,2.031,,,sub-037,50,105,700,bloc_loop.csv,2023-07-05_13h01.17.923,PainUncertainty,2022.2.5,144.69518512283244,
aigu,forte,stimuli/660Hz,stimuli/forte,bloc_3,prob80hthp_12trials.xlsx,2,24,80,20,0,,,,,0,2,2,2,0,6,6,9,,,,,,,,3.3,1066.1921971000002,1069.4925112,1069.49238672,0.3072149999998146,1069.9437298000003,1069.9437298000003,m,0.5053005999989182,1075.0954116000003,1075.0954116000003,87,4.573,,,sub-037,50,105,700,bloc_loop.csv,2023-07-05_13h01.17.923,PainUncertainty,2022.2.5,144.69518512283244,
grave,moderee,stimuli/330Hz,stimuli/moderee,bloc_3,prob80hthp_12trials.xlsx,2,24,80,20,0,,,,,0,2,2,2,0,7,7,4,,,,,,,,3.7,1075.0954116000003,1078.7990208,1078.7988340200004,0.30491020000044955,1079.2431827,1079.2431827,n,0.48192959999960294,1084.9748549000005,1084.9748549000005,39,5.186,,,sub-037,50,105,700,bloc_loop.csv,2023-07-05_13h01.17.923,PainUncertainty,2022.2.5,144.69518512283244,
grave,moderee,stimuli/330Hz,stimuli/moderee,bloc_3,prob80hthp_12trials.xlsx,2,24,80,20,0,,,,,0,2,2,2,0,8,8,3,,,,,,,,3.4,1084.9748549000005,1088.3764683999998,1088.3763374200003,0.3049442999999883,1088.8243895000005,1088.8243895000005,n,0.5980163999993238,1094.7889219999997,1094.7889219999997,41,5.31,,,sub-037,50,105,700,bloc_loop.csv,2023-07-05_13h01.17.923,PainUncertainty,2022.2.5,144.69518512283244,
grave,moderee,stimuli/330Hz,stimuli/moderee,bloc_3,prob80hthp_12trials.xlsx,2,24,80,20,0,,,,,0,2,2,2,0,9,9,2,,,,,,,,3.2,1094.7889219999997,1097.9888313000001,1097.9887760200004,0.3049517999997988,1098.4329781000006,1098.4329781000006,n,0.5596015999999508,1103.9013347,1103.9013347,35,4.837,,,sub-037,50,105,700,bloc_loop.csv,2023-07-05_13h01.17.923,PainUncertainty,2022.2.5,144.69518512283244,
aigu,forte,stimuli/660Hz,stimuli/forte,bloc_3,prob80hthp_12trials.xlsx,2,24,80,20,0,,,,,0,2,2,2,0,10,10,8,,,,,,,,4,1103.9013347,1107.906535,1107.90637672,0.3051293999997142,1108.3507534,1108.3507534,m,0.27368549999937386,1111.2698141,1111.2698141,77,2.587,,,sub-037,50,105,700,bloc_loop.csv,2023-07-05_13h01.17.923,PainUncertainty,2022.2.5,144.69518512283244,
aigu,forte,stimuli/660Hz,stimuli/forte,bloc_3,prob80hthp_12trials.xlsx,2,24,80,20,0,,,,,0,2,2,2,0,11,11,6,,,,,,,,4.8,1111.2698141,1116.0742516999999,1116.0740827200002,0.3049846999992951,1116.5184048,1116.5184048,m,1.0002605999998195,1127.7055826000005,1127.7055826000005,54,10.109,,,sub-037,50,105,700,bloc_loop.csv,2023-07-05_13h01.17.923,PainUncertainty,2022.2.5,144.69518512283244,
grave,moderee,stimuli/330Hz,stimuli/moderee,bloc_3,prob80hthp_12trials.xlsx,2,24,80,20,0,,,,,0,2,2,2,1,0,12,0,,,,,,,,3.1,1127.7055826000005,1130.8050809000006,1130.80499492,0.3049750000000131,1131.2492843,1131.2492843,n,0.5492850000000544,1141.5462511000005,1141.5462511000005,40,9.684,,,sub-037,50,105,700,bloc_loop.csv,2023-07-05_13h01.17.923,PainUncertainty,2022.2.5,144.69518512283244,
grave,moderee,stimuli/330Hz,stimuli/moderee,bloc_3,prob80hthp_12trials.xlsx,2,24,80,20,0,,,,,0,2,2,2,1,1,13,3,,,,,,,,4.4,1141.5462511000005,1145.9457791000004,1145.9458014200004,0.3049017000003005,1146.3899732999998,1146.3899732999998,n,0.67282780000005,1151.7461068000002,1151.7461068000002,41,4.616,,,sub-037,50,105,700,bloc_loop.csv,2023-07-05_13h01.17.923,PainUncertainty,2022.2.5,144.69518512283244,
aigu,forte,stimuli/660Hz,stimuli/forte,bloc_3,prob80hthp_12trials.xlsx,2,24,80,20,0,,,,,0,2,2,2,1,2,14,8,,,,,,,,3,1151.7461068000002,1154.7454346000004,1154.7452468200004,0.30527950000032433,1155.1899396999997,1155.1899396999997,m,0.4689665999994759,1158.1378698999997,1158.1378698999997,64,2.42,,,sub-037,50,105,700,bloc_loop.csv,2023-07-05_13h01.17.923,PainUncertainty,2022.2.5,144.69518512283244,
aigu,forte,stimuli/660Hz,stimuli/forte,bloc_3,prob80hthp_12trials.xlsx,2,24,80,20,0,,,,,0,2,2,2,1,3,15,7,,,,,,,,3.1,1158.1378698999997,1161.2398439999997,1161.23972052,0.3047698999998829,1161.6836254999998,1161.6836254999998,m,0.4251782000001185,1164.1482096999998,1164.1482096999998,74,1.975,,,sub-037,50,105,700,bloc_loop.csv,2023-07-05_13h01.17.923,PainUncertainty,2022.2.5,144.69518512283244,
aigu,forte,stimuli/660Hz,stimuli/forte,bloc_3,prob80hthp_12trials.xlsx,2,24,80,20,0,,,,,0,2,2,2,1,4,16,10,,,,,,,,3.6,1164.1482096999998,1167.7477942000005,1167.7474020200002,0.3046346999999514,1168.1917654,1168.1917654,m,0.5755781999987448,1172.9729033000003,1172.9729033000003,76,4.136,,,sub-037,50,105,700,bloc_loop.csv,2023-07-05_13h01.17.923,PainUncertainty,2022.2.5,144.69518512283244,
grave,moderee,stimuli/330Hz,stimuli/moderee,bloc_3,prob80hthp_12trials.xlsx,2,24,80,20,0,,,,,0,2,2,2,1,5,17,4,,,,,,,,4.9,1172.9729033000003,1177.8734716,1177.87321242,0.30546919999960664,1178.3223239999998,1178.3223239999998,n,0.5050310999995418,1186.2743116000001,1186.2743116000001,42,7.373,,,sub-037,50,105,700,bloc_loop.csv,2023-07-05_13h01.17.923,PainUncertainty,2022.2.5,144.69518512283244,
aigu,forte,stimuli/660Hz,stimuli/forte,bloc_3,prob80hthp_12trials.xlsx,2,24,80,20,0,,,,,0,2,2,2,1,6,18,6,,,,,,,,3.3,1186.2743116000001,1189.5760230000005,1189.5758808200003,0.30517539999982546,1190.0203616999997,1190.0203616999997,m,0.3289521999995486,1193.8669638000001,1193.8669638000001,88,3.44,,,sub-037,50,105,700,bloc_loop.csv,2023-07-05_13h01.17.923,PainUncertainty,2022.2.5,144.69518512283244,
grave,moderee,stimuli/330Hz,stimuli/moderee,bloc_3,prob80hthp_12trials.xlsx,2,24,80,20,0,,,,,0,2,2,2,1,7,19,2,,,,,,,,4.5,1193.8669638000001,1198.3688178000002,1198.3686091200002,0.30500539999957255,1198.813086,1198.813086,n,0.536822599999141,1204.8481397000005,1204.8481397000005,38,5.42,,,sub-037,50,105,700,bloc_loop.csv,2023-07-05_13h01.17.923,PainUncertainty,2022.2.5,144.69518512283244,
aigu,forte,stimuli/660Hz,stimuli/forte,bloc_3,prob80hthp_12trials.xlsx,2,24,80,20,0,,,,,0,2,2,2,1,8,20,9,,,,,,,,4.3,1204.8481397000005,1209.1480765000006,1209.1479034199997,0.3048503999998502,1209.5919556999997,1209.5919556999997,m,0.6604474999994636,1213.9134153000005,1213.9134153000005,76,3.581,,,sub-037,50,105,700,bloc_loop.csv,2023-07-05_13h01.17.923,PainUncertainty,2022.2.5,144.69518512283244,
grave,moderee,stimuli/330Hz,stimuli/moderee,bloc_3,prob80hthp_12trials.xlsx,2,24,80,20,0,,,,,0,2,2,2,1,9,21,1,,,,,,,,4.5,1213.9134153000005,1218.4127581000002,1218.4126518200005,0.3048091000000568,1218.856871,1218.856871,n,0.5857045999991897,1222.4808358,1222.4808358,43,2.963,,,sub-037,50,105,700,bloc_loop.csv,2023-07-05_13h01.17.923,PainUncertainty,2022.2.5,144.69518512283244,
grave,forte,stimuli/330Hz,stimuli/forte,bloc_3,prob80hthp_12trials.xlsx,2,24,80,20,0,,,,,0,2,2,2,1,10,22,5,,,,,,,,3.9,1222.4808358,1226.3863136999998,1226.3860506200003,0.3016453999998703,1226.8311049000004,1226.8311049000004,m,0.6848475999995571,1234.1028611000002,1234.1028611000002,58,6.505,,,sub-037,50,105,700,bloc_loop.csv,2023-07-05_13h01.17.923,PainUncertainty,2022.2.5,144.69518512283244,
aigu,moderee,stimuli/660Hz,stimuli/moderee,bloc_3,prob80hthp_12trials.xlsx,2,24,80,20,0,,,,,0,2,2,2,1,11,23,11,,,,,,,,4.4,1234.1028611000002,1238.5059931000005,1238.5056298200002,0.30067180000060034,1238.9498190000004,1238.9498190000004,n,0.5726273999998739,1245.8649732000003,1245.8649732000003,29,6.281,,,sub-037,50,105,700,bloc_loop.csv,2023-07-05_13h01.17.923,PainUncertainty,2022.2.5,144.69518512283244,
grave,moderee,stimuli/330Hz,stimuli/moderee,bloc_4,prob50_50_4trials.xlsx,2,8,50,50,1,,,,,0,3,3,3,0,0,0,0,,,,,,,,5,1245.8649732000003,1250.8682792999998,1250.8687282200003,0.30430599999999686,1251.3121550000005,1251.3121550000005,n,0.6202391999995598,1254.4518291000004,1254.4518291000004,44,2.443,,,sub-037,50,105,700,bloc_loop.csv,2023-07-05_13h01.17.923,PainUncertainty,2022.2.5,144.69518512283244,
grave,forte,stimuli/330Hz,stimuli/forte,bloc_4,prob50_50_4trials.xlsx,2,8,50,50,1,,,,,0,3,3,3,0,1,1,1,,,,,,,,3.8,1254.4518291000004,1258.2511682000004,1258.25116982,0.3046044000002439,1258.6951527,1258.6951527,m,0.37182209999900806,1262.7317801999998,1262.7317801999998,82,3.595,,,sub-037,50,105,700,bloc_loop.csv,2023-07-05_13h01.17.923,PainUncertainty,2022.2.5,144.69518512283244,
aigu,moderee,stimuli/660Hz,stimuli/moderee,bloc_4,prob50_50_4trials.xlsx,2,8,50,50,1,,,,,0,3,3,3,0,2,2,2,,,,,,,,4.9,1262.7317801999998,1267.6342173000003,1267.6339724200002,0.3049868999996761,1268.0780610000002,1268.0780610000002,n,0.5499886999996306,1274.0175418,1274.0175418,41,5.31,,,sub-037,50,105,700,bloc_loop.csv,2023-07-05_13h01.17.923,PainUncertainty,2022.2.5,144.69518512283244,
aigu,forte,stimuli/660Hz,stimuli/forte,bloc_4,prob50_50_4trials.xlsx,2,8,50,50,1,,,,,0,3,3,3,0,3,3,3,,,,,,,,4.6,1274.0175418,1278.6211928000002,1278.6211380199998,0.3048353000003772,1279.0655318999998,1279.0655318999998,m,0.6733775999991849,1283.2551666999998,1283.2551666999998,85,3.463,,,sub-037,50,105,700,bloc_loop.csv,2023-07-05_13h01.17.923,PainUncertainty,2022.2.5,144.69518512283244,
aigu,forte,stimuli/660Hz,stimuli/forte,bloc_4,prob50_50_4trials.xlsx,2,8,50,50,1,,,,,0,3,3,3,1,0,4,3,,,,,,,,3.2,1283.2551666999998,1286.4555719999998,1286.4555239200004,0.30492210000011255,1286.9001803,1286.9001803,m,0.4951117999999042,1294.1253948000003,1294.1253948000003,80,6.65,,,sub-037,50,105,700,bloc_loop.csv,2023-07-05_13h01.17.923,PainUncertainty,2022.2.5,144.69518512283244,
grave,moderee,stimuli/330Hz,stimuli/moderee,bloc_4,prob50_50_4trials.xlsx,2,8,50,50,1,,,,,0,3,3,3,1,1,5,0,,,,,,,,3.4,1294.1253948000003,1297.5267990000002,1297.5267779199999,0.3001811000003727,1297.9715326000005,1297.9715326000005,n,0.48131309999916994,1304.5494826000004,1304.5494826000004,43,6.018,,,sub-037,50,105,700,bloc_loop.csv,2023-07-05_13h01.17.923,PainUncertainty,2022.2.5,144.69518512283244,
grave,forte,stimuli/330Hz,stimuli/forte,bloc_4,prob50_50_4trials.xlsx,2,8,50,50,1,,,,,0,3,3,3,1,2,6,1,,,,,,,,4.2,1304.5494826000004,1308.7498661999998,1308.7498488200004,0.3050882999996247,1309.1993509000004,1309.1993509000004,m,0.4030005999993591,1312.8116061,1312.8116061,84,3.136,,,sub-037,50,105,700,bloc_loop.csv,2023-07-05_13h01.17.923,PainUncertainty,2022.2.5,144.69518512283244,
aigu,moderee,stimuli/660Hz,stimuli/moderee,bloc_4,prob50_50_4trials.xlsx,2,8,50,50,1,,,,,0,3,3,3,1,3,7,2,,,,,,,,4.6,1312.8116061,1317.4112593,1317.4108169200003,0.3046542000001864,1317.8548734000005,1317.8548734000005,n,0.5045258999998623,1323.6355537,1323.6355537,42,3.247,,,sub-037,50,105,700,bloc_loop.csv,2023-07-05_13h01.17.923,PainUncertainty,2022.2.5,144.69518512283244,
,,,,bloc_4,prob50_50_4trials.xlsx,2,8,50,50,1,,,,,0,3,3,3,,,,,0,0,0,0,,,,,,,,,,,,,,,,,1323.6355537,1487.4793885,sub-037,50,105,700,bloc_loop.csv,2023-07-05_13h01.17.923,PainUncertainty,2022.2.5,144.69518512283244,
aigu,moderee,stimuli/660Hz,stimuli/moderee,bloc_5,prob20hthp_12trials.xlsx,2,24,20,80,0,,,,,0,4,4,4,0,0,0,6,,,,,,,,3.2,1489.1286391000003,1492.3341096000004,1492.33400192,0.2992991000000984,1492.7766217999997,1492.7766217999997,n,0.5390523999994912,1496.6579745999998,1496.6579745999998,30,3.266,,,sub-037,50,105,700,bloc_loop.csv,2023-07-05_13h01.17.923,PainUncertainty,2022.2.5,144.69518512283244,
grave,forte,stimuli/330Hz,stimuli/forte,bloc_5,prob20hthp_12trials.xlsx,2,24,20,80,0,,,,,0,4,4,4,0,1,1,0,,,,,,,,4.2,1496.6579745999998,1500.8627864,1500.8625779199997,0.3054428999994343,1501.3069952000005,1501.3069952000005,m,1.0711351999998442,1509.0460273999997,1509.0460273999997,67,6.603,,,sub-037,50,105,700,bloc_loop.csv,2023-07-05_13h01.17.923,PainUncertainty,2022.2.5,144.69518512283244,
grave,forte,stimuli/330Hz,stimuli/forte,bloc_5,prob20hthp_12trials.xlsx,2,24,20,80,0,,,,,0,4,4,4,0,2,2,2,,,,,,,,3.7,1509.0460273999997,1512.7463004,1512.7462606200002,0.30054569999992964,1513.1911127000003,1513.1911127000003,m,0.3927059999996345,1515.7436422,1515.7436422,73,2.108,,,sub-037,50,105,700,bloc_loop.csv,2023-07-05_13h01.17.923,PainUncertainty,2022.2.5,144.69518512283244,
grave,forte,stimuli/330Hz,stimuli/forte,bloc_5,prob20hthp_12trials.xlsx,2,24,20,80,0,,,,,0,4,4,4,0,3,3,1,,,,,,,,4,1515.7436422,1519.7471168000002,1519.7470687199998,0.3052995000007286,1520.1953002999999,1520.1953002999999,m,0.4298693999990064,1524.3748823000005,1524.3748823000005,88,3.685,,,sub-037,50,105,700,bloc_loop.csv,2023-07-05_13h01.17.923,PainUncertainty,2022.2.5,144.69518512283244,
grave,forte,stimuli/330Hz,stimuli/forte,bloc_5,prob20hthp_12trials.xlsx,2,24,20,80,0,,,,,0,4,4,4,0,4,4,4,,,,,,,,4.1,1524.3748823000005,1528.477597,1528.4773050200006,0.3054153999992195,1528.9243354,1528.9243354,m,0.6144587999988289,1534.5255177999998,1534.5255177999998,86,4.921,,,sub-037,50,105,700,bloc_loop.csv,2023-07-05_13h01.17.923,PainUncertainty,2022.2.5,144.69518512283244,
grave,moderee,stimuli/330Hz,stimuli/moderee,bloc_5,prob20hthp_12trials.xlsx,2,24,20,80,0,,,,,0,4,4,4,0,5,5,5,,,,,,,,3.1,1534.5255177999998,1537.6311864999998,1537.6310813200002,0.30499909999980446,1538.0793414999998,1538.0793414999998,n,0.48453449999942677,1547.5849693,1547.5849693,39,8.956,,,sub-037,50,105,700,bloc_loop.csv,2023-07-05_13h01.17.923,PainUncertainty,2022.2.5,144.69518512283244,
aigu,moderee,stimuli/660Hz,stimuli/moderee,bloc_5,prob20hthp_12trials.xlsx,2,24,20,80,0,,,,,0,4,4,4,0,6,6,9,,,,,,,,4.1,1547.5849693,1551.6892149000005,1551.6894766199998,0.3045577000002595,1552.1375316000003,1552.1375316000003,n,0.5504716999994343,1556.1696828000004,1556.1696828000004,42,3.421,,,sub-037,50,105,700,bloc_loop.csv,2023-07-05_13h01.17.923,PainUncertainty,2022.2.5,144.69518512283244,
aigu,moderee,stimuli/660Hz,stimuli/moderee,bloc_5,prob20hthp_12trials.xlsx,2,24,20,80,0,,,,,0,4,4,4,0,7,7,8,,,,,,,,3.8,1556.1696828000004,1559.9747813000004,1559.9745350200005,0.3046596000003774,1560.4185407000004,1560.4185407000004,n,0.5050472999992053,1565.6334668,1565.6334668,47,4.658,,,sub-037,50,105,700,bloc_loop.csv,2023-07-05_13h01.17.923,PainUncertainty,2022.2.5,144.69518512283244,
aigu,moderee,stimuli/660Hz,stimuli/moderee,bloc_5,prob20hthp_12trials.xlsx,2,24,20,80,0,,,,,0,4,4,4,0,8,8,10,,,,,,,,4.3,1565.6334668,1569.9360369000005,1569.93388792,0.3049972999997408,1570.3815562,1570.3815562,n,0.5903651999988142,1575.4954153999997,1575.4954153999997,50,4.469,,,sub-037,50,105,700,bloc_loop.csv,2023-07-05_13h01.17.923,PainUncertainty,2022.2.5,144.69518512283244,
aigu,moderee,stimuli/660Hz,stimuli/moderee,bloc_5,prob20hthp_12trials.xlsx,2,24,20,80,0,,,,,0,4,4,4,0,9,9,7,,,,,,,,4.3,1575.4954153999997,1579.7964683,1579.7960960200003,0.3048023999999714,1580.2404180000003,1580.2404180000003,n,1.0666787999998633,1586.9766832000005,1586.9766832000005,50,5.588,,,sub-037,50,105,700,bloc_loop.csv,2023-07-05_13h01.17.923,PainUncertainty,2022.2.5,144.69518512283244,
aigu,forte,stimuli/660Hz,stimuli/forte,bloc_5,prob20hthp_12trials.xlsx,2,24,20,80,0,,,,,0,4,4,4,0,10,10,11,,,,,,,,4,1586.9766832000005,1590.9777605,1590.9776570199997,0.30502609999985,1591.4260006000004,1591.4260006000004,m,0.4626645999996981,1594.5501617,1594.5501617,73,2.607,,,sub-037,50,105,700,bloc_loop.csv,2023-07-05_13h01.17.923,PainUncertainty,2022.2.5,144.69518512283244,
grave,forte,stimuli/330Hz,stimuli/forte,bloc_5,prob20hthp_12trials.xlsx,2,24,20,80,0,,,,,0,4,4,4,0,11,11,3,,,,,,,,3.9,1594.5501617,1598.4508766,1598.45077662,0.30545770000026096,1598.8976936999998,1598.8976936999998,m,0.3743101999989449,1602.9620387000004,1602.9620387000004,80,3.605,,,sub-037,50,105,700,bloc_loop.csv,2023-07-05_13h01.17.923,PainUncertainty,2022.2.5,144.69518512283244,
aigu,moderee,stimuli/660Hz,stimuli/moderee,bloc_5,prob20hthp_12trials.xlsx,2,24,20,80,0,,,,,0,4,4,4,1,0,12,10,,,,,,,,4,1602.9620387000004,1606.9657625,1606.9656286200002,0.3005291000008583,1607.4104254000003,1607.4104254000003,n,0.478050799999437,1611.1113930000001,1611.1113930000001,42,3.151,,,sub-037,50,105,700,bloc_loop.csv,2023-07-05_13h01.17.923,PainUncertainty,2022.2.5,144.69518512283244,
grave,forte,stimuli/330Hz,stimuli/forte,bloc_5,prob20hthp_12trials.xlsx,2,24,20,80,0,,,,,0,4,4,4,1,1,13,3,,,,,,,,4,1611.1113930000001,1615.1124578999998,1615.11247512,0.30498919999990903,1615.5572367000004,1615.5572367000004,m,0.6185972999992373,1619.7427176,1619.7427176,76,3.51,,,sub-037,50,105,700,bloc_loop.csv,2023-07-05_13h01.17.923,PainUncertainty,2022.2.5,144.69518512283244,
grave,forte,stimuli/330Hz,stimuli/forte,bloc_5,prob20hthp_12trials.xlsx,2,24,20,80,0,,,,,0,4,4,4,1,2,14,1,,,,,,,,4.5,1619.7427176,1624.2461713000002,1624.2459252200001,0.3046610999999757,1624.6902412999998,1624.6902412999998,m,0.32193819999884,1630.3589268000005,1630.3589268000005,86,5.267,,,sub-037,50,105,700,bloc_loop.csv,2023-07-05_13h01.17.923,PainUncertainty,2022.2.5,144.69518512283244,
aigu,moderee,stimuli/660Hz,stimuli/moderee,bloc_5,prob20hthp_12trials.xlsx,2,24,20,80,0,,,,,0,4,4,4,1,3,15,7,,,,,,,,4.9,1630.3589268000005,1635.2611363000005,1635.2617465200005,0.3040946000000986,1635.7049347000002,1635.7049347000002,n,0.4825864999993428,1639.5332512000004,1639.5332512000004,46,3.268,,,sub-037,50,105,700,bloc_loop.csv,2023-07-05_13h01.17.923,PainUncertainty,2022.2.5,144.69518512283244,
grave,forte,stimuli/330Hz,stimuli/forte,bloc_5,prob20hthp_12trials.xlsx,2,24,20,80,0,,,,,0,4,4,4,1,4,16,2,,,,,,,,3.2,1639.5332512000004,1642.7338816000001,1642.7336886200005,0.30514559999937774,1643.1782319000004,1643.1782319000004,m,0.3712722999989637,1647.0000933000001,1647.0000933000001,76,3.378,,,sub-037,50,105,700,bloc_loop.csv,2023-07-05_13h01.17.923,PainUncertainty,2022.2.5,144.69518512283244,
aigu,moderee,stimuli/660Hz,stimuli/moderee,bloc_5,prob20hthp_12trials.xlsx,2,24,20,80,0,,,,,0,4,4,4,1,5,17,9,,,,,,,,4.9,1647.0000933000001,1651.9017525999998,1651.90147502,0.30529290000049514,1652.3461318999998,1652.3461318999998,n,0.5715067999990424,1657.8203300000005,1657.8203300000005,37,4.822,,,sub-037,50,105,700,bloc_loop.csv,2023-07-05_13h01.17.923,PainUncertainty,2022.2.5,144.69518512283244,
grave,forte,stimuli/330Hz,stimuli/forte,bloc_5,prob20hthp_12trials.xlsx,2,24,20,80,0,,,,,0,4,4,4,1,6,18,0,,,,,,,,3.7,1657.8203300000005,1661.5209353,1661.52076782,0.3052625000000262,1661.9657735,1661.9657735,m,0.34627499999896827,1665.3022714999997,1665.3022714999997,72,2.914,,,sub-037,50,105,700,bloc_loop.csv,2023-07-05_13h01.17.923,PainUncertainty,2022.2.5,144.69518512283244,
aigu,moderee,stimuli/660Hz,stimuli/moderee,bloc_5,prob20hthp_12trials.xlsx,2,24,20,80,0,,,,,0,4,4,4,1,7,19,6,,,,,,,,4.8,1665.3022714999997,1670.1055377000002,1670.10537962,0.30463759999929607,1670.5496785000005,1670.5496785000005,n,0.5786529999995764,1677.7056835000003,1677.7056835000003,38,6.511,,,sub-037,50,105,700,bloc_loop.csv,2023-07-05_13h01.17.923,PainUncertainty,2022.2.5,144.69518512283244,
aigu,moderee,stimuli/660Hz,stimuli/moderee,bloc_5,prob20hthp_12trials.xlsx,2,24,20,80,0,,,,,0,4,4,4,1,8,20,8,,,,,,,,3.1,1677.7056835000003,1680.8082867000003,1680.8080859200004,0.3052510000006805,1681.2554017000002,1681.2554017000002,n,0.23850249999941298,1683.8606786999999,1683.8606786999999,40,2.296,,,sub-037,50,105,700,bloc_loop.csv,2023-07-05_13h01.17.923,PainUncertainty,2022.2.5,144.69518512283244,
grave,forte,stimuli/330Hz,stimuli/forte,bloc_5,prob20hthp_12trials.xlsx,2,24,20,80,0,,,,,0,4,4,4,1,9,21,4,,,,,,,,4.8,1683.8606786999999,1688.6629465000005,1688.6627992200006,0.3052306999998109,1689.1071210999999,1689.1071210999999,m,0.2619288999994751,1693.1470234999997,1693.1470234999997,77,3.704,,,sub-037,50,105,700,bloc_loop.csv,2023-07-05_13h01.17.923,PainUncertainty,2022.2.5,144.69518512283244,
grave,moderee,stimuli/330Hz,stimuli/moderee,bloc_5,prob20hthp_12trials.xlsx,2,24,20,80,0,,,,,0,4,4,4,1,10,22,5,,,,,,,,4.1,1693.1470234999997,1697.2471987,1697.24707772,0.3052451999992627,1697.6919397000001,1697.6919397000001,m,0.20599459999993996,1703.5064061000003,1703.5064061000003,35,5.538,,,sub-037,50,105,700,bloc_loop.csv,2023-07-05_13h01.17.923,PainUncertainty,2022.2.5,144.69518512283244,
aigu,forte,stimuli/660Hz,stimuli/forte,bloc_5,prob20hthp_12trials.xlsx,2,24,20,80,0,,,,,0,4,4,4,1,11,23,11,,,,,,,,3.1,1703.5064061000003,1706.6115798,1706.6097384199998,0.30526299999928597,1707.0580404000002,1707.0580404000002,m,0.45304419999956735,1710.842912,1710.842912,75,3.268,,,sub-037,50,105,700,bloc_loop.csv,2023-07-05_13h01.17.923,PainUncertainty,2022.2.5,144.69518512283244,
grave,forte,stimuli/330Hz,stimuli/forte,bloc_6,prob50_50_4trials.xlsx,2,8,50,50,0,,,,,0,5,5,5,0,0,0,1,,,,,,,,4.4,1710.842912,1715.2429269000004,1715.24266132,0.3051281999996718,1715.6910904000006,1715.6910904000006,m,0.5481277999988379,1722.0960519,1722.0960519,79,5.788,,,sub-037,50,105,700,bloc_loop.csv,2023-07-05_13h01.17.923,PainUncertainty,2022.2.5,144.69518512283244,
grave,moderee,stimuli/330Hz,stimuli/moderee,bloc_6,prob50_50_4trials.xlsx,2,8,50,50,0,,,,,0,5,5,5,0,1,1,0,,,,,,,,5,1722.0960519,1727.0980154999997,1727.0978483200001,0.30500059999940277,1727.5423877000003,1727.5423877000003,n,0.5495189999992363,1731.9427728,1731.9427728,35,3.788,,,sub-037,50,105,700,bloc_loop.csv,2023-07-05_13h01.17.923,PainUncertainty,2022.2.5,144.69518512283244,
aigu,moderee,stimuli/660Hz,stimuli/moderee,bloc_6,prob50_50_4trials.xlsx,2,8,50,50,0,,,,,0,5,5,5,0,2,2,2,,,,,,,,4.3,1731.9427728,1736.2450188000003,1736.24478572,0.30501839999942604,1736.6966444999998,1736.6966444999998,n,0.5465812999991613,1740.8635285999999,1740.8635285999999,41,3.546,,,sub-037,50,105,700,bloc_loop.csv,2023-07-05_13h01.17.923,PainUncertainty,2022.2.5,144.69518512283244,
aigu,forte,stimuli/660Hz,stimuli/forte,bloc_6,prob50_50_4trials.xlsx,2,8,50,50,0,,,,,0,5,5,5,0,3,3,3,,,,,,,,4.6,1740.8635285999999,1745.4686632000003,1745.46863222,0.30466419999993377,1745.9129754000005,1745.9129754000005,m,0.6621452999997928,1749.2069643000004,1749.2069643000004,70,2.571,,,sub-037,50,105,700,bloc_loop.csv,2023-07-05_13h01.17.923,PainUncertainty,2022.2.5,144.69518512283244,
grave,forte,stimuli/330Hz,stimuli/forte,bloc_6,prob50_50_4trials.xlsx,2,8,50,50,0,,,,,0,5,5,5,1,0,4,1,,,,,,,,4.3,1749.2069643000004,1753.5108090000003,1753.5106750199998,0.3051199000001361,1753.9550157000003,1753.9550157000003,m,0.5779695999990508,1758.4455675,1758.4455675,82,3.844,,,sub-037,50,105,700,bloc_loop.csv,2023-07-05_13h01.17.923,PainUncertainty,2022.2.5,144.69518512283244,
aigu,forte,stimuli/660Hz,stimuli/forte,bloc_6,prob50_50_4trials.xlsx,2,8,50,50,0,,,,,0,5,5,5,1,1,5,3,,,,,,,,4.8,1758.4455675,1763.2486470000003,1763.2484279200003,0.30511220000062167,1763.6949967,1763.6949967,m,0.4782197999993514,1767.9582300000002,1767.9582300000002,76,3.712,,,sub-037,50,105,700,bloc_loop.csv,2023-07-05_13h01.17.923,PainUncertainty,2022.2.5,144.69518512283244,
grave,moderee,stimuli/330Hz,stimuli/moderee,bloc_6,prob50_50_4trials.xlsx,2,8,50,50,0,,,,,0,5,5,5,1,2,6,0,,,,,,,,3,1767.9582300000002,1770.9574864000006,1770.9572872200001,0.3010494000000108,1771.4020738999998,1771.4020738999998,n,0.5196977999994488,1782.6463420999999,1782.6463420999999,38,10.666,,,sub-037,50,105,700,bloc_loop.csv,2023-07-05_13h01.17.923,PainUncertainty,2022.2.5,144.69518512283244,
aigu,moderee,stimuli/660Hz,stimuli/moderee,bloc_6,prob50_50_4trials.xlsx,2,8,50,50,0,,,,,0,5,5,5,1,3,7,2,,,,,,,,5,1782.6463420999999,1787.647226,1787.6470121200005,0.3047822999997152,1788.0910255,1788.0910255,n,0.5327800999993997,1792.5591285,1792.5591285,37,3.859,,,sub-037,50,105,700,bloc_loop.csv,2023-07-05_13h01.17.923,PainUncertainty,2022.2.5,144.69518512283244,
aigu,forte,stimuli/660Hz,stimuli/forte,bloc_7,prob80hthp_12trials.xlsx,2,24,80,20,1,,,,,0,6,6,6,0,0,0,10,,,,,,,,3.5,1792.5591285,1796.0646219,1796.0645180200004,0.3049430000000939,1796.5092151999997,1796.5092151999997,m,0.42817009999907896,1799.3379104000005,1799.3379104000005,71,2.33,,,sub-037,50,105,700,bloc_loop.csv,2023-07-05_13h01.17.923,PainUncertainty,2022.2.5,144.69518512283244,
grave,moderee,stimuli/330Hz,stimuli/moderee,bloc_7,prob80hthp_12trials.xlsx,2,24,80,20,1,,,,,0,6,6,6,0,1,1,0,,,,,,,,3.4,1799.3379104000005,1802.7395975,1802.7392293200005,0.3050960999999006,1803.1881207000006,1803.1881207000006,n,0.509860999999546,1810.0132726000002,1810.0132726000002,41,6.254,,,sub-037,50,105,700,bloc_loop.csv,2023-07-05_13h01.17.923,PainUncertainty,2022.2.5,144.69518512283244,
grave,moderee,stimuli/330Hz,stimuli/moderee,bloc_7,prob80hthp_12trials.xlsx,2,24,80,20,1,,,,,0,6,6,6,0,2,2,3,,,,,,,,4.7,1810.0132726000002,1814.712563,1814.7124135199997,0.305151499999738,1815.1568824000005,1815.1568824000005,n,0.5422789999993256,1822.6739790000001,1822.6739790000001,42,6.907,,,sub-037,50,105,700,bloc_loop.csv,2023-07-05_13h01.17.923,PainUncertainty,2022.2.5,144.69518512283244,
grave,moderee,stimuli/330Hz,stimuli/moderee,bloc_7,prob80hthp_12trials.xlsx,2,24,80,20,1,,,,,0,6,6,6,0,3,3,2,,,,,,,,3.6,1822.6739790000001,1826.2766287000004,1826.2762516200005,0.30563359999996464,1826.7211195999998,1826.7211195999998,n,0.8189779999993334,1829.8365184000004,1829.8365184000004,44,2.227,,,sub-037,50,105,700,bloc_loop.csv,2023-07-05_13h01.17.923,PainUncertainty,2022.2.5,144.69518512283244,
aigu,forte,stimuli/660Hz,stimuli/forte,bloc_7,prob80hthp_12trials.xlsx,2,24,80,20,1,,,,,0,6,6,6,0,4,4,9,,,,,,,,3.5,1829.8365184000004,1833.3398291000003,1833.3396915200005,0.3052530000004481,1833.7866372999997,1833.7866372999997,m,0.32484149999982037,1836.1335304000004,1836.1335304000004,84,1.956,,,sub-037,50,105,700,bloc_loop.csv,2023-07-05_13h01.17.923,PainUncertainty,2022.2.5,144.69518512283244,
aigu,forte,stimuli/660Hz,stimuli/forte,bloc_7,prob80hthp_12trials.xlsx,2,24,80,20,1,,,,,0,6,6,6,0,5,5,6,,,,,,,,3.6,1836.1335304000004,1839.7368659000003,1839.7367032200004,0.3051494000001185,1840.1849345,1840.1849345,m,0.4581667999991623,1845.9016668000004,1845.9016668000004,77,5.178,,,sub-037,50,105,700,bloc_loop.csv,2023-07-05_13h01.17.923,PainUncertainty,2022.2.5,144.69518512283244,
grave,moderee,stimuli/330Hz,stimuli/moderee,bloc_7,prob80hthp_12trials.xlsx,2,24,80,20,1,,,,,0,6,6,6,0,6,6,1,,,,,,,,4.3,1845.9016668000004,1850.2029423000004,1850.20274802,0.3050696999998763,1850.6471197,1850.6471197,n,0.544547499998771,1855.9069860999998,1855.9069860999998,44,4.642,,,sub-037,50,105,700,bloc_loop.csv,2023-07-05_13h01.17.923,PainUncertainty,2022.2.5,144.69518512283244,
grave,forte,stimuli/330Hz,stimuli/forte,bloc_7,prob80hthp_12trials.xlsx,2,24,80,20,1,,,,,0,6,6,6,0,7,7,5,,,,,,,,3.9,1855.9069860999998,1859.8083176999999,1859.8080722199998,0.3051544999998441,1860.2525449000004,1860.2525449000004,m,0.5827405999989423,1863.7250892000002,1863.7250892000002,83,2.832,,,sub-037,50,105,700,bloc_loop.csv,2023-07-05_13h01.17.923,PainUncertainty,2022.2.5,144.69518512283244,
aigu,forte,stimuli/660Hz,stimuli/forte,bloc_7,prob80hthp_12trials.xlsx,2,24,80,20,1,,,,,0,6,6,6,0,8,8,7,,,,,,,,3.9,1863.7250892000002,1867.6286267000005,1867.62838642,0.30512650000036956,1868.0728244000002,1868.0728244000002,m,0.4487535999996908,1871.8946888,1871.8946888,84,3.301,,,sub-037,50,105,700,bloc_loop.csv,2023-07-05_13h01.17.923,PainUncertainty,2022.2.5,144.69518512283244,
grave,moderee,stimuli/330Hz,stimuli/moderee,bloc_7,prob80hthp_12trials.xlsx,2,24,80,20,1,,,,,0,6,6,6,0,9,9,4,,,,,,,,3.4,1871.8946888,1875.2965555,1875.29639102,0.30549060000066675,1875.7453922000004,1875.7453922000004,n,0.5435059999999794,1884.0244612000006,1884.0244612000006,45,7.656,,,sub-037,50,105,700,bloc_loop.csv,2023-07-05_13h01.17.923,PainUncertainty,2022.2.5,144.69518512283244,
aigu,forte,stimuli/660Hz,stimuli/forte,bloc_7,prob80hthp_12trials.xlsx,2,24,80,20,1,,,,,0,6,6,6,0,10,10,8,,,,,,,,4,1884.0244612000006,1888.0268092000006,1888.0267162200003,0.29942620000019815,1888.4675849000005,1888.4675849000005,m,0.40146699999968405,1892.7377957999997,1892.7377957999997,77,3.737,,,sub-037,50,105,700,bloc_loop.csv,2023-07-05_13h01.17.923,PainUncertainty,2022.2.5,144.69518512283244,
aigu,moderee,stimuli/660Hz,stimuli/moderee,bloc_7,prob80hthp_12trials.xlsx,2,24,80,20,1,,,,,0,6,6,6,0,11,11,11,,,,,,,,4.9,1892.7377957999997,1897.6392293,1897.6390773200005,0.3053612999992765,1898.0873902000003,1898.0873902000003,n,0.5388414999988527,1901.8325649999997,1901.8325649999997,41,3.141,,,sub-037,50,105,700,bloc_loop.csv,2023-07-05_13h01.17.923,PainUncertainty,2022.2.5,144.69518512283244,
aigu,forte,stimuli/660Hz,stimuli/forte,bloc_7,prob80hthp_12trials.xlsx,2,24,80,20,1,,,,,0,6,6,6,1,0,12,7,,,,,,,,4.6,1901.8325649999997,1906.4324955000002,1906.4322804200006,0.30500410000058764,1906.8806740999999,1906.8806740999999,m,0.7219125999990865,1910.7206867000004,1910.7206867000004,74,3.045,,,sub-037,50,105,700,bloc_loop.csv,2023-07-05_13h01.17.923,PainUncertainty,2022.2.5,144.69518512283244,
grave,moderee,stimuli/330Hz,stimuli/moderee,bloc_7,prob80hthp_12trials.xlsx,2,24,80,20,1,,,,,0,6,6,6,1,1,13,3,,,,,,,,3.7,1910.7206867000004,1914.4262741000002,1914.42616822,0.30463610000060726,1914.8703071999998,1914.8703071999998,n,0.6098653999988528,1918.4568268000003,1918.4568268000003,44,2.927,,,sub-037,50,105,700,bloc_loop.csv,2023-07-05_13h01.17.923,PainUncertainty,2022.2.5,144.69518512283244,
grave,moderee,stimuli/330Hz,stimuli/moderee,bloc_7,prob80hthp_12trials.xlsx,2,24,80,20,1,,,,,0,6,6,6,1,2,14,2,,,,,,,,4.5,1918.4568268000003,1922.9616287,1922.9614171200005,0.3055541000003359,1923.4104328000003,1923.4104328000003,n,0.5977734999996756,1928.9115106,1928.9115106,46,4.844,,,sub-037,50,105,700,bloc_loop.csv,2023-07-05_13h01.17.923,PainUncertainty,2022.2.5,144.69518512283244,
grave,moderee,stimuli/330Hz,stimuli/moderee,bloc_7,prob80hthp_12trials.xlsx,2,24,80,20,1,,,,,0,6,6,6,1,3,15,1,,,,,,,,3.9,1928.9115106,1932.8168016,1932.81668132,0.3051098000005368,1933.2610789,1933.2610789,n,0.6399957999992694,1937.4016900000006,1937.4016900000006,41,3.414,,,sub-037,50,105,700,bloc_loop.csv,2023-07-05_13h01.17.923,PainUncertainty,2022.2.5,144.69518512283244,
aigu,forte,stimuli/660Hz,stimuli/forte,bloc_7,prob80hthp_12trials.xlsx,2,24,80,20,1,,,,,0,6,6,6,1,4,16,8,,,,,,,,5,1937.4016900000006,1942.4012914000004,1942.4013043199998,0.30479120000018156,1942.8455972000002,1942.8455972000002,m,0.5217131999988851,1946.6085008999999,1946.6085008999999,77,3.157,,,sub-037,50,105,700,bloc_loop.csv,2023-07-05_13h01.17.923,PainUncertainty,2022.2.5,144.69518512283244,
aigu,moderee,stimuli/660Hz,stimuli/moderee,bloc_7,prob80hthp_12trials.xlsx,2,24,80,20,1,,,,,0,6,6,6,1,5,17,11,,,,,,,,4.5,1946.6085008999999,1951.1111032999997,1951.1109920200001,0.30487930000072083,1951.5553467,1951.5553467,n,0.570672599998943,1958.0375521000005,1958.0375521000005,44,5.837,,,sub-037,50,105,700,bloc_loop.csv,2023-07-05_13h01.17.923,PainUncertainty,2022.2.5,144.69518512283244,
aigu,forte,stimuli/660Hz,stimuli/forte,bloc_7,prob80hthp_12trials.xlsx,2,24,80,20,1,,,,,0,6,6,6,1,6,18,9,,,,,,,,4.4,1958.0375521000005,1962.438446,1962.43838732,0.30515980000018317,1962.8830711,1962.8830711,m,0.4664231999995536,1966.3512873,1966.3512873,91,2.935,,,sub-037,50,105,700,bloc_loop.csv,2023-07-05_13h01.17.923,PainUncertainty,2022.2.5,144.69518512283244,
aigu,forte,stimuli/660Hz,stimuli/forte,bloc_7,prob80hthp_12trials.xlsx,2,24,80,20,1,,,,,0,6,6,6,1,7,19,10,,,,,,,,4,1966.3512873,1970.3494778000004,1970.3510733200005,0.30349050000040734,1970.7955309999998,1970.7955309999998,m,0.5067900999993071,1973.7177966,1973.7177966,88,2.357,,,sub-037,50,105,700,bloc_loop.csv,2023-07-05_13h01.17.923,PainUncertainty,2022.2.5,144.69518512283244,
grave,forte,stimuli/330Hz,stimuli/forte,bloc_7,prob80hthp_12trials.xlsx,2,24,80,20,1,,,,,0,6,6,6,1,8,20,5,,,,,,,,3,1973.7177966,1976.7179549000002,1976.7177705199997,0.30497449999984383,1977.1622315000004,1977.1622315000004,m,0.7519471999994494,1983.3593164000004,1983.3593164000004,85,5.365,,,sub-037,50,105,700,bloc_loop.csv,2023-07-05_13h01.17.923,PainUncertainty,2022.2.5,144.69518512283244,
grave,moderee,stimuli/330Hz,stimuli/moderee,bloc_7,prob80hthp_12trials.xlsx,2,24,80,20,1,,,,,0,6,6,6,1,9,21,0,,,,,,,,3.2,1983.3593164000004,1986.5594738,1986.5593189200004,0.30500149999988935,1987.0040461999997,1987.0040461999997,n,0.5071218999992197,1995.6494721,1995.6494721,46,8.075,,,sub-037,50,105,700,bloc_loop.csv,2023-07-05_13h01.17.923,PainUncertainty,2022.2.5,144.69518512283244,
aigu,forte,stimuli/660Hz,stimuli/forte,bloc_7,prob80hthp_12trials.xlsx,2,24,80,20,1,,,,,0,6,6,6,1,10,22,6,,,,,,,,3.7,1995.6494721,1999.3526112,1999.3522486200004,0.3070840999998836,1999.8043913000001,1999.8043913000001,m,0.37805329999991955,2002.8929224000003,2002.8929224000003,78,2.637,,,sub-037,50,105,700,bloc_loop.csv,2023-07-05_13h01.17.923,PainUncertainty,2022.2.5,144.69518512283244,
grave,moderee,stimuli/330Hz,stimuli/moderee,bloc_7,prob80hthp_12trials.xlsx,2,24,80,20,1,,,,,0,6,6,6,1,11,23,4,,,,,,,,3.2,2002.8929224000003,2006.0967416000003,2006.0965203199999,0.3048132000003534,2006.5405619000003,2006.5405619000003,n,0.5013189999999668,2011.1917783,2011.1917783,37,2.114,,,sub-037,50,105,700,bloc_loop.csv,2023-07-05_13h01.17.923,PainUncertainty,2022.2.5,144.69518512283244,
,,,,bloc_7,prob80hthp_12trials.xlsx,2,24,80,20,1,,,,,0,6,6,6,,,,,0,0,0,0,,,,,,,,,,,,,,,,,2011.1917783,2211.7948226999997,sub-037,50,105,700,bloc_loop.csv,2023-07-05_13h01.17.923,PainUncertainty,2022.2.5,144.69518512283244,
aigu,moderee,stimuli/660Hz,stimuli/moderee,bloc_8,prob50_50_4trials.xlsx,3,12,50,50,0,,,,,0,7,7,7,0,0,0,2,,,,,,,,3,2212.8749786999997,2215.8785408000003,2215.87833422,0.3048736999999164,2216.3224054,2216.3224054,n,0.5793434999995952,2221.4260873000003,2221.4260873000003,36,4.454,,,sub-037,50,105,700,bloc_loop.csv,2023-07-05_13h01.17.923,PainUncertainty,2022.2.5,144.69518512283244,
grave,moderee,stimuli/330Hz,stimuli/moderee,bloc_8,prob50_50_4trials.xlsx,3,12,50,50,0,,,,,0,7,7,7,0,1,1,0,,,,,,,,3.6,2221.4260873000003,2225.0323364000005,2225.03193212,0.30501170000025013,2225.4806029,2225.4806029,n,0.5293620999991617,2230.648663,2230.648663,35,4.573,,,sub-037,50,105,700,bloc_loop.csv,2023-07-05_13h01.17.923,PainUncertainty,2022.2.5,144.69518512283244,
aigu,forte,stimuli/660Hz,stimuli/forte,bloc_8,prob50_50_4trials.xlsx,3,12,50,50,0,,,,,0,7,7,7,0,2,2,3,,,,,,,,3.8,2230.648663,2234.4498642,2234.4497632200005,0.3050929000000906,2234.8940775,2234.8940775,m,0.43496609999965585,2239.9209314,2239.9209314,68,4.533,,,sub-037,50,105,700,bloc_loop.csv,2023-07-05_13h01.17.923,PainUncertainty,2022.2.5,144.69518512283244,
grave,forte,stimuli/330Hz,stimuli/forte,bloc_8,prob50_50_4trials.xlsx,3,12,50,50,0,,,,,0,7,7,7,0,3,3,1,,,,,,,,3.4,2239.9209314,2243.3258696000003,2243.3259176200004,0.300102500000321,2243.7718776,2243.7718776,m,0.3762765000001309,2247.0512823999998,2247.0512823999998,73,2.823,,,sub-037,50,105,700,bloc_loop.csv,2023-07-05_13h01.17.923,PainUncertainty,2022.2.5,144.69518512283244,
grave,moderee,stimuli/330Hz,stimuli/moderee,bloc_8,prob50_50_4trials.xlsx,3,12,50,50,0,,,,,0,7,7,7,1,0,4,0,,,,,,,,3.5,2247.0512823999998,2250.5556841,2250.5562914200004,0.3045658999999432,2251.0003851,2251.0003851,n,0.5433339999999589,2253.9564565,2253.9564565,41,2.337,,,sub-037,50,105,700,bloc_loop.csv,2023-07-05_13h01.17.923,PainUncertainty,2022.2.5,144.69518512283244,
aigu,forte,stimuli/660Hz,stimuli/forte,bloc_8,prob50_50_4trials.xlsx,3,12,50,50,0,,,,,0,7,7,7,1,1,5,3,,,,,,,,4.9,2253.9564565,2258.8556834,2258.85550052,0.3006507000000056,2259.3005872000003,2259.3005872000003,m,0.7810882999992828,2264.2979029,2264.2979029,74,4.143,,,sub-037,50,105,700,bloc_loop.csv,2023-07-05_13h01.17.923,PainUncertainty,2022.2.5,144.69518512283244,
aigu,moderee,stimuli/660Hz,stimuli/moderee,bloc_8,prob50_50_4trials.xlsx,3,12,50,50,0,,,,,0,7,7,7,1,2,6,2,,,,,,,,5,2264.2979029,2269.3013288,2269.3012073200002,0.30544109999937064,2269.7505487999997,2269.7505487999997,n,0.5047857999988992,2278.1253647000003,2278.1253647000003,47,7.796,,,sub-037,50,105,700,bloc_loop.csv,2023-07-05_13h01.17.923,PainUncertainty,2022.2.5,144.69518512283244,
grave,forte,stimuli/330Hz,stimuli/forte,bloc_8,prob50_50_4trials.xlsx,3,12,50,50,0,,,,,0,7,7,7,1,3,7,1,,,,,,,,3.1,2278.1253647000003,2281.2263933000004,2281.22618742,0.3051100000002407,2281.6706604,2281.6706604,m,0.38492690000020957,2284.6936176,2284.6936176,78,2.571,,,sub-037,50,105,700,bloc_loop.csv,2023-07-05_13h01.17.923,PainUncertainty,2022.2.5,144.69518512283244,
aigu,forte,stimuli/660Hz,stimuli/forte,bloc_8,prob50_50_4trials.xlsx,3,12,50,50,0,,,,,0,7,7,7,2,0,8,3,,,,,,,,3.6,2284.6936176,2288.2964463,2288.29627182,0.3051728999998886,2288.7406837,2288.7406837,n,0.7161527999996906,2295.1476024000003,2295.1476024000003,66,5.626,,,sub-037,50,105,700,bloc_loop.csv,2023-07-05_13h01.17.923,PainUncertainty,2022.2.5,144.69518512283244,
grave,forte,stimuli/330Hz,stimuli/forte,bloc_8,prob50_50_4trials.xlsx,3,12,50,50,0,,,,,0,7,7,7,2,1,9,1,,,,,,,,3.8,2295.1476024000003,2298.9508887,2298.95071702,0.30484080000042013,2299.3947251,2299.3947251,m,0.581040999999459,2304.164165,2304.164165,74,4.122,,,sub-037,50,105,700,bloc_loop.csv,2023-07-05_13h01.17.923,PainUncertainty,2022.2.5,144.69518512283244,
grave,moderee,stimuli/330Hz,stimuli/moderee,bloc_8,prob50_50_4trials.xlsx,3,12,50,50,0,,,,,0,7,7,7,2,2,10,0,,,,,,,,3.1,2304.164165,2307.2641633000003,2307.26384782,0.3053234999997585,2307.7083447000005,2307.7083447000005,n,0.5017263999989154,2316.0731787000004,2316.0731787000004,42,7.795,,,sub-037,50,105,700,bloc_loop.csv,2023-07-05_13h01.17.923,PainUncertainty,2022.2.5,144.69518512283244,
aigu,moderee,stimuli/660Hz,stimuli/moderee,bloc_8,prob50_50_4trials.xlsx,3,12,50,50,0,,,,,0,7,7,7,2,3,11,2,,,,,,,,3.8,2316.0731787000004,2319.87659,2319.876398320001,0.3052965000006225,2320.3212167,2320.3212167,n,0.5429644999985612,2323.4582324000003,2323.4582324000003,50,2.524,,,sub-037,50,105,700,bloc_loop.csv,2023-07-05_13h01.17.923,PainUncertainty,2022.2.5,144.69518512283244,
grave,moderee,stimuli/330Hz,stimuli/moderee,bloc_9,prob20hthp_12trials.xlsx,3,36,80,20,0,,,,,0,8,8,8,0,0,0,5,,,,,,,,5,2323.4582324000003,2328.4612772,2328.4611240199997,0.30478170000060345,2328.9053736000005,2328.9053736000005,n,0.590796099999352,2334.3134979999995,2334.3134979999995,47,4.761,,,sub-037,50,105,700,bloc_loop.csv,2023-07-05_13h01.17.923,PainUncertainty,2022.2.5,144.69518512283244,
aigu,moderee,stimuli/660Hz,stimuli/moderee,bloc_9,prob20hthp_12trials.xlsx,3,36,80,20,0,,,,,0,8,8,8,0,1,1,9,,,,,,,,4.5,2334.3134979999995,2338.8169359000003,2338.8167652199995,0.2992467000003671,2339.2594135,2339.2594135,n,0.5441516999981104,2342.0986716000007,2342.0986716000007,49,2.218,,,sub-037,50,105,700,bloc_loop.csv,2023-07-05_13h01.17.923,PainUncertainty,2022.2.5,144.69518512283244,
grave,forte,stimuli/330Hz,stimuli/forte,bloc_9,prob20hthp_12trials.xlsx,3,36,80,20,0,,,,,0,8,8,8,0,2,2,0,,,,,,,,3.3,2342.0986716000007,2345.4004535000004,2345.4002999200006,0.30638059999910183,2345.8502233,2345.8502233,m,0.41861229999994976,2348.2192042999995,2348.2192042999995,72,1.892,,,sub-037,50,105,700,bloc_loop.csv,2023-07-05_13h01.17.923,PainUncertainty,2022.2.5,144.69518512283244,
aigu,forte,stimuli/660Hz,stimuli/forte,bloc_9,prob20hthp_12trials.xlsx,3,36,80,20,0,,,,,0,8,8,8,0,3,3,11,,,,,,,,4.7,2348.2192042999995,2352.9225688999995,2352.9223210200003,0.30505580000135524,2353.3664425999996,2353.3664425999996,m,0.4149454999987938,2362.9759890999994,2362.9759890999994,79,9.11,,,sub-037,50,105,700,bloc_loop.csv,2023-07-05_13h01.17.923,PainUncertainty,2022.2.5,144.69518512283244,
aigu,moderee,stimuli/660Hz,stimuli/moderee,bloc_9,prob20hthp_12trials.xlsx,3,36,80,20,0,,,,,0,8,8,8,0,4,4,7,,,,,,,,4.1,2362.9759890999994,2367.076707100001,2367.0764722200006,0.30528919999960635,2367.5247782000006,2367.5247782000006,n,0.5690131999981531,2371.4468885000006,2371.4468885000006,47,3.281,,,sub-037,50,105,700,bloc_loop.csv,2023-07-05_13h01.17.923,PainUncertainty,2022.2.5,144.69518512283244,
grave,forte,stimuli/330Hz,stimuli/forte,bloc_9,prob20hthp_12trials.xlsx,3,36,80,20,0,,,,,0,8,8,8,0,5,5,3,,,,,,,,4,2371.4468885000006,2375.4461744,2375.4459985199996,0.3007887000003393,2375.8906208999997,2375.8906208999997,m,0.6860031999985949,2382.6850261,2382.6850261,70,6.033,,,sub-037,50,105,700,bloc_loop.csv,2023-07-05_13h01.17.923,PainUncertainty,2022.2.5,144.69518512283244,
aigu,moderee,stimuli/660Hz,stimuli/moderee,bloc_9,prob20hthp_12trials.xlsx,3,36,80,20,0,,,,,0,8,8,8,0,6,6,8,,,,,,,,3.7,2382.6850261,2386.3844969,2386.3845435200005,0.30490780000036466,2386.830882800001,2386.830882800001,n,0.5416472999986581,2390.5013639999997,2390.5013639999997,41,3.045,,,sub-037,50,105,700,bloc_loop.csv,2023-07-05_13h01.17.923,PainUncertainty,2022.2.5,144.69518512283244,
grave,forte,stimuli/330Hz,stimuli/forte,bloc_9,prob20hthp_12trials.xlsx,3,36,80,20,0,,,,,0,8,8,8,0,7,7,1,,,,,,,,4,2390.5013639999997,2394.5039925,2394.50406892,0.30457920000117156,2394.9480036999994,2394.9480036999994,m,0.7954309999986435,2399.7076264999996,2399.7076264999996,73,3.906,,,sub-037,50,105,700,bloc_loop.csv,2023-07-05_13h01.17.923,PainUncertainty,2022.2.5,144.69518512283244,
grave,forte,stimuli/330Hz,stimuli/forte,bloc_9,prob20hthp_12trials.xlsx,3,36,80,20,0,,,,,0,8,8,8,0,8,8,4,,,,,,,,4.8,2399.7076264999996,2404.5120530999993,2404.5121109199995,0.3048668000010366,2404.9562318999997,2404.9562318999997,m,0.6176522999994631,2408.756493000001,2408.756493000001,78,3.1,,,sub-037,50,105,700,bloc_loop.csv,2023-07-05_13h01.17.923,PainUncertainty,2022.2.5,144.69518512283244,
aigu,moderee,stimuli/660Hz,stimuli/moderee,bloc_9,prob20hthp_12trials.xlsx,3,36,80,20,0,,,,,0,8,8,8,0,9,9,10,,,,,,,,3.6,2408.756493000001,2412.3601531999993,2412.359960620001,0.3049970000010944,2412.8046190999994,2412.8046190999994,n,0.5156563999989885,2418.6176548999993,2418.6176548999993,46,5.24,,,sub-037,50,105,700,bloc_loop.csv,2023-07-05_13h01.17.923,PainUncertainty,2022.2.5,144.69518512283244,
aigu,moderee,stimuli/660Hz,stimuli/moderee,bloc_9,prob20hthp_12trials.xlsx,3,36,80,20,0,,,,,0,8,8,8,0,10,10,6,,,,,,,,4.5,2418.6176548999993,2423.1180994999995,2423.1179548200003,0.3055304999998043,2423.5668124999993,2423.5668124999993,n,0.6739674999989802,2426.8354407999996,2426.8354407999996,50,2.526,,,sub-037,50,105,700,bloc_loop.csv,2023-07-05_13h01.17.923,PainUncertainty,2022.2.5,144.69518512283244,
grave,forte,stimuli/330Hz,stimuli/forte,bloc_9,prob20hthp_12trials.xlsx,3,36,80,20,0,,,,,0,8,8,8,0,11,11,2,,,,,,,,3.8,2426.8354407999996,2430.640138500001,2430.64008442,0.3049819000007119,2431.0891991000008,2431.0891991000008,m,0.4992153999992297,2435.482230400001,2435.482230400001,79,3.816,,,sub-037,50,105,700,bloc_loop.csv,2023-07-05_13h01.17.923,PainUncertainty,2022.2.5,144.69518512283244,
grave,moderee,stimuli/330Hz,stimuli/moderee,bloc_9,prob20hthp_12trials.xlsx,3,36,80,20,0,,,,,0,8,8,8,1,0,12,5,,,,,,,,4.8,2435.482230400001,2440.2867896999996,2440.286553120001,0.3051383000001806,2440.7310557,2440.7310557,n,0.6469934999986435,2443.4758604,2443.4758604,46,2.031,,,sub-037,50,105,700,bloc_loop.csv,2023-07-05_13h01.17.923,PainUncertainty,2022.2.5,144.69518512283244,
aigu,moderee,stimuli/660Hz,stimuli/moderee,bloc_9,prob20hthp_12trials.xlsx,3,36,80,20,0,,,,,0,8,8,8,1,1,13,7,,,,,,,,3.9,2443.4758604,2447.3778922,2447.3777353200007,0.30501940000067407,2447.8222141999995,2447.8222141999995,n,0.5380801999999676,2451.0682560000005,2451.0682560000005,43,2.637,,,sub-037,50,105,700,bloc_loop.csv,2023-07-05_13h01.17.923,PainUncertainty,2022.2.5,144.69518512283244,
grave,forte,stimuli/330Hz,stimuli/forte,bloc_9,prob20hthp_12trials.xlsx,3,36,80,20,0,,,,,0,8,8,8,1,2,14,4,,,,,,,,3.4,2451.0682560000005,2454.469023900001,2454.46879442,0.30514120000043476,2454.9174208000004,2454.9174208000004,m,0.4903004999996483,2459.3486988999994,2459.3486988999994,78,3.872,,,sub-037,50,105,700,bloc_loop.csv,2023-07-05_13h01.17.923,PainUncertainty,2022.2.5,144.69518512283244,
grave,forte,stimuli/330Hz,stimuli/forte,bloc_9,prob20hthp_12trials.xlsx,3,36,80,20,0,,,,,0,8,8,8,1,3,15,2,,,,,,,,3.2,2459.3486988999994,2462.553522800001,2462.5532444200003,0.30486669999845617,2462.9974084999994,2462.9974084999994,m,0.3958651999982976,2465.9496672000005,2465.9496672000005,80,2.504,,,sub-037,50,105,700,bloc_loop.csv,2023-07-05_13h01.17.923,PainUncertainty,2022.2.5,144.69518512283244,
grave,forte,stimuli/330Hz,stimuli/forte,bloc_9,prob20hthp_12trials.xlsx,3,36,80,20,0,,,,,0,8,8,8,1,4,16,0,,,,,,,,3.2,2465.9496672000005,2469.1513171999995,2469.1512124200003,0.30550210000001243,2469.5965484999997,2469.5965484999997,m,0.9001955999992788,2473.3029060999997,2473.3029060999997,77,2.755,,,sub-037,50,105,700,bloc_loop.csv,2023-07-05_13h01.17.923,PainUncertainty,2022.2.5,144.69518512283244,
grave,forte,stimuli/330Hz,stimuli/forte,bloc_9,prob20hthp_12trials.xlsx,3,36,80,20,0,,,,,0,8,8,8,1,5,17,1,,,,,,,,3.6,2473.3029060999997,2476.9022547999994,2476.9021357200004,0.2991846999993868,2477.3451927000006,2477.3451927000006,m,0.4977117999987968,2480.5471323,2480.5471323,78,2.63,,,sub-037,50,105,700,bloc_loop.csv,2023-07-05_13h01.17.923,PainUncertainty,2022.2.5,144.69518512283244,
aigu,moderee,stimuli/660Hz,stimuli/moderee,bloc_9,prob20hthp_12trials.xlsx,3,36,80,20,0,,,,,0,8,8,8,1,6,18,9,,,,,,,,3,2480.5471323,2483.5488067999995,2483.548651920001,0.30559439999888127,2483.9936921000008,2483.9936921000008,n,0.5700495000000956,2488.5054041000003,2488.5054041000003,45,3.886,,,sub-037,50,105,700,bloc_loop.csv,2023-07-05_13h01.17.923,PainUncertainty,2022.2.5,144.69518512283244,
aigu,moderee,stimuli/660Hz,stimuli/moderee,bloc_9,prob20hthp_12trials.xlsx,3,36,80,20,0,,,,,0,8,8,8,1,7,19,10,,,,,,,,3.6,2488.5054041000003,2492.1057966000008,2492.10564692,0.30466830000113987,2492.5500637999994,2492.5500637999994,n,0.9880448000003526,2497.7600449,2497.7600449,43,4.155,,,sub-037,50,105,700,bloc_loop.csv,2023-07-05_13h01.17.923,PainUncertainty,2022.2.5,144.69518512283244,
aigu,moderee,stimuli/660Hz,stimuli/moderee,bloc_9,prob20hthp_12trials.xlsx,3,36,80,20,0,,,,,0,8,8,8,1,8,20,8,,,,,,,,4.5,2497.7600449,2502.2598892000005,2502.2597224200003,0.304780499998742,2502.7038527999994,2502.7038527999994,n,0.5952897999995912,2505.4669902999995,2505.4669902999995,42,2.086,,,sub-037,50,105,700,bloc_loop.csv,2023-07-05_13h01.17.923,PainUncertainty,2022.2.5,144.69518512283244,
aigu,forte,stimuli/660Hz,stimuli/forte,bloc_9,prob20hthp_12trials.xlsx,3,36,80,20,0,,,,,0,8,8,8,1,9,21,11,,,,,,,,3.4,2505.4669902999995,2508.8714579000007,2508.87121822,0.30501360000016575,2509.3155229000004,2509.3155229000004,m,0.7030187000000296,2513.2022846,2513.2022846,69,3.129,,,sub-037,50,105,700,bloc_loop.csv,2023-07-05_13h01.17.923,PainUncertainty,2022.2.5,144.69518512283244,
grave,forte,stimuli/330Hz,stimuli/forte,bloc_9,prob20hthp_12trials.xlsx,3,36,80,20,0,,,,,0,8,8,8,1,10,22,3,,,,,,,,5,2513.2022846,2518.205837200001,2518.20564762,0.3010816000005434,2518.6504895,2518.6504895,m,0.6093297999996139,2524.1228004999994,2524.1228004999994,72,4.729,,,sub-037,50,105,700,bloc_loop.csv,2023-07-05_13h01.17.923,PainUncertainty,2022.2.5,144.69518512283244,
aigu,moderee,stimuli/660Hz,stimuli/moderee,bloc_9,prob20hthp_12trials.xlsx,3,36,80,20,0,,,,,0,8,8,8,1,11,23,6,,,,,,,,5,2524.1228004999994,2529.1237003000006,2529.12354042,0.30506549999881827,2529.567890800001,2529.567890800001,n,0.5691579999984242,2535.7099306,2535.7099306,41,5.511,,,sub-037,50,105,700,bloc_loop.csv,2023-07-05_13h01.17.923,PainUncertainty,2022.2.5,144.69518512283244,
aigu,moderee,stimuli/660Hz,stimuli/moderee,bloc_9,prob20hthp_12trials.xlsx,3,36,80,20,0,,,,,0,8,8,8,2,0,24,7,,,,,,,,3.2,2535.7099306,2538.909576,2538.90943002,0.30542789999890374,2539.3564401000003,2539.3564401000003,n,0.4499531000001298,2542.4725254000004,2542.4725254000004,43,2.604,,,sub-037,50,105,700,bloc_loop.csv,2023-07-05_13h01.17.923,PainUncertainty,2022.2.5,144.69518512283244,
aigu,moderee,stimuli/660Hz,stimuli/moderee,bloc_9,prob20hthp_12trials.xlsx,3,36,80,20,0,,,,,0,8,8,8,2,1,25,6,,,,,,,,3.2,2542.4725254000004,2545.6743021,2545.67403402,0.30511830000068585,2546.1187847,2546.1187847,n,0.5352052999987791,2549.2346567999994,2549.2346567999994,40,2.519,,,sub-037,50,105,700,bloc_loop.csv,2023-07-05_13h01.17.923,PainUncertainty,2022.2.5,144.69518512283244,
aigu,moderee,stimuli/660Hz,stimuli/moderee,bloc_9,prob20hthp_12trials.xlsx,3,36,80,20,0,,,,,0,8,8,8,2,2,26,10,,,,,,,,5,2549.2346567999994,2554.2377495,2554.2375792200005,0.30533350000041537,2554.6857555999995,2554.6857555999995,n,0.5956091999996715,2558.9059689999995,2558.9059689999995,44,3.566,,,sub-037,50,105,700,bloc_loop.csv,2023-07-05_13h01.17.923,PainUncertainty,2022.2.5,144.69518512283244,
aigu,moderee,stimuli/660Hz,stimuli/moderee,bloc_9,prob20hthp_12trials.xlsx,3,36,80,20,0,,,,,0,8,8,8,2,3,27,9,,,,,,,,4.4,2558.9059689999995,2563.3082761000005,2563.30816182,0.3048564000000624,2563.752677300001,2563.752677300001,n,0.9765718999988167,2570.8156103,2570.8156103,41,6.01,,,sub-037,50,105,700,bloc_loop.csv,2023-07-05_13h01.17.923,PainUncertainty,2022.2.5,144.69518512283244,
grave,forte,stimuli/330Hz,stimuli/forte,bloc_9,prob20hthp_12trials.xlsx,3,36,80,20,0,,,,,0,8,8,8,2,4,28,3,,,,,,,,3.1,2570.8156103,2573.920689300001,2573.9204783200007,0.3049544999994396,2574.3648878999993,2574.3648878999993,m,0.46427500000027067,2577.0632666,2577.0632666,72,2.183,,,sub-037,50,105,700,bloc_loop.csv,2023-07-05_13h01.17.923,PainUncertainty,2022.2.5,144.69518512283244,
grave,forte,stimuli/330Hz,stimuli/forte,bloc_9,prob20hthp_12trials.xlsx,3,36,80,20,0,,,,,0,8,8,8,2,5,29,1,,,,,,,,4.8,2577.0632666,2581.8663565000006,2581.8662657200007,0.3051980000000185,2582.3103152000003,2582.3103152000003,m,0.47172499999942374,2587.6152490999993,2587.6152490999993,75,4.761,,,sub-037,50,105,700,bloc_loop.csv,2023-07-05_13h01.17.923,PainUncertainty,2022.2.5,144.69518512283244,
aigu,moderee,stimuli/660Hz,stimuli/moderee,bloc_9,prob20hthp_12trials.xlsx,3,36,80,20,0,,,,,0,8,8,8,2,6,30,8,,,,,,,,3.7,2587.6152490999993,2591.3186821,2591.31836222,0.3051167000012356,2591.7627648,2591.7627648,n,0.7004160999986198,2598.0379527999994,2598.0379527999994,42,5.504,,,sub-037,50,105,700,bloc_loop.csv,2023-07-05_13h01.17.923,PainUncertainty,2022.2.5,144.69518512283244,
grave,forte,stimuli/330Hz,stimuli/forte,bloc_9,prob20hthp_12trials.xlsx,3,36,80,20,0,,,,,0,8,8,8,2,7,31,2,,,,,,,,5,2598.0379527999994,2603.0421351000005,2603.042098120001,0.2993977000005543,2603.487001200001,2603.487001200001,m,0.5690140999995492,2607.3710933,2607.3710933,76,3.261,,,sub-037,50,105,700,bloc_loop.csv,2023-07-05_13h01.17.923,PainUncertainty,2022.2.5,144.69518512283244,
aigu,forte,stimuli/660Hz,stimuli/forte,bloc_9,prob20hthp_12trials.xlsx,3,36,80,20,0,,,,,0,8,8,8,2,8,32,11,,,,,,,,3.1,2607.3710933,2610.4736586,2610.4733984199997,0.3053755999990244,2610.9184451,2610.9184451,m,0.4752950999991299,2615.4431387000004,2615.4431387000004,76,3.998,,,sub-037,50,105,700,bloc_loop.csv,2023-07-05_13h01.17.923,PainUncertainty,2022.2.5,144.69518512283244,
grave,forte,stimuli/330Hz,stimuli/forte,bloc_9,prob20hthp_12trials.xlsx,3,36,80,20,0,,,,,0,8,8,8,2,9,33,4,,,,,,,,3.8,2615.4431387000004,2619.2461765999997,2619.2460532200007,0.30108670000117854,2619.6908939000004,2619.6908939000004,m,0.4020664999989094,2624.0926206999993,2624.0926206999993,78,3.942,,,sub-037,50,105,700,bloc_loop.csv,2023-07-05_13h01.17.923,PainUncertainty,2022.2.5,144.69518512283244,
grave,forte,stimuli/330Hz,stimuli/forte,bloc_9,prob20hthp_12trials.xlsx,3,36,80,20,0,,,,,0,8,8,8,2,10,34,0,,,,,,,,3.3,2624.0926206999993,2627.3923453000007,2627.3921803199996,0.3051013000003877,2627.8405755999993,2627.8405755999993,m,0.7836972999994032,2632.230830300001,2632.230830300001,75,3.526,,,sub-037,50,105,700,bloc_loop.csv,2023-07-05_13h01.17.923,PainUncertainty,2022.2.5,144.69518512283244,
grave,moderee,stimuli/330Hz,stimuli/moderee,bloc_9,prob20hthp_12trials.xlsx,3,36,80,20,0,,,,,0,8,8,8,2,11,35,5,,,,,,,,3.1,2632.230830300001,2635.3307693000006,2635.330752120001,0.30490739999913785,2635.7751260999994,2635.7751260999994,n,0.6142073000009987,2639.6769227999994,2639.6769227999994,34,3.26,,,sub-037,50,105,700,bloc_loop.csv,2023-07-05_13h01.17.923,PainUncertainty,2022.2.5,144.69518512283244,
