cue_,stimulus_,cue_fichier,stimulus_fichier,block_name,block_trials_file,block_n_reps,block_ntrials,block_prob_highP_highT,block_prob_highP_lowT,block_pause_after,Bloc_essai.thisRepN,Bloc_essai.thisTrialN,Bloc_essai.thisN,Bloc_essai.thisIndex,blocks.thisRepN,blocks.thisTrialN,blocks.thisN,blocks.thisIndex,trials.thisRepN,trials.thisTrialN,trials.thisN,trials.thisIndex,pause_loop.thisRepN,pause_loop.thisTrialN,pause_loop.thisN,pause_loop.thisIndex,key_resp_5.started,start_calib.started,key_resp_2.started,ISI_duration,pause.started,pause.stopped,cue.started,ISI.started,choice_pain.started,Choice.started,choice_pain.keys,choice_pain.rt,main_text.started,confirm_text.started,ratingScale.response,ratingScale.rt,choice_pain.stopped,Choice.stopped,key_resp_3.started,key_resp_6.started,participant,low_ma,high_ma,failsafe_ma,block_file,date,expName,psychopyVersion,frameRate
grave,forte,stimuli/330Hz,stimuli/forte,,,,,,,,0,0,0,1,,,,,,,,,,,,,15.3265077,195.7929801,245.6810031,4.1,247.1209967,251.2325137,251.2373541,0.3063526,251.6748947,251.6748947,m,2.1228744,257.2014628,257.2014628,50,3.311,,,,,sub-021,55,115,700,bloc_loop.csv,2023-06-07_11h14.01.740,PainUncertainty,2022.2.5,143.4226378
aigu,moderee,stimuli/660Hz,stimuli/moderee,,,,,,,,0,1,1,2,,,,,,,,,,,,,,,,3.2,257.2014628,260.4087451,260.4120725,0.3057412,260.8530592,260.8530592,n,1.4703789,265.0191364,265.0191364,21,2.638,,,,,sub-021,55,115,700,bloc_loop.csv,2023-06-07_11h14.01.740,PainUncertainty,2022.2.5,143.4226378
grave,moderee,stimuli/330Hz,stimuli/moderee,,,,,,,,0,2,2,0,,,,,,,,,,,,,,,,3.7,265.0191364,268.7193939,268.7192954,0.3048472,269.1666671,269.1666671,n,1.6134847,272.8063493,272.8063493,14,1.95,,,,,sub-021,55,115,700,bloc_loop.csv,2023-06-07_11h14.01.740,PainUncertainty,2022.2.5,143.4226378
aigu,forte,stimuli/660Hz,stimuli/forte,,,,,,,,0,3,3,3,,,,,,,,,,,,,,,,3.2,272.8063493,276.011163,276.0111321,0.3052452,276.4559007,276.4559007,m,1.5597753,280.8855828,280.8855828,48,2.845,,,,,sub-021,55,115,700,bloc_loop.csv,2023-06-07_11h14.01.740,PainUncertainty,2022.2.5,143.4226378
aigu,moderee,stimuli/660Hz,stimuli/moderee,bloc_1,prob20hthp_12trials.xlsx,4,48,20,80,0,,,,,0,0,0,0,0,0,0,9,,,,,,,,4.5,340.9566714,345.4570015,345.4570085,0.3053864,345.9012062,345.9012062,n,1.5666407,349.8613759,349.8613759,17,2.339,,,,,sub-021,55,115,700,bloc_loop.csv,2023-06-07_11h14.01.740,PainUncertainty,2022.2.5,143.4226378
aigu,moderee,stimuli/660Hz,stimuli/moderee,bloc_1,prob20hthp_12trials.xlsx,4,48,20,80,0,,,,,0,0,0,0,0,1,1,7,,,,,,,,5,349.8613759,354.8612579,354.8612644,0.2992556,355.3034516,355.3034516,n,2.1855696,359.1215876,359.1215876,21,1.56,,,,,sub-021,55,115,700,bloc_loop.csv,2023-06-07_11h14.01.740,PainUncertainty,2022.2.5,143.4226378
aigu,forte,stimuli/660Hz,stimuli/forte,bloc_1,prob20hthp_12trials.xlsx,4,48,20,80,0,,,,,0,0,0,0,0,2,2,11,,,,,,,,3.3,359.1215876,362.4244103,362.4244167,0.3052235,362.8684501,362.8684501,m,0.9680786,366.2842046,366.2842046,48,2.371,,,,,sub-021,55,115,700,bloc_loop.csv,2023-06-07_11h14.01.740,PainUncertainty,2022.2.5,143.4226378
grave,moderee,stimuli/330Hz,stimuli/moderee,bloc_1,prob20hthp_12trials.xlsx,4,48,20,80,0,,,,,0,0,0,0,0,3,3,5,,,,,,,,3.1,366.2842046,369.3835742,369.3835514,0.2999378,369.8282726,369.8282726,n,1.9324005,375.2714748,375.2714748,17,3.451,,,,,sub-021,55,115,700,bloc_loop.csv,2023-06-07_11h14.01.740,PainUncertainty,2022.2.5,143.4226378
aigu,moderee,stimuli/660Hz,stimuli/moderee,bloc_1,prob20hthp_12trials.xlsx,4,48,20,80,0,,,,,0,0,0,0,0,4,4,6,,,,,,,,4.6,375.2714748,379.8710705,379.8711394,0.3049534,380.3154061,380.3154061,n,1.1582936,383.1380894,383.1380894,18,1.594,,,,,sub-021,55,115,700,bloc_loop.csv,2023-06-07_11h14.01.740,PainUncertainty,2022.2.5,143.4226378
grave,forte,stimuli/330Hz,stimuli/forte,bloc_1,prob20hthp_12trials.xlsx,4,48,20,80,0,,,,,0,0,0,0,0,5,5,3,,,,,,,,3.5,383.1380894,386.6427309,386.6427753,0.3048117,387.0869883,387.0869883,m,1.1358548,390.2850655,390.2850655,55,2.005,,,,,sub-021,55,115,700,bloc_loop.csv,2023-06-07_11h14.01.740,PainUncertainty,2022.2.5,143.4226378
grave,forte,stimuli/330Hz,stimuli/forte,bloc_1,prob20hthp_12trials.xlsx,4,48,20,80,0,,,,,0,0,0,0,0,6,6,1,,,,,,,,3.7,390.2850655,393.9906856,393.9907667,0.305465,394.4359441,394.4359441,m,1.4461719,398.3292124,398.3292124,61,2.366,,,,,sub-021,55,115,700,bloc_loop.csv,2023-06-07_11h14.01.740,PainUncertainty,2022.2.5,143.4226378
aigu,moderee,stimuli/660Hz,stimuli/moderee,bloc_1,prob20hthp_12trials.xlsx,4,48,20,80,0,,,,,0,0,0,0,0,7,7,10,,,,,,,,4.9,398.3292124,403.2285741,403.2286648,0.3048797,403.6774185,403.6774185,n,1.0653531,407.3786078,407.3786078,25,2.569,,,,,sub-021,55,115,700,bloc_loop.csv,2023-06-07_11h14.01.740,PainUncertainty,2022.2.5,143.4226378
aigu,moderee,stimuli/660Hz,stimuli/moderee,bloc_1,prob20hthp_12trials.xlsx,4,48,20,80,0,,,,,0,0,0,0,0,8,8,8,,,,,,,,4.9,407.3786078,412.2778887,412.2779592,0.304857,412.7221343,412.7221343,n,2.4114413,417.580941,417.580941,20,2.374,,,,,sub-021,55,115,700,bloc_loop.csv,2023-06-07_11h14.01.740,PainUncertainty,2022.2.5,143.4226378
grave,forte,stimuli/330Hz,stimuli/forte,bloc_1,prob20hthp_12trials.xlsx,4,48,20,80,0,,,,,0,0,0,0,0,9,9,2,,,,,,,,4,417.580941,421.5843134,421.5841527,0.3007072,422.0297634,422.0297634,None,,427.0151268,427.0151268,49,2.482,424.497588,424.497588,,,sub-021,55,115,700,bloc_loop.csv,2023-06-07_11h14.01.740,PainUncertainty,2022.2.5,143.4226378
grave,forte,stimuli/330Hz,stimuli/forte,bloc_1,prob20hthp_12trials.xlsx,4,48,20,80,0,,,,,0,0,0,0,0,10,10,0,,,,,,,,3.5,427.0151268,430.5162257,430.5166342,0.3048951,430.9624694,430.9624694,m,0.8048869,434.9784839,434.9784839,60,3.144,,,,,sub-021,55,115,700,bloc_loop.csv,2023-06-07_11h14.01.740,PainUncertainty,2022.2.5,143.4226378
grave,forte,stimuli/330Hz,stimuli/forte,bloc_1,prob20hthp_12trials.xlsx,4,48,20,80,0,,,,,0,0,0,0,0,11,11,4,,,,,,,,4.5,434.9784839,439.4823262,439.482284,0.3052628,439.9268767,439.9268767,m,1.3051301,443.0521861,443.0521861,57,1.754,,,,,sub-021,55,115,700,bloc_loop.csv,2023-06-07_11h14.01.740,PainUncertainty,2022.2.5,143.4226378
aigu,moderee,stimuli/660Hz,stimuli/moderee,bloc_1,prob20hthp_12trials.xlsx,4,48,20,80,0,,,,,0,0,0,0,1,0,12,10,,,,,,,,3.9,443.0521861,446.9563974,446.9560121,0.3049502,447.4036785,447.4036785,n,0.9114863,450.7105987,450.7105987,9,2.331,,,,,sub-021,55,115,700,bloc_loop.csv,2023-06-07_11h14.01.740,PainUncertainty,2022.2.5,143.4226378
grave,forte,stimuli/330Hz,stimuli/forte,bloc_1,prob20hthp_12trials.xlsx,4,48,20,80,0,,,,,0,0,0,0,1,1,13,3,,,,,,,,4.1,450.7105987,454.8105092,454.8105295,0.3054306,455.2592396,455.2592396,m,0.5151471,457.8586901,457.8586901,69,2.018,,,,,sub-021,55,115,700,bloc_loop.csv,2023-06-07_11h14.01.740,PainUncertainty,2022.2.5,143.4226378
grave,moderee,stimuli/330Hz,stimuli/moderee,bloc_1,prob20hthp_12trials.xlsx,4,48,20,80,0,,,,,0,0,0,0,1,2,14,5,,,,,,,,3.6,457.8586901,461.464146,461.4641983,0.3048377,461.9082682,461.9082682,n,1.8299836,466.6056533,466.6056533,15,2.812,,,,,sub-021,55,115,700,bloc_loop.csv,2023-06-07_11h14.01.740,PainUncertainty,2022.2.5,143.4226378
aigu,moderee,stimuli/660Hz,stimuli/moderee,bloc_1,prob20hthp_12trials.xlsx,4,48,20,80,0,,,,,0,0,0,0,1,3,15,8,,,,,,,,4,466.6056533,470.6113336,470.6126757,0.3010699,471.0556949,471.0556949,n,2.0219596,474.5359427,474.5359427,10,1.401,,,,,sub-021,55,115,700,bloc_loop.csv,2023-06-07_11h14.01.740,PainUncertainty,2022.2.5,143.4226378
aigu,moderee,stimuli/660Hz,stimuli/moderee,bloc_1,prob20hthp_12trials.xlsx,4,48,20,80,0,,,,,0,0,0,0,1,4,16,9,,,,,,,,3.3,474.5359427,477.8410397,477.8410882,0.3051266,478.2854069,478.2854069,n,1.0800315,481.7642442,481.7642442,7,2.318,,,,,sub-021,55,115,700,bloc_loop.csv,2023-06-07_11h14.01.740,PainUncertainty,2022.2.5,143.4226378
grave,forte,stimuli/330Hz,stimuli/forte,bloc_1,prob20hthp_12trials.xlsx,4,48,20,80,0,,,,,0,0,0,0,1,5,17,4,,,,,,,,4.9,481.7642442,486.6689102,486.6689343,0.3050255,487.1129766,487.1129766,m,0.8229209,490.8951462,490.8951462,64,2.893,,,,,sub-021,55,115,700,bloc_loop.csv,2023-06-07_11h14.01.740,PainUncertainty,2022.2.5,143.4226378
grave,forte,stimuli/330Hz,stimuli/forte,bloc_1,prob20hthp_12trials.xlsx,4,48,20,80,0,,,,,0,0,0,0,1,6,18,2,,,,,,,,4.1,490.8951462,494.9962313,494.9962978,0.3051045,495.4429486,495.4429486,m,0.716783,497.9447574,497.9447574,66,1.726,,,,,sub-021,55,115,700,bloc_loop.csv,2023-06-07_11h14.01.740,PainUncertainty,2022.2.5,143.4226378
grave,forte,stimuli/330Hz,stimuli/forte,bloc_1,prob20hthp_12trials.xlsx,4,48,20,80,0,,,,,0,0,0,0,1,7,19,0,,,,,,,,4.6,497.9447574,502.5455076,502.5456222,0.2993444,502.9866658,502.9866658,m,0.7628465,506.7902918,506.7902918,78,2.956,,,,,sub-021,55,115,700,bloc_loop.csv,2023-06-07_11h14.01.740,PainUncertainty,2022.2.5,143.4226378
aigu,moderee,stimuli/660Hz,stimuli/moderee,bloc_1,prob20hthp_12trials.xlsx,4,48,20,80,0,,,,,0,0,0,0,1,8,20,6,,,,,,,,5,506.7902918,511.7901442,511.7902016,0.3052503,512.2366448,512.2366448,n,0.8303259,514.7186834,514.7186834,19,1.6,,,,,sub-021,55,115,700,bloc_loop.csv,2023-06-07_11h14.01.740,PainUncertainty,2022.2.5,143.4226378
aigu,moderee,stimuli/660Hz,stimuli/moderee,bloc_1,prob20hthp_12trials.xlsx,4,48,20,80,0,,,,,0,0,0,0,1,9,21,7,,,,,,,,3.7,514.7186834,518.422938,518.4228526,0.301498,518.8673454,518.8673454,n,1.0515459,521.914,521.914,23,1.928,,,,,sub-021,55,115,700,bloc_loop.csv,2023-06-07_11h14.01.740,PainUncertainty,2022.2.5,143.4226378
grave,forte,stimuli/330Hz,stimuli/forte,bloc_1,prob20hthp_12trials.xlsx,4,48,20,80,0,,,,,0,0,0,0,1,10,22,1,,,,,,,,4.6,521.914,526.5136944,526.5139027,0.3052245,526.9606332,526.9606332,m,0.7355413,529.4621159,529.4621159,63,1.701,,,,,sub-021,55,115,700,bloc_loop.csv,2023-06-07_11h14.01.740,PainUncertainty,2022.2.5,143.4226378
aigu,forte,stimuli/660Hz,stimuli/forte,bloc_1,prob20hthp_12trials.xlsx,4,48,20,80,0,,,,,0,0,0,0,1,11,23,11,,,,,,,,4.3,529.4621159,533.7646021,533.7647091,0.3009494,534.209042,534.209042,n,0.8806179,537.0413822,537.0413822,9,1.829,,,,,sub-021,55,115,700,bloc_loop.csv,2023-06-07_11h14.01.740,PainUncertainty,2022.2.5,143.4226378
aigu,moderee,stimuli/660Hz,stimuli/moderee,bloc_1,prob20hthp_12trials.xlsx,4,48,20,80,0,,,,,0,0,0,0,2,0,24,8,,,,,,,,3.5,537.0413822,540.5435283,540.5434417,0.3051641,540.9873653,540.9873653,n,1.1123194,545.3402152,545.3402152,2,3.187,,,,,sub-021,55,115,700,bloc_loop.csv,2023-06-07_11h14.01.740,PainUncertainty,2022.2.5,143.4226378
aigu,moderee,stimuli/660Hz,stimuli/moderee,bloc_1,prob20hthp_12trials.xlsx,4,48,20,80,0,,,,,0,0,0,0,2,1,25,9,,,,,,,,3.2,545.3402152,548.544234,548.5443366,0.3057598,548.9940692,548.9940692,n,1.8570232,552.8882448,552.8882448,7,1.963,,,,,sub-021,55,115,700,bloc_loop.csv,2023-06-07_11h14.01.740,PainUncertainty,2022.2.5,143.4226378
aigu,forte,stimuli/660Hz,stimuli/forte,bloc_1,prob20hthp_12trials.xlsx,4,48,20,80,0,,,,,0,0,0,0,2,2,26,11,,,,,,,,4.5,552.8882448,557.3925175,557.3924709,0.305409,557.8372136,557.8372136,m,1.1390367,560.8975345,560.8975345,60,1.872,,,,,sub-021,55,115,700,bloc_loop.csv,2023-06-07_11h14.01.740,PainUncertainty,2022.2.5,143.4226378
grave,forte,stimuli/330Hz,stimuli/forte,bloc_1,prob20hthp_12trials.xlsx,4,48,20,80,0,,,,,0,0,0,0,2,3,27,4,,,,,,,,5,560.8975345,565.9003254,565.9005067,0.3051874,566.3447649,566.3447649,m,1.0169888,568.6872563,568.6872563,68,1.246,,,,,sub-021,55,115,700,bloc_loop.csv,2023-06-07_11h14.01.740,PainUncertainty,2022.2.5,143.4226378
aigu,moderee,stimuli/660Hz,stimuli/moderee,bloc_1,prob20hthp_12trials.xlsx,4,48,20,80,0,,,,,0,0,0,0,2,4,28,6,,,,,,,,4.7,568.6872563,573.3880815,573.3878341,0.3052404,573.8352768,573.8352768,n,1.0738617,575.9116698,575.9116698,10,0.954,,,,,sub-021,55,115,700,bloc_loop.csv,2023-06-07_11h14.01.740,PainUncertainty,2022.2.5,143.4226378
grave,moderee,stimuli/330Hz,stimuli/moderee,bloc_1,prob20hthp_12trials.xlsx,4,48,20,80,0,,,,,0,0,0,0,2,5,29,5,,,,,,,,4.6,575.9116698,580.51333,580.5133268,0.3048693,580.9575095,580.9575095,n,0.8631382,584.0508006,584.0508006,9,2.159,,,,,sub-021,55,115,700,bloc_loop.csv,2023-06-07_11h14.01.740,PainUncertainty,2022.2.5,143.4226378
grave,forte,stimuli/330Hz,stimuli/forte,bloc_1,prob20hthp_12trials.xlsx,4,48,20,80,0,,,,,0,0,0,0,2,6,30,1,,,,,,,,3.6,584.0508006,587.6535549,587.653587,0.305334,588.1032807,588.1032807,m,1.3181771,592.1125493,592.1125493,65,2.637,,,,,sub-021,55,115,700,bloc_loop.csv,2023-06-07_11h14.01.740,PainUncertainty,2022.2.5,143.4226378
grave,forte,stimuli/330Hz,stimuli/forte,bloc_1,prob20hthp_12trials.xlsx,4,48,20,80,0,,,,,0,0,0,0,2,7,31,2,,,,,,,,3.4,592.1125493,595.5151673,595.5152749,0.3049233,595.959473,595.959473,m,0.7085434,597.9781187,597.9781187,58,1.253,,,,,sub-021,55,115,700,bloc_loop.csv,2023-06-07_11h14.01.740,PainUncertainty,2022.2.5,143.4226378
grave,forte,stimuli/330Hz,stimuli/forte,bloc_1,prob20hthp_12trials.xlsx,4,48,20,80,0,,,,,0,0,0,0,2,8,32,3,,,,,,,,3.2,597.9781187,601.1761519,601.1771444,0.304232,601.6236482,601.6236482,m,0.363442,603.6062901,603.6062901,73,1.567,,,,,sub-021,55,115,700,bloc_loop.csv,2023-06-07_11h14.01.740,PainUncertainty,2022.2.5,143.4226378
grave,forte,stimuli/330Hz,stimuli/forte,bloc_1,prob20hthp_12trials.xlsx,4,48,20,80,0,,,,,0,0,0,0,2,9,33,0,,,,,,,,4.9,603.6062901,608.5101971,608.5102195,0.30488,608.9540748,608.9540748,m,0.7276262,611.3943414,611.3943414,73,1.644,,,,,sub-021,55,115,700,bloc_loop.csv,2023-06-07_11h14.01.740,PainUncertainty,2022.2.5,143.4226378
aigu,moderee,stimuli/660Hz,stimuli/moderee,bloc_1,prob20hthp_12trials.xlsx,4,48,20,80,0,,,,,0,0,0,0,2,10,34,10,,,,,,,,5,611.3943414,616.399628,616.399672,0.3050469,616.8438414,616.8438414,n,0.6957314,619.2287881,619.2287881,4,1.624,,,,,sub-021,55,115,700,bloc_loop.csv,2023-06-07_11h14.01.740,PainUncertainty,2022.2.5,143.4226378
aigu,moderee,stimuli/660Hz,stimuli/moderee,bloc_1,prob20hthp_12trials.xlsx,4,48,20,80,0,,,,,0,0,0,0,2,11,35,7,,,,,,,,3.8,619.2287881,623.0328679,623.0327542,0.3048864,623.4767327,623.4767327,n,1.5025477,626.2024702,626.2024702,7,1.165,,,,,sub-021,55,115,700,bloc_loop.csv,2023-06-07_11h14.01.740,PainUncertainty,2022.2.5,143.4226378
aigu,moderee,stimuli/660Hz,stimuli/moderee,bloc_1,prob20hthp_12trials.xlsx,4,48,20,80,0,,,,,0,0,0,0,3,0,36,7,,,,,,,,4,626.2024702,630.206909,630.2072108,0.3054661,630.6560671,630.6560671,n,0.7438888,632.7882902,632.7882902,8,1.333,,,,,sub-021,55,115,700,bloc_loop.csv,2023-06-07_11h14.01.740,PainUncertainty,2022.2.5,143.4226378
aigu,moderee,stimuli/660Hz,stimuli/moderee,bloc_1,prob20hthp_12trials.xlsx,4,48,20,80,0,,,,,0,0,0,0,3,1,37,9,,,,,,,,3.3,632.7882902,636.0896132,636.0896156,0.3048243,636.5342261,636.5342261,n,1.0109665,639.0591802,639.0591802,11,1.448,,,,,sub-021,55,115,700,bloc_loop.csv,2023-06-07_11h14.01.740,PainUncertainty,2022.2.5,143.4226378
aigu,moderee,stimuli/660Hz,stimuli/moderee,bloc_1,prob20hthp_12trials.xlsx,4,48,20,80,0,,,,,0,0,0,0,3,2,38,6,,,,,,,,4.2,639.0591802,643.2640662,643.2642584,0.3048453,643.7084899,643.7084899,n,0.871733,645.9013124,645.9013124,7,1.24,,,,,sub-021,55,115,700,bloc_loop.csv,2023-06-07_11h14.01.740,PainUncertainty,2022.2.5,143.4226378
grave,forte,stimuli/330Hz,stimuli/forte,bloc_1,prob20hthp_12trials.xlsx,4,48,20,80,0,,,,,0,0,0,0,3,3,39,0,,,,,,,,3.6,645.9013124,649.501198,649.5010866,0.3049358,649.952215,649.952215,m,0.8352569,652.3444323,652.3444323,66,1.498,,,,,sub-021,55,115,700,bloc_loop.csv,2023-06-07_11h14.01.740,PainUncertainty,2022.2.5,143.4226378
grave,forte,stimuli/330Hz,stimuli/forte,bloc_1,prob20hthp_12trials.xlsx,4,48,20,80,0,,,,,0,0,0,0,3,4,40,2,,,,,,,,3,652.3444323,655.3489306,655.3488383,0.3048317,655.7930935,655.7930935,m,0.758749,657.6063655,657.6063655,60,0.992,,,,,sub-021,55,115,700,bloc_loop.csv,2023-06-07_11h14.01.740,PainUncertainty,2022.2.5,143.4226378
grave,forte,stimuli/330Hz,stimuli/forte,bloc_1,prob20hthp_12trials.xlsx,4,48,20,80,0,,,,,0,0,0,0,3,5,41,4,,,,,,,,3.9,657.6063655,661.5093491,661.5094023,0.3050699,661.955562,661.955562,m,1.6158201,665.3775834,665.3775834,64,1.733,,,,,sub-021,55,115,700,bloc_loop.csv,2023-06-07_11h14.01.740,PainUncertainty,2022.2.5,143.4226378
aigu,moderee,stimuli/660Hz,stimuli/moderee,bloc_1,prob20hthp_12trials.xlsx,4,48,20,80,0,,,,,0,0,0,0,3,6,42,10,,,,,,,,3.1,665.3775834,668.482425,668.4824252,0.305023,668.9265778,668.9265778,m,1.4137799,672.732334,672.732334,46,2.322,,,,,sub-021,55,115,700,bloc_loop.csv,2023-06-07_11h14.01.740,PainUncertainty,2022.2.5,143.4226378
aigu,forte,stimuli/660Hz,stimuli/forte,bloc_1,prob20hthp_12trials.xlsx,4,48,20,80,0,,,,,0,0,0,0,3,7,43,11,,,,,,,,3.4,672.732334,676.1361287,676.1362604,0.3049022,676.5802209,676.5802209,m,1.0844085,679.9771462,679.9771462,68,2.248,,,,,sub-021,55,115,700,bloc_loop.csv,2023-06-07_11h14.01.740,PainUncertainty,2022.2.5,143.4226378
grave,moderee,stimuli/330Hz,stimuli/moderee,bloc_1,prob20hthp_12trials.xlsx,4,48,20,80,0,,,,,0,0,0,0,3,8,44,5,,,,,,,,3.8,679.9771462,683.7829321,683.7828934,0.3049643,684.2294049,684.2294049,n,1.5554721,688.1951209,688.1951209,0,2.353,,,,,sub-021,55,115,700,bloc_loop.csv,2023-06-07_11h14.01.740,PainUncertainty,2022.2.5,143.4226378
aigu,moderee,stimuli/660Hz,stimuli/moderee,bloc_1,prob20hthp_12trials.xlsx,4,48,20,80,0,,,,,0,0,0,0,3,9,45,8,,,,,,,,4.1,688.1951209,692.2978069,692.2978353,0.3049873,692.7419671,692.7419671,n,1.9384068,697.5820695,697.5820695,1,2.823,,,,,sub-021,55,115,700,bloc_loop.csv,2023-06-07_11h14.01.740,PainUncertainty,2022.2.5,143.4226378
grave,forte,stimuli/330Hz,stimuli/forte,bloc_1,prob20hthp_12trials.xlsx,4,48,20,80,0,,,,,0,0,0,0,3,10,46,3,,,,,,,,4.7,697.5820695,702.2854633,702.2853834,0.3048962,702.7293759,702.7293759,m,1.223244,706.726964,706.726964,63,2.721,,,,,sub-021,55,115,700,bloc_loop.csv,2023-06-07_11h14.01.740,PainUncertainty,2022.2.5,143.4226378
grave,forte,stimuli/330Hz,stimuli/forte,bloc_1,prob20hthp_12trials.xlsx,4,48,20,80,0,,,,,0,0,0,0,3,11,47,1,,,,,,,,5,706.726964,711.7310709,711.7319211,0.3041036,712.1755145,712.1755145,m,0.8833664,715.3302866,715.3302866,62,2.208,,,,,sub-021,55,115,700,bloc_loop.csv,2023-06-07_11h14.01.740,PainUncertainty,2022.2.5,143.4226378
aigu,forte,stimuli/660Hz,stimuli/forte,bloc_2,prob50_50_4trials.xlsx,2,8,50,50,1,,,,,0,1,1,1,0,0,0,3,,,,,,,,4.1,715.3302866,719.4331524,719.4330268,0.3057021,719.8813779,719.8813779,m,1.8952572,723.2305504,723.2305504,62,1.373,,,,,sub-021,55,115,700,bloc_loop.csv,2023-06-07_11h14.01.740,PainUncertainty,2022.2.5,143.4226378
grave,moderee,stimuli/330Hz,stimuli/moderee,bloc_2,prob50_50_4trials.xlsx,2,8,50,50,1,,,,,0,1,1,1,0,1,1,0,,,,,,,,3.2,723.2305504,726.4339661,726.4340186,0.3048053,726.8783309,726.8783309,n,1.3679192,730.0421977,730.0421977,0,1.714,,,,,sub-021,55,115,700,bloc_loop.csv,2023-06-07_11h14.01.740,PainUncertainty,2022.2.5,143.4226378
grave,forte,stimuli/330Hz,stimuli/forte,bloc_2,prob50_50_4trials.xlsx,2,8,50,50,1,,,,,0,1,1,1,0,2,2,1,,,,,,,,4.1,730.0421977,734.1436087,734.1436873,0.299486,734.5879515,734.5879515,m,1.3217909,737.7658538,737.7658538,50,1.783,,,,,sub-021,55,115,700,bloc_loop.csv,2023-06-07_11h14.01.740,PainUncertainty,2022.2.5,143.4226378
aigu,moderee,stimuli/660Hz,stimuli/moderee,bloc_2,prob50_50_4trials.xlsx,2,8,50,50,1,,,,,0,1,1,1,0,3,3,2,,,,,,,,3.5,737.7658538,741.2695355,741.2696603,0.3046671,741.7132576,741.7132576,n,0.6495069,743.9372568,743.9372568,3,1.498,,,,,sub-021,55,115,700,bloc_loop.csv,2023-06-07_11h14.01.740,PainUncertainty,2022.2.5,143.4226378
grave,forte,stimuli/330Hz,stimuli/forte,bloc_2,prob50_50_4trials.xlsx,2,8,50,50,1,,,,,0,1,1,1,1,0,4,1,,,,,,,,3.8,743.9372568,747.742123,747.7420982,0.2991345,748.180358,748.180358,m,0.8242856,750.9252024,750.9252024,61,1.844,,,,,sub-021,55,115,700,bloc_loop.csv,2023-06-07_11h14.01.740,PainUncertainty,2022.2.5,143.4226378
aigu,moderee,stimuli/660Hz,stimuli/moderee,bloc_2,prob50_50_4trials.xlsx,2,8,50,50,1,,,,,0,1,1,1,1,1,5,2,,,,,,,,4.8,750.9252024,755.7293079,755.7292924,0.3048459,756.1734077,756.1734077,n,0.940201,759.7014103,759.7014103,10,2.525,,,,,sub-021,55,115,700,bloc_loop.csv,2023-06-07_11h14.01.740,PainUncertainty,2022.2.5,143.4226378
grave,moderee,stimuli/330Hz,stimuli/moderee,bloc_2,prob50_50_4trials.xlsx,2,8,50,50,1,,,,,0,1,1,1,1,2,6,0,,,,,,,,4.3,759.7014103,764.0009831,764.0010815,0.3055346,764.4483835,764.4483835,n,0.921515,768.1605294,768.1605294,13,2.726,,,,,sub-021,55,115,700,bloc_loop.csv,2023-06-07_11h14.01.740,PainUncertainty,2022.2.5,143.4226378
aigu,forte,stimuli/660Hz,stimuli/forte,bloc_2,prob50_50_4trials.xlsx,2,8,50,50,1,,,,,0,1,1,1,1,3,7,3,,,,,,,,3.8,768.1605294,771.9610483,771.9608654,0.3048358,772.4088387,772.4088387,m,1.3489156,777.2964372,777.2964372,69,1.509,,,,,sub-021,55,115,700,bloc_loop.csv,2023-06-07_11h14.01.740,PainUncertainty,2022.2.5,143.4226378
,,,,bloc_2,prob50_50_4trials.xlsx,2,8,50,50,1,,,,,0,1,1,1,,,,,0,0,0,0,,,,,,,,,,,,,,,,,,,777.2964372,828.3558825,sub-021,55,115,700,bloc_loop.csv,2023-06-07_11h14.01.740,PainUncertainty,2022.2.5,143.4226378
aigu,forte,stimuli/660Hz,stimuli/forte,bloc_3,prob80hthp_12trials.xlsx,2,24,80,20,0,,,,,0,2,2,2,0,0,0,9,,,,,,,,4.7,829.4203953,834.1205634,834.1205609,0.3049025,834.5652945,834.5652945,m,0.9186591,837.1264615,837.1264615,59,1.575,,,,,sub-021,55,115,700,bloc_loop.csv,2023-06-07_11h14.01.740,PainUncertainty,2022.2.5,143.4226378
grave,moderee,stimuli/330Hz,stimuli/moderee,bloc_3,prob80hthp_12trials.xlsx,2,24,80,20,0,,,,,0,2,2,2,0,1,1,0,,,,,,,,3.5,837.1264615,840.6283183,840.6283489,0.304692,841.0726325,841.0726325,n,0.6288541,843.1397123,843.1397123,9,1.365,,,,,sub-021,55,115,700,bloc_loop.csv,2023-06-07_11h14.01.740,PainUncertainty,2022.2.5,143.4226378
aigu,forte,stimuli/660Hz,stimuli/forte,bloc_3,prob80hthp_12trials.xlsx,2,24,80,20,0,,,,,0,2,2,2,0,2,2,10,,,,,,,,5,843.1397123,848.1430042,848.1431226,0.3051265,848.5912522,848.5912522,m,0.9305601,851.165982,851.165982,66,1.574,,,,,sub-021,55,115,700,bloc_loop.csv,2023-06-07_11h14.01.740,PainUncertainty,2022.2.5,143.4226378
grave,moderee,stimuli/330Hz,stimuli/moderee,bloc_3,prob80hthp_12trials.xlsx,2,24,80,20,0,,,,,0,2,2,2,0,3,3,4,,,,,,,,3.7,851.165982,854.8665619,854.8665356,0.3049916,855.3140943,855.3140943,n,0.7901448,858.4588226,858.4588226,7,2.275,,,,,sub-021,55,115,700,bloc_loop.csv,2023-06-07_11h14.01.740,PainUncertainty,2022.2.5,143.4226378
grave,forte,stimuli/330Hz,stimuli/forte,bloc_3,prob80hthp_12trials.xlsx,2,24,80,20,0,,,,,0,2,2,2,0,4,4,5,,,,,,,,4.1,858.4588226,862.5622867,862.562238,0.3017368,863.0075086,863.0075086,m,0.7432732,865.158417,865.158417,62,1.34,,,,,sub-021,55,115,700,bloc_loop.csv,2023-06-07_11h14.01.740,PainUncertainty,2022.2.5,143.4226378
grave,moderee,stimuli/330Hz,stimuli/moderee,bloc_3,prob80hthp_12trials.xlsx,2,24,80,20,0,,,,,0,2,2,2,0,5,5,2,,,,,,,,3.3,865.158417,868.4581772,868.4580787,0.3054872,868.906933,868.906933,m,0.8865445,871.2177258,871.2177258,59,1.346,,,,,sub-021,55,115,700,bloc_loop.csv,2023-06-07_11h14.01.740,PainUncertainty,2022.2.5,143.4226378
aigu,forte,stimuli/660Hz,stimuli/forte,bloc_3,prob80hthp_12trials.xlsx,2,24,80,20,0,,,,,0,2,2,2,0,6,6,7,,,,,,,,3.8,871.2177258,875.0215358,875.0214351,0.2990348,875.4637049,875.4637049,m,0.8105785,877.5814228,877.5814228,62,1.235,,,,,sub-021,55,115,700,bloc_loop.csv,2023-06-07_11h14.01.740,PainUncertainty,2022.2.5,143.4226378
grave,moderee,stimuli/330Hz,stimuli/moderee,bloc_3,prob80hthp_12trials.xlsx,2,24,80,20,0,,,,,0,2,2,2,0,7,7,1,,,,,,,,4.4,877.5814228,881.9807049,881.9806635,0.301581,882.4257105,882.4257105,n,0.7748776,885.6259322,885.6259322,4,2.345,,,,,sub-021,55,115,700,bloc_loop.csv,2023-06-07_11h14.01.740,PainUncertainty,2022.2.5,143.4226378
aigu,forte,stimuli/660Hz,stimuli/forte,bloc_3,prob80hthp_12trials.xlsx,2,24,80,20,0,,,,,0,2,2,2,0,8,8,6,,,,,,,,3,885.6259322,888.627223,888.6272381,0.3050027,889.0717103,889.0717103,m,0.5592586,891.2847421,891.2847421,64,1.587,,,,,sub-021,55,115,700,bloc_loop.csv,2023-06-07_11h14.01.740,PainUncertainty,2022.2.5,143.4226378
aigu,moderee,stimuli/660Hz,stimuli/moderee,bloc_3,prob80hthp_12trials.xlsx,2,24,80,20,0,,,,,0,2,2,2,0,9,9,11,,,,,,,,4.6,891.2847421,895.8849689,895.8851326,0.3064967,896.3366784,896.3366784,n,0.6028063,898.384324,898.384324,2,1.386,,,,,sub-021,55,115,700,bloc_loop.csv,2023-06-07_11h14.01.740,PainUncertainty,2022.2.5,143.4226378
grave,moderee,stimuli/330Hz,stimuli/moderee,bloc_3,prob80hthp_12trials.xlsx,2,24,80,20,0,,,,,0,2,2,2,0,10,10,3,,,,,,,,4.6,898.384324,902.990017,902.9901204,0.3052165,903.4381983,903.4381983,n,1.0406213,906.4442501,906.4442501,9,1.894,,,,,sub-021,55,115,700,bloc_loop.csv,2023-06-07_11h14.01.740,PainUncertainty,2022.2.5,143.4226378
aigu,forte,stimuli/660Hz,stimuli/forte,bloc_3,prob80hthp_12trials.xlsx,2,24,80,20,0,,,,,0,2,2,2,0,11,11,8,,,,,,,,4.1,906.4442501,910.5469616,910.5468208,0.3068505,910.9981807,910.9981807,m,0.9021352,913.4158926,913.4158926,62,1.44,,,,,sub-021,55,115,700,bloc_loop.csv,2023-06-07_11h14.01.740,PainUncertainty,2022.2.5,143.4226378
grave,moderee,stimuli/330Hz,stimuli/moderee,bloc_3,prob80hthp_12trials.xlsx,2,24,80,20,0,,,,,0,2,2,2,1,0,12,2,,,,,,,,5,913.4158926,918.4160787,918.4158716,0.3047729,918.8597873,918.8597873,n,0.7831239,920.6613756,920.6613756,10,0.948,,,,,sub-021,55,115,700,bloc_loop.csv,2023-06-07_11h14.01.740,PainUncertainty,2022.2.5,143.4226378
aigu,forte,stimuli/660Hz,stimuli/forte,bloc_3,prob80hthp_12trials.xlsx,2,24,80,20,0,,,,,0,2,2,2,1,1,13,10,,,,,,,,3.5,920.6613756,924.1663193,924.1675807,0.3042921,924.6149592,924.6149592,m,0.7656886,926.8484928,926.8484928,59,1.353,,,,,sub-021,55,115,700,bloc_loop.csv,2023-06-07_11h14.01.740,PainUncertainty,2022.2.5,143.4226378
aigu,moderee,stimuli/660Hz,stimuli/moderee,bloc_3,prob80hthp_12trials.xlsx,2,24,80,20,0,,,,,0,2,2,2,1,2,14,11,,,,,,,,3.4,926.8484928,930.250417,930.2517878,0.2998354,930.6949303,930.6949303,n,0.6751788,933.7068771,933.7068771,4,2.27,,,,,sub-021,55,115,700,bloc_loop.csv,2023-06-07_11h14.01.740,PainUncertainty,2022.2.5,143.4226378
aigu,forte,stimuli/660Hz,stimuli/forte,bloc_3,prob80hthp_12trials.xlsx,2,24,80,20,0,,,,,0,2,2,2,1,3,15,8,,,,,,,,4.8,933.7068771,938.5080009,938.5081056,0.30524,938.9522459,938.9522459,m,0.7241121,944.2295969,944.2295969,61,4.478,,,,,sub-021,55,115,700,bloc_loop.csv,2023-06-07_11h14.01.740,PainUncertainty,2022.2.5,143.4226378
grave,moderee,stimuli/330Hz,stimuli/moderee,bloc_3,prob80hthp_12trials.xlsx,2,24,80,20,0,,,,,0,2,2,2,1,4,16,3,,,,,,,,3.3,944.2295969,947.5299281,947.5299771,0.3050669,947.9782606,947.9782606,n,0.856183,951.3917291,951.3917291,0,2.497,,,,,sub-021,55,115,700,bloc_loop.csv,2023-06-07_11h14.01.740,PainUncertainty,2022.2.5,143.4226378
grave,moderee,stimuli/330Hz,stimuli/moderee,bloc_3,prob80hthp_12trials.xlsx,2,24,80,20,0,,,,,0,2,2,2,1,5,17,1,,,,,,,,3,951.3917291,954.3921746,954.3919098,0.3050334,954.841501,954.841501,n,0.7351457,958.3977207,958.3977207,8,2.747,,,,,sub-021,55,115,700,bloc_loop.csv,2023-06-07_11h14.01.740,PainUncertainty,2022.2.5,143.4226378
grave,forte,stimuli/330Hz,stimuli/forte,bloc_3,prob80hthp_12trials.xlsx,2,24,80,20,0,,,,,0,2,2,2,1,6,18,5,,,,,,,,4.7,958.3977207,963.1012476,963.101265,0.299593,963.5405233,963.5405233,m,0.8107861,966.1196898,966.1196898,66,1.712,,,,,sub-021,55,115,700,bloc_loop.csv,2023-06-07_11h14.01.740,PainUncertainty,2022.2.5,143.4226378
aigu,forte,stimuli/660Hz,stimuli/forte,bloc_3,prob80hthp_12trials.xlsx,2,24,80,20,0,,,,,0,2,2,2,1,7,19,9,,,,,,,,3.8,966.1196898,969.9219476,969.9219136,0.3011034,970.3658961,970.3658961,m,0.8173636,972.8362897,972.8362897,64,1.589,,,,,sub-021,55,115,700,bloc_loop.csv,2023-06-07_11h14.01.740,PainUncertainty,2022.2.5,143.4226378
aigu,forte,stimuli/660Hz,stimuli/forte,bloc_3,prob80hthp_12trials.xlsx,2,24,80,20,0,,,,,0,2,2,2,1,8,20,7,,,,,,,,3.5,972.8362897,976.3391235,976.339042,0.3053004,976.790336,976.790336,m,0.9947772,979.2146246,979.2146246,60,1.373,,,,,sub-021,55,115,700,bloc_loop.csv,2023-06-07_11h14.01.740,PainUncertainty,2022.2.5,143.4226378
aigu,forte,stimuli/660Hz,stimuli/forte,bloc_3,prob80hthp_12trials.xlsx,2,24,80,20,0,,,,,0,2,2,2,1,9,21,6,,,,,,,,5,979.2146246,984.2152537,984.2154456,0.3046124,984.6592726,984.6592726,m,0.901948,987.1310343,987.1310343,64,1.489,,,,,sub-021,55,115,700,bloc_loop.csv,2023-06-07_11h14.01.740,PainUncertainty,2022.2.5,143.4226378
grave,moderee,stimuli/330Hz,stimuli/moderee,bloc_3,prob80hthp_12trials.xlsx,2,24,80,20,0,,,,,0,2,2,2,1,10,22,0,,,,,,,,4.5,987.1310343,991.6328856,991.6329255,0.3014366,992.0778587,992.0778587,n,0.6906437,994.8852628,994.8852628,2,2.06,,,,,sub-021,55,115,700,bloc_loop.csv,2023-06-07_11h14.01.740,PainUncertainty,2022.2.5,143.4226378
grave,moderee,stimuli/330Hz,stimuli/moderee,bloc_3,prob80hthp_12trials.xlsx,2,24,80,20,0,,,,,0,2,2,2,1,11,23,4,,,,,,,,3.9,994.8852628,998.7862841,998.7862241,0.3049348,999.2321878,999.2321878,n,0.6491692,1002.52847,1002.52847,5,2.574,,,,,sub-021,55,115,700,bloc_loop.csv,2023-06-07_11h14.01.740,PainUncertainty,2022.2.5,143.4226378
aigu,forte,stimuli/660Hz,stimuli/forte,bloc_4,prob50_50_4trials.xlsx,2,8,50,50,1,,,,,0,3,3,3,0,0,0,3,,,,,,,,4.9,1002.52847,1007.432961,1007.432952,0.3051743,1007.877169,1007.877169,m,1.1251767,1010.332869,1010.332869,68,1.253,,,,,sub-021,55,115,700,bloc_loop.csv,2023-06-07_11h14.01.740,PainUncertainty,2022.2.5,143.4226378
aigu,moderee,stimuli/660Hz,stimuli/moderee,bloc_4,prob50_50_4trials.xlsx,2,8,50,50,1,,,,,0,3,3,3,0,1,1,2,,,,,,,,4.3,1010.332869,1014.635313,1014.63792,0.3028497,1015.080132,1015.080132,n,1.939034,1018.790969,1018.790969,5,1.699,,,,,sub-021,55,115,700,bloc_loop.csv,2023-06-07_11h14.01.740,PainUncertainty,2022.2.5,143.4226378
grave,forte,stimuli/330Hz,stimuli/forte,bloc_4,prob50_50_4trials.xlsx,2,8,50,50,1,,,,,0,3,3,3,0,2,2,1,,,,,,,,3.8,1018.790969,1022.594742,1022.594936,0.3046488,1023.045962,1023.045962,m,0.7541366,1025.539242,1025.539242,62,1.665,,,,,sub-021,55,115,700,bloc_loop.csv,2023-06-07_11h14.01.740,PainUncertainty,2022.2.5,143.4226378
grave,moderee,stimuli/330Hz,stimuli/moderee,bloc_4,prob50_50_4trials.xlsx,2,8,50,50,1,,,,,0,3,3,3,0,3,3,0,,,,,,,,4.7,1025.539242,1030.241593,1030.241574,0.3020714,1030.686033,1030.686033,n,1.7461695,1034.237108,1034.237108,0,1.727,,,,,sub-021,55,115,700,bloc_loop.csv,2023-06-07_11h14.01.740,PainUncertainty,2022.2.5,143.4226378
grave,forte,stimuli/330Hz,stimuli/forte,bloc_4,prob50_50_4trials.xlsx,2,8,50,50,1,,,,,0,3,3,3,1,0,4,1,,,,,,,,3,1034.237108,1037.242027,1037.242072,0.3050303,1037.686147,1037.686147,m,0.7884624,1040.503998,1040.503998,61,1.969,,,,,sub-021,55,115,700,bloc_loop.csv,2023-06-07_11h14.01.740,PainUncertainty,2022.2.5,143.4226378
aigu,forte,stimuli/660Hz,stimuli/forte,bloc_4,prob50_50_4trials.xlsx,2,8,50,50,1,,,,,0,3,3,3,1,1,5,3,,,,,,,,4.2,1040.503998,1044.708282,1044.70829,0.3051475,1045.15725,1045.15725,None,,1049.748611,1049.748611,63,2.07,,,,,sub-021,55,115,700,bloc_loop.csv,2023-06-07_11h14.01.740,PainUncertainty,2022.2.5,143.4226378
grave,moderee,stimuli/330Hz,stimuli/moderee,bloc_4,prob50_50_4trials.xlsx,2,8,50,50,1,,,,,0,3,3,3,1,2,6,0,,,,,,,,3.9,1049.748611,1053.653744,1053.653746,0.3049278,1054.098566,1054.098566,m,0.8821593,1058.094676,1058.094676,17,3.06,,,,,sub-021,55,115,700,bloc_loop.csv,2023-06-07_11h14.01.740,PainUncertainty,2022.2.5,143.4226378
aigu,moderee,stimuli/660Hz,stimuli/moderee,bloc_4,prob50_50_4trials.xlsx,2,8,50,50,1,,,,,0,3,3,3,1,3,7,2,,,,,,,,3.9,1058.094676,1061.995308,1061.995317,0.3048744,1062.439145,1062.439145,n,1.4677,1067.510874,1067.510874,7,1.575,,,,,sub-021,55,115,700,bloc_loop.csv,2023-06-07_11h14.01.740,PainUncertainty,2022.2.5,143.4226378
,,,,bloc_4,prob50_50_4trials.xlsx,2,8,50,50,1,,,,,0,3,3,3,,,,,0,0,0,0,,,,,,,,,,,,,,,,,,,1067.510874,1088.018741,sub-021,55,115,700,bloc_loop.csv,2023-06-07_11h14.01.740,PainUncertainty,2022.2.5,143.4226378
aigu,moderee,stimuli/660Hz,stimuli/moderee,bloc_5,prob20hthp_12trials.xlsx,2,24,20,80,0,,,,,0,4,4,4,0,0,0,8,,,,,,,,4,1090.921743,1094.922495,1094.922566,0.2997858,1095.366865,1095.366865,None,,1099.237179,1099.237179,24,1.365,1097.836411,1097.836411,,,sub-021,55,115,700,bloc_loop.csv,2023-06-07_11h14.01.740,PainUncertainty,2022.2.5,143.4226378
aigu,moderee,stimuli/660Hz,stimuli/moderee,bloc_5,prob20hthp_12trials.xlsx,2,24,20,80,0,,,,,0,4,4,4,0,1,1,7,,,,,,,,4,1099.237179,1103.243046,1103.243108,0.3047877,1103.68755,1103.68755,n,0.7144781,1106.176004,1106.176004,0,1.726,,,,,sub-021,55,115,700,bloc_loop.csv,2023-06-07_11h14.01.740,PainUncertainty,2022.2.5,143.4226378
aigu,moderee,stimuli/660Hz,stimuli/moderee,bloc_5,prob20hthp_12trials.xlsx,2,24,20,80,0,,,,,0,4,4,4,0,2,2,9,,,,,,,,3.8,1106.176004,1109.980097,1109.979954,0.304959,1110.424052,1110.424052,n,0.6429993,1112.830803,1112.830803,4,1.685,,,,,sub-021,55,115,700,bloc_loop.csv,2023-06-07_11h14.01.740,PainUncertainty,2022.2.5,143.4226378
aigu,forte,stimuli/660Hz,stimuli/forte,bloc_5,prob20hthp_12trials.xlsx,2,24,20,80,0,,,,,0,4,4,4,0,3,3,11,,,,,,,,3.2,1112.830803,1116.029847,1116.029848,0.3050748,1116.478486,1116.478486,m,0.6497795,1118.424715,1118.424715,58,1.241,,,,,sub-021,55,115,700,bloc_loop.csv,2023-06-07_11h14.01.740,PainUncertainty,2022.2.5,143.4226378
grave,forte,stimuli/330Hz,stimuli/forte,bloc_5,prob20hthp_12trials.xlsx,2,24,20,80,0,,,,,0,4,4,4,0,4,4,2,,,,,,,,3,1118.424715,1121.42593,1121.425944,0.3050712,1121.869891,1121.869891,m,0.8076741,1124.804659,1124.804659,65,2.075,,,,,sub-021,55,115,700,bloc_loop.csv,2023-06-07_11h14.01.740,PainUncertainty,2022.2.5,143.4226378
grave,forte,stimuli/330Hz,stimuli/forte,bloc_5,prob20hthp_12trials.xlsx,2,24,20,80,0,,,,,0,4,4,4,0,5,5,0,,,,,,,,4.7,1124.804659,1129.503412,1129.504398,0.3037608,1129.947132,1129.947132,m,0.8583466,1132.943372,1132.943372,61,2.081,,,,,sub-021,55,115,700,bloc_loop.csv,2023-06-07_11h14.01.740,PainUncertainty,2022.2.5,143.4226378
grave,forte,stimuli/330Hz,stimuli/forte,bloc_5,prob20hthp_12trials.xlsx,2,24,20,80,0,,,,,0,4,4,4,0,6,6,1,,,,,,,,4,1132.943372,1136.948362,1136.948339,0.3050564,1137.392432,1137.392432,m,0.7215682,1139.30794,1139.30794,60,1.136,,,,,sub-021,55,115,700,bloc_loop.csv,2023-06-07_11h14.01.740,PainUncertainty,2022.2.5,143.4226378
grave,forte,stimuli/330Hz,stimuli/forte,bloc_5,prob20hthp_12trials.xlsx,2,24,20,80,0,,,,,0,4,4,4,0,7,7,3,,,,,,,,3.1,1139.30794,1142.407829,1142.40769,0.3048555,1142.851526,1142.851526,m,0.8086694,1145.753115,1145.753115,64,2.017,,,,,sub-021,55,115,700,bloc_loop.csv,2023-06-07_11h14.01.740,PainUncertainty,2022.2.5,143.4226378
aigu,moderee,stimuli/660Hz,stimuli/moderee,bloc_5,prob20hthp_12trials.xlsx,2,24,20,80,0,,,,,0,4,4,4,0,8,8,6,,,,,,,,4,1145.753115,1149.75572,1149.757091,0.3037051,1150.199745,1150.199745,n,0.6627406,1153.379561,1153.379561,0,2.457,,,,,sub-021,55,115,700,bloc_loop.csv,2023-06-07_11h14.01.740,PainUncertainty,2022.2.5,143.4226378
grave,moderee,stimuli/330Hz,stimuli/moderee,bloc_5,prob20hthp_12trials.xlsx,2,24,20,80,0,,,,,0,4,4,4,0,9,9,5,,,,,,,,4.8,1153.379561,1158.180621,1158.180541,0.3048131,1158.628231,1158.628231,n,0.6571819,1161.888243,1161.888243,0,2.521,,,,,sub-021,55,115,700,bloc_loop.csv,2023-06-07_11h14.01.740,PainUncertainty,2022.2.5,143.4226378
grave,forte,stimuli/330Hz,stimuli/forte,bloc_5,prob20hthp_12trials.xlsx,2,24,20,80,0,,,,,0,4,4,4,0,10,10,4,,,,,,,,4,1161.888243,1165.889477,1165.889925,0.3049555,1166.337649,1166.337649,m,0.7848614,1168.876194,1168.876194,60,1.674,,,,,sub-021,55,115,700,bloc_loop.csv,2023-06-07_11h14.01.740,PainUncertainty,2022.2.5,143.4226378
aigu,moderee,stimuli/660Hz,stimuli/moderee,bloc_5,prob20hthp_12trials.xlsx,2,24,20,80,0,,,,,0,4,4,4,0,11,11,10,,,,,,,,4.6,1168.876194,1173.480433,1173.480412,0.2991437,1173.91867,1173.91867,n,0.9633524,1176.758757,1176.758757,1,1.796,,,,,sub-021,55,115,700,bloc_loop.csv,2023-06-07_11h14.01.740,PainUncertainty,2022.2.5,143.4226378
grave,forte,stimuli/330Hz,stimuli/forte,bloc_5,prob20hthp_12trials.xlsx,2,24,20,80,0,,,,,0,4,4,4,1,0,12,0,,,,,,,,5,1176.758757,1181.759208,1181.759193,0.3053075,1182.210553,1182.210553,m,0.7602635,1184.576532,1184.576532,65,1.553,,,,,sub-021,55,115,700,bloc_loop.csv,2023-06-07_11h14.01.740,PainUncertainty,2022.2.5,143.4226378
grave,forte,stimuli/330Hz,stimuli/forte,bloc_5,prob20hthp_12trials.xlsx,2,24,20,80,0,,,,,0,4,4,4,1,1,13,3,,,,,,,,4,1184.576532,1188.579486,1188.579456,0.3001944,1189.024295,1189.024295,m,0.7374197,1190.939263,1190.939263,60,1.123,,,,,sub-021,55,115,700,bloc_loop.csv,2023-06-07_11h14.01.740,PainUncertainty,2022.2.5,143.4226378
grave,forte,stimuli/330Hz,stimuli/forte,bloc_5,prob20hthp_12trials.xlsx,2,24,20,80,0,,,,,0,4,4,4,1,2,14,2,,,,,,,,4.7,1190.939263,1195.643068,1195.64308,0.2994171,1196.081289,1196.081289,m,0.9209798,1198.488775,1198.488775,66,1.415,,,,,sub-021,55,115,700,bloc_loop.csv,2023-06-07_11h14.01.740,PainUncertainty,2022.2.5,143.4226378
aigu,moderee,stimuli/660Hz,stimuli/moderee,bloc_5,prob20hthp_12trials.xlsx,2,24,20,80,0,,,,,0,4,4,4,1,3,15,10,,,,,,,,3.2,1198.488775,1201.692201,1201.692106,0.3005662,1202.138157,1202.138157,n,1.1031489,1205.139178,1205.139178,9,1.824,,,,,sub-021,55,115,700,bloc_loop.csv,2023-06-07_11h14.01.740,PainUncertainty,2022.2.5,143.4226378
aigu,forte,stimuli/660Hz,stimuli/forte,bloc_5,prob20hthp_12trials.xlsx,2,24,20,80,0,,,,,0,4,4,4,1,4,16,11,,,,,,,,4.2,1205.139178,1209.338735,1209.338839,0.3053759,1209.787088,1209.787088,m,1.8078734,1215.212285,1215.212285,48,3.549,,,,,sub-021,55,115,700,bloc_loop.csv,2023-06-07_11h14.01.740,PainUncertainty,2022.2.5,143.4226378
aigu,moderee,stimuli/660Hz,stimuli/moderee,bloc_5,prob20hthp_12trials.xlsx,2,24,20,80,0,,,,,0,4,4,4,1,5,17,6,,,,,,,,3.3,1215.212285,1218.513513,1218.513573,0.3051315,1218.957704,1218.957704,n,0.7458396,1221.576357,1221.576357,4,1.818,,,,,sub-021,55,115,700,bloc_loop.csv,2023-06-07_11h14.01.740,PainUncertainty,2022.2.5,143.4226378
aigu,moderee,stimuli/660Hz,stimuli/moderee,bloc_5,prob20hthp_12trials.xlsx,2,24,20,80,0,,,,,0,4,4,4,1,6,18,7,,,,,,,,4.7,1221.576357,1226.278427,1226.278421,0.3051484,1226.722557,1226.722557,n,0.8250641,1229.059681,1229.059681,4,1.461,,,,,sub-021,55,115,700,bloc_loop.csv,2023-06-07_11h14.01.740,PainUncertainty,2022.2.5,143.4226378
aigu,moderee,stimuli/660Hz,stimuli/moderee,bloc_5,prob20hthp_12trials.xlsx,2,24,20,80,0,,,,,0,4,4,4,1,7,19,8,,,,,,,,4.3,1229.059681,1233.362504,1233.362778,0.3047194,1233.809801,1233.809801,n,0.6691831,1236.753134,1236.753134,2,2.219,,,,,sub-021,55,115,700,bloc_loop.csv,2023-06-07_11h14.01.740,PainUncertainty,2022.2.5,143.4226378
grave,moderee,stimuli/330Hz,stimuli/moderee,bloc_5,prob20hthp_12trials.xlsx,2,24,20,80,0,,,,,0,4,4,4,1,8,20,5,,,,,,,,3.4,1236.753134,1240.156354,1240.156672,0.3039082,1240.603161,1240.603161,n,0.7185886,1243.419844,1243.419844,5,2.046,,,,,sub-021,55,115,700,bloc_loop.csv,2023-06-07_11h14.01.740,PainUncertainty,2022.2.5,143.4226378
aigu,moderee,stimuli/660Hz,stimuli/moderee,bloc_5,prob20hthp_12trials.xlsx,2,24,20,80,0,,,,,0,4,4,4,1,9,21,9,,,,,,,,3.4,1243.419844,1246.822445,1246.822542,0.3020845,1247.267049,1247.267049,n,0.6140702,1250.393158,1250.393158,15,2.443,,,,,sub-021,55,115,700,bloc_loop.csv,2023-06-07_11h14.01.740,PainUncertainty,2022.2.5,143.4226378
grave,forte,stimuli/330Hz,stimuli/forte,bloc_5,prob20hthp_12trials.xlsx,2,24,20,80,0,,,,,0,4,4,4,1,10,22,4,,,,,,,,3.5,1250.393158,1253.892745,1253.892744,0.301744,1254.337407,1254.337407,m,0.6757797,1256.259181,1256.259181,60,1.193,,,,,sub-021,55,115,700,bloc_loop.csv,2023-06-07_11h14.01.740,PainUncertainty,2022.2.5,143.4226378
grave,forte,stimuli/330Hz,stimuli/forte,bloc_5,prob20hthp_12trials.xlsx,2,24,20,80,0,,,,,0,4,4,4,1,11,23,1,,,,,,,,4.3,1256.259181,1260.560556,1260.560538,0.3063323,1261.010147,1261.010147,m,0.9877454,1263.807925,1263.807925,60,1.739,,,,,sub-021,55,115,700,bloc_loop.csv,2023-06-07_11h14.01.740,PainUncertainty,2022.2.5,143.4226378
aigu,moderee,stimuli/660Hz,stimuli/moderee,bloc_6,prob50_50_4trials.xlsx,2,8,50,50,0,,,,,0,5,5,5,0,0,0,2,,,,,,,,3.4,1263.807925,1267.213748,1267.213819,0.300372,1267.658533,1267.658533,n,1.2853016,1270.619491,1270.619491,26,1.596,,,,,sub-021,55,115,700,bloc_loop.csv,2023-06-07_11h14.01.740,PainUncertainty,2022.2.5,143.4226378
aigu,forte,stimuli/660Hz,stimuli/forte,bloc_6,prob50_50_4trials.xlsx,2,8,50,50,0,,,,,0,5,5,5,0,1,1,3,,,,,,,,3,1270.619491,1273.624176,1273.624251,0.301441,1274.068778,1274.068778,m,0.8331416,1276.535166,1276.535166,55,1.58,,,,,sub-021,55,115,700,bloc_loop.csv,2023-06-07_11h14.01.740,PainUncertainty,2022.2.5,143.4226378
grave,forte,stimuli/330Hz,stimuli/forte,bloc_6,prob50_50_4trials.xlsx,2,8,50,50,0,,,,,0,5,5,5,0,2,2,1,,,,,,,,4.2,1276.535166,1280.736258,1280.736336,0.305182,1281.187655,1281.187655,n,0.7927812,1284.291041,1284.291041,50,2.242,,,,,sub-021,55,115,700,bloc_loop.csv,2023-06-07_11h14.01.740,PainUncertainty,2022.2.5,143.4226378
grave,moderee,stimuli/330Hz,stimuli/moderee,bloc_6,prob50_50_4trials.xlsx,2,8,50,50,0,,,,,0,5,5,5,0,3,3,0,,,,,,,,3.1,1284.291041,1287.396728,1287.396787,0.304839,1287.840898,1287.840898,n,0.6927192,1290.399686,1290.399686,2,1.79,,,,,sub-021,55,115,700,bloc_loop.csv,2023-06-07_11h14.01.740,PainUncertainty,2022.2.5,143.4226378
aigu,forte,stimuli/660Hz,stimuli/forte,bloc_6,prob50_50_4trials.xlsx,2,8,50,50,0,,,,,0,5,5,5,1,0,4,3,,,,,,,,3.7,1290.399686,1294.09891,1294.098863,0.2995162,1294.53728,1294.53728,m,0.7477045,1296.618689,1296.618689,63,1.274,,,,,sub-021,55,115,700,bloc_loop.csv,2023-06-07_11h14.01.740,PainUncertainty,2022.2.5,143.4226378
grave,forte,stimuli/330Hz,stimuli/forte,bloc_6,prob50_50_4trials.xlsx,2,8,50,50,0,,,,,0,5,5,5,1,1,5,1,,,,,,,,4.8,1296.618689,1301.419259,1301.419301,0.3047184,1301.863332,1301.863332,m,1.0319591,1303.847922,1303.847922,60,0.872,,,,,sub-021,55,115,700,bloc_loop.csv,2023-06-07_11h14.01.740,PainUncertainty,2022.2.5,143.4226378
aigu,moderee,stimuli/660Hz,stimuli/moderee,bloc_6,prob50_50_4trials.xlsx,2,8,50,50,0,,,,,0,5,5,5,1,2,6,2,,,,,,,,4.1,1303.847922,1307.948089,1307.948047,0.3051829,1308.396464,1308.396464,n,0.5751743,1311.106534,1311.106534,0,2.082,,,,,sub-021,55,115,700,bloc_loop.csv,2023-06-07_11h14.01.740,PainUncertainty,2022.2.5,143.4226378
grave,moderee,stimuli/330Hz,stimuli/moderee,bloc_6,prob50_50_4trials.xlsx,2,8,50,50,0,,,,,0,5,5,5,1,3,7,0,,,,,,,,5,1311.106534,1316.10839,1316.108383,0.3052918,1316.557146,1316.557146,n,0.692013,1319.132676,1319.132676,0,1.816,,,,,sub-021,55,115,700,bloc_loop.csv,2023-06-07_11h14.01.740,PainUncertainty,2022.2.5,143.4226378
grave,moderee,stimuli/330Hz,stimuli/moderee,bloc_7,prob80hthp_12trials.xlsx,2,24,80,20,1,,,,,0,6,6,6,0,0,0,2,,,,,,,,3.6,1319.132676,1322.734245,1322.734287,0.3052863,1323.178328,1323.178328,n,1.3355732,1326.5537,1326.5537,4,1.958,,,,,sub-021,55,115,700,bloc_loop.csv,2023-06-07_11h14.01.740,PainUncertainty,2022.2.5,143.4226378
aigu,forte,stimuli/660Hz,stimuli/forte,bloc_7,prob80hthp_12trials.xlsx,2,24,80,20,1,,,,,0,6,6,6,0,1,1,10,,,,,,,,3.2,1326.5537,1329.755888,1329.755948,0.3052397,1330.200305,1330.200305,m,0.7165526,1332.885604,1332.885604,65,1.902,,,,,sub-021,55,115,700,bloc_loop.csv,2023-06-07_11h14.01.740,PainUncertainty,2022.2.5,143.4226378
aigu,forte,stimuli/660Hz,stimuli/forte,bloc_7,prob80hthp_12trials.xlsx,2,24,80,20,1,,,,,0,6,6,6,0,2,2,6,,,,,,,,3,1332.885604,1335.888596,1335.888578,0.3054446,1336.336641,1336.336641,m,0.6248963,1339.251473,1339.251473,60,2.207,,,,,sub-021,55,115,700,bloc_loop.csv,2023-06-07_11h14.01.740,PainUncertainty,2022.2.5,143.4226378
aigu,moderee,stimuli/660Hz,stimuli/moderee,bloc_7,prob80hthp_12trials.xlsx,2,24,80,20,1,,,,,0,6,6,6,0,3,3,11,,,,,,,,4.3,1339.251473,1343.55649,1343.556434,0.3049587,1344.000384,1344.000384,n,2.1316301,1347.755409,1347.755409,13,1.544,,,,,sub-021,55,115,700,bloc_loop.csv,2023-06-07_11h14.01.740,PainUncertainty,2022.2.5,143.4226378
aigu,forte,stimuli/660Hz,stimuli/forte,bloc_7,prob80hthp_12trials.xlsx,2,24,80,20,1,,,,,0,6,6,6,0,4,4,8,,,,,,,,4.1,1347.755409,1351.855795,1351.856207,0.3046125,1352.29992,1352.29992,m,0.6403897,1354.472152,1354.472152,62,1.464,,,,,sub-021,55,115,700,bloc_loop.csv,2023-06-07_11h14.01.740,PainUncertainty,2022.2.5,143.4226378
aigu,forte,stimuli/660Hz,stimuli/forte,bloc_7,prob80hthp_12trials.xlsx,2,24,80,20,1,,,,,0,6,6,6,0,5,5,7,,,,,,,,3.9,1354.472152,1358.377397,1358.377519,0.3060157,1358.825048,1358.825048,m,0.6280252,1360.851444,1360.851444,68,1.33,,,,,sub-021,55,115,700,bloc_loop.csv,2023-06-07_11h14.01.740,PainUncertainty,2022.2.5,143.4226378
grave,moderee,stimuli/330Hz,stimuli/moderee,bloc_7,prob80hthp_12trials.xlsx,2,24,80,20,1,,,,,0,6,6,6,0,6,6,1,,,,,,,,4.9,1360.851444,1365.754199,1365.753646,0.3048914,1366.201913,1366.201913,m,0.9931109,1368.718049,1368.718049,35,1.47,,,,,sub-021,55,115,700,bloc_loop.csv,2023-06-07_11h14.01.740,PainUncertainty,2022.2.5,143.4226378
grave,moderee,stimuli/330Hz,stimuli/moderee,bloc_7,prob80hthp_12trials.xlsx,2,24,80,20,1,,,,,0,6,6,6,0,7,7,3,,,,,,,,4.2,1368.718049,1372.920677,1372.92075,0.3050824,1373.365099,1373.365099,n,1.1693447,1376.921106,1376.921106,4,2.318,,,,,sub-021,55,115,700,bloc_loop.csv,2023-06-07_11h14.01.740,PainUncertainty,2022.2.5,143.4226378
aigu,forte,stimuli/660Hz,stimuli/forte,bloc_7,prob80hthp_12trials.xlsx,2,24,80,20,1,,,,,0,6,6,6,0,8,8,9,,,,,,,,4.9,1376.921106,1381.824604,1381.824556,0.3049964,1382.268736,1382.268736,m,0.7417687,1384.740586,1384.740586,63,1.663,,,,,sub-021,55,115,700,bloc_loop.csv,2023-06-07_11h14.01.740,PainUncertainty,2022.2.5,143.4226378
grave,moderee,stimuli/330Hz,stimuli/moderee,bloc_7,prob80hthp_12trials.xlsx,2,24,80,20,1,,,,,0,6,6,6,0,9,9,4,,,,,,,,4.3,1384.740586,1389.04111,1389.041006,0.3051219,1389.488697,1389.488697,n,0.7210714,1391.555379,1391.555379,1,1.261,,,,,sub-021,55,115,700,bloc_loop.csv,2023-06-07_11h14.01.740,PainUncertainty,2022.2.5,143.4226378
grave,forte,stimuli/330Hz,stimuli/forte,bloc_7,prob80hthp_12trials.xlsx,2,24,80,20,1,,,,,0,6,6,6,0,10,10,5,,,,,,,,4.9,1391.555379,1396.458464,1396.4583,0.3047547,1396.902443,1396.902443,m,0.7293621,1399.421516,1399.421516,62,1.712,,,,,sub-021,55,115,700,bloc_loop.csv,2023-06-07_11h14.01.740,PainUncertainty,2022.2.5,143.4226378
grave,moderee,stimuli/330Hz,stimuli/moderee,bloc_7,prob80hthp_12trials.xlsx,2,24,80,20,1,,,,,0,6,6,6,0,11,11,0,,,,,,,,4.9,1399.421516,1404.327372,1404.327287,0.3049955,1404.775236,1404.775236,m,0.7858905,1407.768919,1407.768919,63,2.144,,,,,sub-021,55,115,700,bloc_loop.csv,2023-06-07_11h14.01.740,PainUncertainty,2022.2.5,143.4226378
grave,moderee,stimuli/330Hz,stimuli/moderee,bloc_7,prob80hthp_12trials.xlsx,2,24,80,20,1,,,,,0,6,6,6,1,0,12,2,,,,,,,,4.3,1407.768919,1412.071625,1412.07142,0.2990192,1412.511297,1412.511297,n,0.7450816,1414.530583,1414.530583,0,1.22,,,,,sub-021,55,115,700,bloc_loop.csv,2023-06-07_11h14.01.740,PainUncertainty,2022.2.5,143.4226378
aigu,moderee,stimuli/660Hz,stimuli/moderee,bloc_7,prob80hthp_12trials.xlsx,2,24,80,20,1,,,,,0,6,6,6,1,1,13,11,,,,,,,,5,1414.530583,1419.530702,1419.530818,0.2990378,1419.972899,1419.972899,n,0.7476405,1422.000509,1422.000509,3,1.199,,,,,sub-021,55,115,700,bloc_loop.csv,2023-06-07_11h14.01.740,PainUncertainty,2022.2.5,143.4226378
aigu,forte,stimuli/660Hz,stimuli/forte,bloc_7,prob80hthp_12trials.xlsx,2,24,80,20,1,,,,,0,6,6,6,1,2,14,7,,,,,,,,4.4,1422.000509,1426.406257,1426.406243,0.3051328,1426.850771,1426.850771,None,,1430.48838,1430.48838,63,1.134,1429.322296,1429.322296,,,sub-021,55,115,700,bloc_loop.csv,2023-06-07_11h14.01.740,PainUncertainty,2022.2.5,143.4226378
aigu,forte,stimuli/660Hz,stimuli/forte,bloc_7,prob80hthp_12trials.xlsx,2,24,80,20,1,,,,,0,6,6,6,1,3,15,6,,,,,,,,3.9,1430.48838,1434.39324,1434.393239,0.3052069,1434.837409,1434.837409,m,0.6589009,1436.757594,1436.757594,65,1.206,,,,,sub-021,55,115,700,bloc_loop.csv,2023-06-07_11h14.01.740,PainUncertainty,2022.2.5,143.4226378
grave,forte,stimuli/330Hz,stimuli/forte,bloc_7,prob80hthp_12trials.xlsx,2,24,80,20,1,,,,,0,6,6,6,1,4,16,5,,,,,,,,3.3,1436.757594,1440.060827,1440.060665,0.2991017,1440.503216,1440.503216,m,0.7740844,1442.721383,1442.721383,64,1.37,,,,,sub-021,55,115,700,bloc_loop.csv,2023-06-07_11h14.01.740,PainUncertainty,2022.2.5,143.4226378
grave,moderee,stimuli/330Hz,stimuli/moderee,bloc_7,prob80hthp_12trials.xlsx,2,24,80,20,1,,,,,0,6,6,6,1,5,17,0,,,,,,,,4,1442.721383,1446.721152,1446.72131,0.3048253,1447.165361,1447.165361,m,0.7076887,1449.564488,1449.564488,68,1.636,,,,,sub-021,55,115,700,bloc_loop.csv,2023-06-07_11h14.01.740,PainUncertainty,2022.2.5,143.4226378
grave,moderee,stimuli/330Hz,stimuli/moderee,bloc_7,prob80hthp_12trials.xlsx,2,24,80,20,1,,,,,0,6,6,6,1,6,18,3,,,,,,,,3.7,1449.564488,1453.263573,1453.263592,0.3014814,1453.70822,1453.70822,n,0.7690993,1456.234047,1456.234047,24,1.678,,,,,sub-021,55,115,700,bloc_loop.csv,2023-06-07_11h14.01.740,PainUncertainty,2022.2.5,143.4226378
aigu,forte,stimuli/660Hz,stimuli/forte,bloc_7,prob80hthp_12trials.xlsx,2,24,80,20,1,,,,,0,6,6,6,1,7,19,10,,,,,,,,3.4,1456.234047,1459.639455,1459.639416,0.3050074,1460.085911,1460.085911,m,0.5801393,1462.869649,1462.869649,69,2.13,,,,,sub-021,55,115,700,bloc_loop.csv,2023-06-07_11h14.01.740,PainUncertainty,2022.2.5,143.4226378
grave,moderee,stimuli/330Hz,stimuli/moderee,bloc_7,prob80hthp_12trials.xlsx,2,24,80,20,1,,,,,0,6,6,6,1,8,20,4,,,,,,,,4.1,1462.869649,1466.97384,1466.973859,0.3048464,1467.417843,1467.417843,n,0.7008202,1469.632184,1469.632184,30,1.447,,,,,sub-021,55,115,700,bloc_loop.csv,2023-06-07_11h14.01.740,PainUncertainty,2022.2.5,143.4226378
aigu,forte,stimuli/660Hz,stimuli/forte,bloc_7,prob80hthp_12trials.xlsx,2,24,80,20,1,,,,,0,6,6,6,1,9,21,8,,,,,,,,3.2,1469.632184,1472.835436,1472.835555,0.3049122,1473.279538,1473.279538,m,0.9140681,1475.934126,1475.934126,66,1.664,,,,,sub-021,55,115,700,bloc_loop.csv,2023-06-07_11h14.01.740,PainUncertainty,2022.2.5,143.4226378
grave,moderee,stimuli/330Hz,stimuli/moderee,bloc_7,prob80hthp_12trials.xlsx,2,24,80,20,1,,,,,0,6,6,6,1,10,22,1,,,,,,,,4.7,1475.934126,1480.635008,1480.634988,0.3048969,1481.079015,1481.079015,n,0.7245067,1483.7038,1483.7038,2,1.83,,,,,sub-021,55,115,700,bloc_loop.csv,2023-06-07_11h14.01.740,PainUncertainty,2022.2.5,143.4226378
aigu,forte,stimuli/660Hz,stimuli/forte,bloc_7,prob80hthp_12trials.xlsx,2,24,80,20,1,,,,,0,6,6,6,1,11,23,9,,,,,,,,4.5,1483.7038,1488.205361,1488.20551,0.3047173,1488.650244,1488.650244,m,0.6879808,1492.328327,1492.328327,60,0.958,,,,,sub-021,55,115,700,bloc_loop.csv,2023-06-07_11h14.01.740,PainUncertainty,2022.2.5,143.4226378
,,,,bloc_7,prob80hthp_12trials.xlsx,2,24,80,20,1,,,,,0,6,6,6,,,,,0,0,0,0,,,,,,,,,,,,,,,,,,,1492.328327,1512.319065,sub-021,55,115,700,bloc_loop.csv,2023-06-07_11h14.01.740,PainUncertainty,2022.2.5,143.4226378
grave,moderee,stimuli/330Hz,stimuli/moderee,bloc_8,prob50_50_4trials.xlsx,3,12,50,50,0,,,,,0,7,7,7,0,0,0,0,,,,,,,,5,1513.271315,1518.27141,1518.271458,0.3051354,1518.715688,1518.715688,n,0.7290506,1520.88061,1520.88061,2,1.378,,,,,sub-021,55,115,700,bloc_loop.csv,2023-06-07_11h14.01.740,PainUncertainty,2022.2.5,143.4226378
aigu,moderee,stimuli/660Hz,stimuli/moderee,bloc_8,prob50_50_4trials.xlsx,3,12,50,50,0,,,,,0,7,7,7,0,1,1,2,,,,,,,,4.2,1520.88061,1525.085105,1525.084912,0.2999867,1525.530505,1525.530505,n,0.5980202,1527.72507,1527.72507,4,1.526,,,,,sub-021,55,115,700,bloc_loop.csv,2023-06-07_11h14.01.740,PainUncertainty,2022.2.5,143.4226378
grave,forte,stimuli/330Hz,stimuli/forte,bloc_8,prob50_50_4trials.xlsx,3,12,50,50,0,,,,,0,7,7,7,0,2,2,1,,,,,,,,3.2,1527.72507,1530.925556,1530.925528,0.3050293,1531.369719,1531.369719,m,0.6971829,1533.560319,1533.560319,65,1.443,,,,,sub-021,55,115,700,bloc_loop.csv,2023-06-07_11h14.01.740,PainUncertainty,2022.2.5,143.4226378
aigu,forte,stimuli/660Hz,stimuli/forte,bloc_8,prob50_50_4trials.xlsx,3,12,50,50,0,,,,,0,7,7,7,0,3,3,3,,,,,,,,4.9,1533.560319,1538.46135,1538.461214,0.3049448,1538.909376,1538.909376,m,0.5966351,1540.75598,1540.75598,64,1.192,,,,,sub-021,55,115,700,bloc_loop.csv,2023-06-07_11h14.01.740,PainUncertainty,2022.2.5,143.4226378
grave,forte,stimuli/330Hz,stimuli/forte,bloc_8,prob50_50_4trials.xlsx,3,12,50,50,0,,,,,0,7,7,7,1,0,4,1,,,,,,,,3.8,1540.75598,1544.559145,1544.559002,0.3051354,1545.003309,1545.003309,n,0.5833265,1546.834244,1546.834244,32,1.184,,,,,sub-021,55,115,700,bloc_loop.csv,2023-06-07_11h14.01.740,PainUncertainty,2022.2.5,143.4226378
aigu,forte,stimuli/660Hz,stimuli/forte,bloc_8,prob50_50_4trials.xlsx,3,12,50,50,0,,,,,0,7,7,7,1,1,5,3,,,,,,,,4.6,1546.834244,1551.434949,1551.434919,0.3048966,1551.88631,1551.88631,m,0.7594131,1554.15877,1554.15877,63,1.429,,,,,sub-021,55,115,700,bloc_loop.csv,2023-06-07_11h14.01.740,PainUncertainty,2022.2.5,143.4226378
grave,moderee,stimuli/330Hz,stimuli/moderee,bloc_8,prob50_50_4trials.xlsx,3,12,50,50,0,,,,,0,7,7,7,1,2,6,0,,,,,,,,4.7,1554.15877,1558.859728,1558.859741,0.3052908,1559.306517,1559.306517,n,0.6096095,1560.807511,1560.807511,10,0.839,,,,,sub-021,55,115,700,bloc_loop.csv,2023-06-07_11h14.01.740,PainUncertainty,2022.2.5,143.4226378
aigu,moderee,stimuli/660Hz,stimuli/moderee,bloc_8,prob50_50_4trials.xlsx,3,12,50,50,0,,,,,0,7,7,7,1,3,7,2,,,,,,,,3.5,1560.807511,1564.311479,1564.311442,0.3049148,1564.755682,1564.755682,n,0.6396703,1567.060059,1567.060059,7,1.609,,,,,sub-021,55,115,700,bloc_loop.csv,2023-06-07_11h14.01.740,PainUncertainty,2022.2.5,143.4226378
aigu,moderee,stimuli/660Hz,stimuli/moderee,bloc_8,prob50_50_4trials.xlsx,3,12,50,50,0,,,,,0,7,7,7,2,0,8,2,,,,,,,,3.3,1567.060059,1570.361095,1570.361089,0.3050319,1570.805207,1570.805207,n,0.8223112,1574.414932,1574.414932,0,2.714,,,,,sub-021,55,115,700,bloc_loop.csv,2023-06-07_11h14.01.740,PainUncertainty,2022.2.5,143.4226378
aigu,forte,stimuli/660Hz,stimuli/forte,bloc_8,prob50_50_4trials.xlsx,3,12,50,50,0,,,,,0,7,7,7,2,1,9,3,,,,,,,,4.3,1574.414932,1578.71594,1578.71594,0.3050211,1579.160218,1579.160218,m,0.6808948,1581.290722,1581.290722,62,1.391,,,,,sub-021,55,115,700,bloc_loop.csv,2023-06-07_11h14.01.740,PainUncertainty,2022.2.5,143.4226378
grave,forte,stimuli/330Hz,stimuli/forte,bloc_8,prob50_50_4trials.xlsx,3,12,50,50,0,,,,,0,7,7,7,2,2,10,1,,,,,,,,3.7,1581.290722,1584.994689,1584.994629,0.30485,1585.438584,1585.438584,m,0.9112392,1588.679614,1588.679614,65,2.256,,,,,sub-021,55,115,700,bloc_loop.csv,2023-06-07_11h14.01.740,PainUncertainty,2022.2.5,143.4226378
grave,moderee,stimuli/330Hz,stimuli/moderee,bloc_8,prob50_50_4trials.xlsx,3,12,50,50,0,,,,,0,7,7,7,2,3,11,0,,,,,,,,3,1588.679614,1591.682734,1591.682758,0.3048391,1592.127036,1592.127036,n,0.871099,1595.106436,1595.106436,24,2.051,,,,,sub-021,55,115,700,bloc_loop.csv,2023-06-07_11h14.01.740,PainUncertainty,2022.2.5,143.4226378
grave,forte,stimuli/330Hz,stimuli/forte,bloc_9,prob20hthp_12trials.xlsx,3,36,80,20,0,,,,,0,0,0,0,0,0,0,1,,,,,,,,4.5,42.7208946,47.2248074,47.22263985,0.2995071,47.6658994,47.6658994,m,0.8380918,49.7830621,49.7830621,70,1.201,,,,,sub-021,55,115,700,bloc_loopcontinue.csv,2023-06-07_11h43.29.719,PainUncertainty,2022.2.5,143.5210301
aigu,moderee,stimuli/660Hz,stimuli/moderee,bloc_9,prob20hthp_12trials.xlsx,3,36,80,20,0,,,,,0,0,0,0,0,1,1,6,,,,,,,,4.2,49.7830621,53.985782,53.98592935,0.3049164,54.4343309,54.4343309,n,0.6568254,56.177385,56.177385,4,1.018,,,,,sub-021,55,115,700,bloc_loopcontinue.csv,2023-06-07_11h43.29.719,PainUncertainty,2022.2.5,143.5210301
aigu,moderee,stimuli/660Hz,stimuli/moderee,bloc_9,prob20hthp_12trials.xlsx,3,36,80,20,0,,,,,0,0,0,0,0,2,2,9,,,,,,,,3.2,56.177385,59.382314,59.38239405,0.3049747,59.8269533,59.8269533,n,1.1029105,62.5740128,62.5740128,4,1.582,,,,,sub-021,55,115,700,bloc_loopcontinue.csv,2023-06-07_11h43.29.719,PainUncertainty,2022.2.5,143.5210301
aigu,moderee,stimuli/660Hz,stimuli/moderee,bloc_9,prob20hthp_12trials.xlsx,3,36,80,20,0,,,,,0,0,0,0,0,3,3,10,,,,,,,,3.6,62.5740128,66.175317,66.17610965,0.3039766,66.6192669,66.6192669,n,0.7196904,69.5150751,69.5150751,0,2.093,,,,,sub-021,55,115,700,bloc_loopcontinue.csv,2023-06-07_11h43.29.719,PainUncertainty,2022.2.5,143.5210301
grave,forte,stimuli/330Hz,stimuli/forte,bloc_9,prob20hthp_12trials.xlsx,3,36,80,20,0,,,,,0,0,0,0,0,4,4,2,,,,,,,,3.9,69.5150751,73.4188035,73.41897135,0.304781,73.8629895,73.8629895,m,0.7209814,76.4697941,76.4697941,67,1.816,,,,,sub-021,55,115,700,bloc_loopcontinue.csv,2023-06-07_11h43.29.719,PainUncertainty,2022.2.5,143.5210301
aigu,moderee,stimuli/660Hz,stimuli/moderee,bloc_9,prob20hthp_12trials.xlsx,3,36,80,20,0,,,,,0,0,0,0,0,5,5,7,,,,,,,,4.3,76.4697941,80.774431,80.77447845,0.3051732,81.222841,81.222841,n,0.9839832,84.1451671,84.1451671,5,1.865,,,,,sub-021,55,115,700,bloc_loopcontinue.csv,2023-06-07_11h43.29.719,PainUncertainty,2022.2.5,143.5210301
grave,forte,stimuli/330Hz,stimuli/forte,bloc_9,prob20hthp_12trials.xlsx,3,36,80,20,0,,,,,0,0,0,0,0,6,6,3,,,,,,,,3,84.1451671,87.1503147,87.15026165,0.304553,87.5940186,87.5940186,m,1.2416961,90.0300449,90.0300449,60,1.116,,,,,sub-021,55,115,700,bloc_loopcontinue.csv,2023-06-07_11h43.29.719,PainUncertainty,2022.2.5,143.5210301
grave,moderee,stimuli/330Hz,stimuli/moderee,bloc_9,prob20hthp_12trials.xlsx,3,36,80,20,0,,,,,0,0,0,0,0,7,7,5,,,,,,,,3.2,90.0300449,93.2335744,93.23360925,0.3051195,93.6777539,93.6777539,n,0.6509213,96.1050232,96.1050232,7,1.705,,,,,sub-021,55,115,700,bloc_loopcontinue.csv,2023-06-07_11h43.29.719,PainUncertainty,2022.2.5,143.5210301
aigu,forte,stimuli/660Hz,stimuli/forte,bloc_9,prob20hthp_12trials.xlsx,3,36,80,20,0,,,,,0,0,0,0,0,8,8,11,,,,,,,,3.1,96.1050232,99.2065203,99.20681835,0.3047899,99.6509692,99.6509692,m,0.7365066,102.2461176,102.2461176,62,1.787,,,,,sub-021,55,115,700,bloc_loopcontinue.csv,2023-06-07_11h43.29.719,PainUncertainty,2022.2.5,143.5210301
aigu,moderee,stimuli/660Hz,stimuli/moderee,bloc_9,prob20hthp_12trials.xlsx,3,36,80,20,0,,,,,0,0,0,0,0,9,9,8,,,,,,,,4.4,102.2461176,106.6453304,106.6451645,0.3049433,107.0895015,107.0895015,n,1.605235,109.9373137,109.9373137,3,1.169,,,,,sub-021,55,115,700,bloc_loopcontinue.csv,2023-06-07_11h43.29.719,PainUncertainty,2022.2.5,143.5210301
grave,forte,stimuli/330Hz,stimuli/forte,bloc_9,prob20hthp_12trials.xlsx,3,36,80,20,0,,,,,0,0,0,0,0,10,10,0,,,,,,,,4.6,109.9373137,114.5416607,114.5417154,0.3051467,114.9858468,114.9858468,m,1.1535293,117.3572059,117.3572059,60,1.163,,,,,sub-021,55,115,700,bloc_loopcontinue.csv,2023-06-07_11h43.29.719,PainUncertainty,2022.2.5,143.5210301
grave,forte,stimuli/330Hz,stimuli/forte,bloc_9,prob20hthp_12trials.xlsx,3,36,80,20,0,,,,,0,0,0,0,0,11,11,4,,,,,,,,4.8,117.3572059,122.1607036,122.1607235,0.3049244,122.6048381,122.6048381,m,1.1373856,125.2065875,125.2065875,59,1.393,,,,,sub-021,55,115,700,bloc_loopcontinue.csv,2023-06-07_11h43.29.719,PainUncertainty,2022.2.5,143.5210301
aigu,moderee,stimuli/660Hz,stimuli/moderee,bloc_9,prob20hthp_12trials.xlsx,3,36,80,20,0,,,,,0,0,0,0,1,0,12,8,,,,,,,,3.1,125.2065875,128.3071723,128.3072435,0.3050864,128.7519946,128.7519946,n,0.8385377,131.2690857,131.2690857,1,1.6,,,,,sub-021,55,115,700,bloc_loopcontinue.csv,2023-06-07_11h43.29.719,PainUncertainty,2022.2.5,143.5210301
grave,forte,stimuli/330Hz,stimuli/forte,bloc_9,prob20hthp_12trials.xlsx,3,36,80,20,0,,,,,0,0,0,0,1,1,13,2,,,,,,,,4.8,131.2690857,136.0723312,136.0720365,0.3015072,136.5172187,136.5172187,m,0.8410096,138.8625517,138.8625517,58,1.435,,,,,sub-021,55,115,700,bloc_loopcontinue.csv,2023-06-07_11h43.29.719,PainUncertainty,2022.2.5,143.5210301
grave,moderee,stimuli/330Hz,stimuli/moderee,bloc_9,prob20hthp_12trials.xlsx,3,36,80,20,0,,,,,0,0,0,0,1,2,14,5,,,,,,,,4.7,138.8625517,143.5659756,143.5659701,0.3052556,144.0107944,144.0107944,n,0.5683388,146.5053971,146.5053971,0,1.872,,,,,sub-021,55,115,700,bloc_loopcontinue.csv,2023-06-07_11h43.29.719,PainUncertainty,2022.2.5,143.5210301
aigu,moderee,stimuli/660Hz,stimuli/moderee,bloc_9,prob20hthp_12trials.xlsx,3,36,80,20,0,,,,,0,0,0,0,1,3,15,9,,,,,,,,4.4,146.5053971,150.9071062,150.9070584,0.3054392,151.3514251,151.3514251,n,1.4713693,154.756043,154.756043,2,1.88,,,,,sub-021,55,115,700,bloc_loopcontinue.csv,2023-06-07_11h43.29.719,PainUncertainty,2022.2.5,143.5210301
aigu,moderee,stimuli/660Hz,stimuli/moderee,bloc_9,prob20hthp_12trials.xlsx,3,36,80,20,0,,,,,0,0,0,0,1,4,16,10,,,,,,,,4.4,154.756043,159.1581655,159.1582835,0.3048133,159.6027924,159.6027924,n,1.8777694,163.8563378,163.8563378,11,2.303,,,,,sub-021,55,115,700,bloc_loopcontinue.csv,2023-06-07_11h43.29.719,PainUncertainty,2022.2.5,143.5210301
grave,forte,stimuli/330Hz,stimuli/forte,bloc_9,prob20hthp_12trials.xlsx,3,36,80,20,0,,,,,0,0,0,0,1,5,17,4,,,,,,,,3.8,163.8563378,167.6591989,167.6593054,0.3052343,168.1055052,168.1055052,m,1.0800098,171.5461096,171.5461096,73,2.296,,,,,sub-021,55,115,700,bloc_loopcontinue.csv,2023-06-07_11h43.29.719,PainUncertainty,2022.2.5,143.5210301
aigu,moderee,stimuli/660Hz,stimuli/moderee,bloc_9,prob20hthp_12trials.xlsx,3,36,80,20,0,,,,,0,0,0,0,1,6,18,6,,,,,,,,3.8,171.5461096,175.3475131,175.3476806,0.3047617,175.7963011,175.7963011,n,0.7306201,177.8633959,177.8633959,7,1.261,,,,,sub-021,55,115,700,bloc_loopcontinue.csv,2023-06-07_11h43.29.719,PainUncertainty,2022.2.5,143.5210301
grave,forte,stimuli/330Hz,stimuli/forte,bloc_9,prob20hthp_12trials.xlsx,3,36,80,20,0,,,,,0,0,0,0,1,7,19,1,,,,,,,,4.7,177.8633959,182.5637877,182.5638207,0.3054001,183.0117445,183.0117445,m,0.6261411,185.1385719,185.1385719,65,1.421,,,,,sub-021,55,115,700,bloc_loopcontinue.csv,2023-06-07_11h43.29.719,PainUncertainty,2022.2.5,143.5210301
aigu,moderee,stimuli/660Hz,stimuli/moderee,bloc_9,prob20hthp_12trials.xlsx,3,36,80,20,0,,,,,0,0,0,0,1,8,20,7,,,,,,,,4.2,185.1385719,189.3428187,189.342952,0.2999567,189.787179,189.787179,n,0.5952618,191.8699419,191.8699419,0,1.413,,,,,sub-021,55,115,700,bloc_loopcontinue.csv,2023-06-07_11h43.29.719,PainUncertainty,2022.2.5,143.5210301
grave,forte,stimuli/330Hz,stimuli/forte,bloc_9,prob20hthp_12trials.xlsx,3,36,80,20,0,,,,,0,0,0,0,1,9,21,0,,,,,,,,4.2,191.8699419,196.072923,196.0736204,0.2990229,196.5173003,196.5173003,m,0.7325929,198.7131974,198.7131974,61,1.407,,,,,sub-021,55,115,700,bloc_loopcontinue.csv,2023-06-07_11h43.29.719,PainUncertainty,2022.2.5,143.5210301
aigu,forte,stimuli/660Hz,stimuli/forte,bloc_9,prob20hthp_12trials.xlsx,3,36,80,20,0,,,,,0,0,0,0,1,10,22,11,,,,,,,,4.4,198.7131974,203.1149356,203.114938,0.3052422,203.5595218,203.5595218,m,1.9245672,207.6204077,207.6204077,62,2.073,,,,,sub-021,55,115,700,bloc_loopcontinue.csv,2023-06-07_11h43.29.719,PainUncertainty,2022.2.5,143.5210301
grave,forte,stimuli/330Hz,stimuli/forte,bloc_9,prob20hthp_12trials.xlsx,3,36,80,20,0,,,,,0,0,0,0,1,11,23,3,,,,,,,,3.5,207.6204077,211.1228411,211.1227993,0.3009553,211.5673597,211.5673597,m,0.8494749,214.6588088,214.6588088,60,2.156,,,,,sub-021,55,115,700,bloc_loopcontinue.csv,2023-06-07_11h43.29.719,PainUncertainty,2022.2.5,143.5210301
aigu,moderee,stimuli/660Hz,stimuli/moderee,bloc_9,prob20hthp_12trials.xlsx,3,36,80,20,0,,,,,0,0,0,0,2,0,24,6,,,,,,,,3.4,214.6588088,218.06141,218.0616805,0.3049488,218.5079131,218.5079131,n,0.6392541,220.3799508,220.3799508,3,1.148,,,,,sub-021,55,115,700,bloc_loopcontinue.csv,2023-06-07_11h43.29.719,PainUncertainty,2022.2.5,143.5210301
grave,forte,stimuli/330Hz,stimuli/forte,bloc_9,prob20hthp_12trials.xlsx,3,36,80,20,0,,,,,0,0,0,0,2,1,25,4,,,,,,,,4.7,220.3799508,225.0827442,225.0827397,0.3050259,225.5270019,225.5270019,m,0.9784983,228.2985489,228.2985489,60,1.713,,,,,sub-021,55,115,700,bloc_loopcontinue.csv,2023-06-07_11h43.29.719,PainUncertainty,2022.2.5,143.5210301
aigu,moderee,stimuli/660Hz,stimuli/moderee,bloc_9,prob20hthp_12trials.xlsx,3,36,80,20,0,,,,,0,0,0,0,2,2,26,9,,,,,,,,4.6,228.2985489,232.9030982,232.903159,0.3052361,233.3477444,233.3477444,n,0.5606999,236.386164,236.386164,2,2.4,,,,,sub-021,55,115,700,bloc_loopcontinue.csv,2023-06-07_11h43.29.719,PainUncertainty,2022.2.5,143.5210301
grave,forte,stimuli/330Hz,stimuli/forte,bloc_9,prob20hthp_12trials.xlsx,3,36,80,20,0,,,,,0,0,0,0,2,3,27,3,,,,,,,,3.4,236.386164,239.785988,239.785903,0.3053501,240.2301521,240.2301521,m,0.6337114,242.3667772,242.3667772,59,1.419,,,,,sub-021,55,115,700,bloc_loopcontinue.csv,2023-06-07_11h43.29.719,PainUncertainty,2022.2.5,143.5210301
aigu,moderee,stimuli/660Hz,stimuli/moderee,bloc_9,prob20hthp_12trials.xlsx,3,36,80,20,0,,,,,0,0,0,0,2,4,28,10,,,,,,,,3.3,242.3667772,245.6685784,245.6685859,0.3050603,246.1127469,246.1127469,n,0.9327705,248.5736693,248.5736693,7,1.441,,,,,sub-021,55,115,700,bloc_loopcontinue.csv,2023-06-07_11h43.29.719,PainUncertainty,2022.2.5,143.5210301
aigu,forte,stimuli/660Hz,stimuli/forte,bloc_9,prob20hthp_12trials.xlsx,3,36,80,20,0,,,,,0,0,0,0,2,5,29,11,,,,,,,,3.4,248.5736693,251.9752094,251.9755028,0.3043502,252.4191026,252.4191026,m,0.7332061,254.4732278,254.4732278,65,1.24,,,,,sub-021,55,115,700,bloc_loopcontinue.csv,2023-06-07_11h43.29.719,PainUncertainty,2022.2.5,143.5210301
aigu,moderee,stimuli/660Hz,stimuli/moderee,bloc_9,prob20hthp_12trials.xlsx,3,36,80,20,0,,,,,0,0,0,0,2,6,30,8,,,,,,,,3.4,254.4732278,257.8783713,257.8784533,0.3051662,258.3268269,258.3268269,n,0.6792194,260.148602,260.148602,0,1.066,,,,,sub-021,55,115,700,bloc_loopcontinue.csv,2023-06-07_11h43.29.719,PainUncertainty,2022.2.5,143.5210301
grave,forte,stimuli/330Hz,stimuli/forte,bloc_9,prob20hthp_12trials.xlsx,3,36,80,20,0,,,,,0,0,0,0,2,7,31,1,,,,,,,,3.5,260.148602,263.6499054,263.6499366,0.3046831,264.0940437,264.0940437,m,1.0469408,266.5622847,266.5622847,60,1.351,,,,,sub-021,55,115,700,bloc_loopcontinue.csv,2023-06-07_11h43.29.719,PainUncertainty,2022.2.5,143.5210301
grave,moderee,stimuli/330Hz,stimuli/moderee,bloc_9,prob20hthp_12trials.xlsx,3,36,80,20,0,,,,,0,0,0,0,2,8,32,5,,,,,,,,4.4,266.5622847,270.9633343,270.9633353,0.3054289,271.4115811,271.4115811,n,1.1992958,279.592563,279.592563,50,6.907,,,,,sub-021,55,115,700,bloc_loopcontinue.csv,2023-06-07_11h43.29.719,PainUncertainty,2022.2.5,143.5210301
grave,forte,stimuli/330Hz,stimuli/forte,bloc_9,prob20hthp_12trials.xlsx,3,36,80,20,0,,,,,0,0,0,0,2,9,33,2,,,,,,,,3.5,279.592563,283.0966331,283.0966829,0.3052671,283.5411019,283.5411019,m,1.168315,286.0049031,286.0049031,62,1.219,,,,,sub-021,55,115,700,bloc_loopcontinue.csv,2023-06-07_11h43.29.719,PainUncertainty,2022.2.5,143.5210301
aigu,moderee,stimuli/660Hz,stimuli/moderee,bloc_9,prob20hthp_12trials.xlsx,3,36,80,20,0,,,,,0,0,0,0,2,10,34,7,,,,,,,,3.4,286.0049031,289.4099321,289.4101109,0.3049302,289.8541754,289.8541754,n,0.5107515,291.8891793,291.8891793,3,1.409,,,,,sub-021,55,115,700,bloc_loopcontinue.csv,2023-06-07_11h43.29.719,PainUncertainty,2022.2.5,143.5210301
grave,forte,stimuli/330Hz,stimuli/forte,bloc_9,prob20hthp_12trials.xlsx,3,36,80,20,0,,,,,0,0,0,0,2,11,35,0,,,,,,,,4,291.8891793,295.8903933,295.8903231,0.3048011,296.3344294,296.3344294,m,0.6729936,298.8674646,298.8674646,65,1.837,,,,,sub-021,55,115,700,bloc_loopcontinue.csv,2023-06-07_11h43.29.719,PainUncertainty,2022.2.5,143.5210301