cue_,stimulus_,cue_fichier,stimulus_fichier,block_name,block_trials_file,block_n_reps,block_ntrials,block_prob_highP_highT,block_prob_highP_lowT,block_pause_after,Bloc_essai.thisRepN,Bloc_essai.thisTrialN,Bloc_essai.thisN,Bloc_essai.thisIndex,blocks.thisRepN,blocks.thisTrialN,blocks.thisN,blocks.thisIndex,trials.thisRepN,trials.thisTrialN,trials.thisN,trials.thisIndex,pause_loop.thisRepN,pause_loop.thisTrialN,pause_loop.thisN,pause_loop.thisIndex,key_resp_5.started,start_calib.started,key_resp_2.started,ISI_duration,pause.started,pause.stopped,cue.started,ISI.started,choice_pain.started,Choice.started,choice_pain.keys,choice_pain.rt,main_text.started,confirm_text.started,ratingScale.response,ratingScale.rt,choice_pain.stopped,Choice.stopped,key_resp_3.started,key_resp_6.started,participant,low_ma,high_ma,failsafe_ma,block_file,date,expName,psychopyVersion,frameRate,
aigu,forte,stimuli/660Hz,stimuli/forte,,,,,,,,0,0,0,3,,,,,,,,,,,,,29.734970200000134,32.0772306000008,36.18208600000071,3.1,38.643643900000825,41.7459630000003,41.74512622000084,0.30527490000076796,42.19004210000003,42.19004210000003,m,1.6837129999994431,47.52214990000084,47.52214990000084,25,3.562,,,,,sub-057,80,130,700,bloc_loop.csv,2023-10-05_08h57.51.897,PainUncertainty,2022.2.5,144.71319292466538,
aigu,moderee,stimuli/660Hz,stimuli/moderee,,,,,,,,0,1,1,2,,,,,,,,,,,,,,,,3.1,47.52214990000084,50.62825310000062,50.62796202,0.3055561999999554,51.07672040000034,51.07672040000034,n,1.2019561999995858,54.893845700000384,54.893845700000384,11,2.545,,,,,sub-057,80,130,700,bloc_loop.csv,2023-10-05_08h57.51.897,PainUncertainty,2022.2.5,144.71319292466538,
grave,forte,stimuli/330Hz,stimuli/forte,,,,,,,,0,2,2,1,,,,,,,,,,,,,,,,4.5,54.893845700000384,59.39326940000046,59.392994620000266,0.3051697000000786,59.83750670000063,59.83750670000063,m,1.0947599000000992,64.67773680000028,64.67773680000028,27,3.663,,,,,sub-057,80,130,700,bloc_loop.csv,2023-10-05_08h57.51.897,PainUncertainty,2022.2.5,144.71319292466538,
grave,moderee,stimuli/330Hz,stimuli/moderee,,,,,,,,0,3,3,0,,,,,,,,,,,,,,,,4.1,64.67773680000028,68.78331160000016,68.78303102000037,0.3028606999996555,69.22940880000078,69.22940880000078,n,1.775702199999614,76.43531950000033,76.43531950000033,26,5.407,,,,,sub-057,80,130,700,bloc_loop.csv,2023-10-05_08h57.51.897,PainUncertainty,2022.2.5,144.71319292466538,
aigu,moderee,stimuli/660Hz,stimuli/moderee,bloc_1,prob20hthp_12trials.xlsx,4,48,20,80,0,,,,,0,0,0,0,0,0,0,7,,,,,,,,3.4,121.09614870000041,124.49852420000025,124.49828772000065,0.30489510000006703,124.94665440000063,124.94665440000063,n,1.1634808999988309,129.92093310000018,129.92093310000018,5,3.731,,,,,sub-057,80,130,700,bloc_loop.csv,2023-10-05_08h57.51.897,PainUncertainty,2022.2.5,144.71319292466538,
grave,forte,stimuli/330Hz,stimuli/forte,bloc_1,prob20hthp_12trials.xlsx,4,48,20,80,0,,,,,0,0,0,0,0,1,1,0,,,,,,,,3.8,129.92093310000018,133.72382180000022,133.72184502000044,0.3050100000000384,134.16609300000073,134.16609300000073,m,1.0981103000003714,138.3452623000003,138.3452623000003,30,3.009,,,,,sub-057,80,130,700,bloc_loop.csv,2023-10-05_08h57.51.897,PainUncertainty,2022.2.5,144.71319292466538,
aigu,moderee,stimuli/660Hz,stimuli/moderee,bloc_1,prob20hthp_12trials.xlsx,4,48,20,80,0,,,,,0,0,0,0,0,2,2,6,,,,,,,,3.5,138.3452623000003,141.84777300000042,141.84745622000054,0.30489719999968656,142.2920240000003,142.2920240000003,n,0.8049147999990964,146.08406800000012,146.08406800000012,11,2.921,,,,,sub-057,80,130,700,bloc_loop.csv,2023-10-05_08h57.51.897,PainUncertainty,2022.2.5,144.71319292466538,
aigu,forte,stimuli/660Hz,stimuli/forte,bloc_1,prob20hthp_12trials.xlsx,4,48,20,80,0,,,,,0,0,0,0,0,3,3,11,,,,,,,,3.9,146.08406800000012,149.98759490000066,149.98744252000023,0.3049640000008367,150.43188080000073,150.43188080000073,None,,155.77257250000002,155.77257250000002,40,2.823,152.9005872000007,152.9005872000007,,,sub-057,80,130,700,bloc_loop.csv,2023-10-05_08h57.51.897,PainUncertainty,2022.2.5,144.71319292466538,
grave,moderee,stimuli/330Hz,stimuli/moderee,bloc_1,prob20hthp_12trials.xlsx,4,48,20,80,0,,,,,0,0,0,0,0,4,4,5,,,,,,,,3.5,155.77257250000002,159.2734199000006,159.27326502000022,0.304975199999717,159.71782650000023,159.71782650000023,n,0.8743561000001137,164.18116480000026,164.18116480000026,2,3.519,,,,,sub-057,80,130,700,bloc_loop.csv,2023-10-05_08h57.51.897,PainUncertainty,2022.2.5,144.71319292466538,
grave,forte,stimuli/330Hz,stimuli/forte,bloc_1,prob20hthp_12trials.xlsx,4,48,20,80,0,,,,,0,0,0,0,0,5,5,2,,,,,,,,4.2,164.18116480000026,168.3857781000006,168.38551452000019,0.3047250999998141,168.83384190000015,168.83384190000015,n,1.424435299999459,174.51065910000034,174.51065910000034,8,4.192,,,,,sub-057,80,130,700,bloc_loop.csv,2023-10-05_08h57.51.897,PainUncertainty,2022.2.5,144.71319292466538,
grave,forte,stimuli/330Hz,stimuli/forte,bloc_1,prob20hthp_12trials.xlsx,4,48,20,80,0,,,,,0,0,0,0,0,6,6,1,,,,,,,,3.6,174.51065910000034,178.11647549999998,178.11611472000067,0.30502180000075896,178.5603516000001,178.5603516000001,m,1.1674128999993627,182.9824849000006,182.9824849000006,38,3.171,,,,,sub-057,80,130,700,bloc_loop.csv,2023-10-05_08h57.51.897,PainUncertainty,2022.2.5,144.71319292466538,
aigu,moderee,stimuli/660Hz,stimuli/moderee,bloc_1,prob20hthp_12trials.xlsx,4,48,20,80,0,,,,,0,0,0,0,0,7,7,10,,,,,,,,4,182.9824849000006,186.98524300000008,186.98490222000027,0.3049862999996549,187.42936820000068,187.42936820000068,n,0.7718866999994134,191.50507900000048,191.50507900000048,4,3.226,,,,,sub-057,80,130,700,bloc_loop.csv,2023-10-05_08h57.51.897,PainUncertainty,2022.2.5,144.71319292466538,
grave,forte,stimuli/330Hz,stimuli/forte,bloc_1,prob20hthp_12trials.xlsx,4,48,20,80,0,,,,,0,0,0,0,0,8,8,4,,,,,,,,3.8,191.50507900000048,195.3055959000003,195.30528002,0.3051746999999523,195.7498955000001,195.7498955000001,n,1.5408477999999377,201.03041900000062,201.03041900000062,15,3.685,,,,,sub-057,80,130,700,bloc_loop.csv,2023-10-05_08h57.51.897,PainUncertainty,2022.2.5,144.71319292466538,
grave,forte,stimuli/330Hz,stimuli/forte,bloc_1,prob20hthp_12trials.xlsx,4,48,20,80,0,,,,,0,0,0,0,0,9,9,3,,,,,,,,4.5,201.03041900000062,205.5360739000007,205.53580242000015,0.3054773000003479,205.9831032000002,205.9831032000002,m,1.4193565999994462,209.93531880000046,209.93531880000046,40,2.454,,,,,sub-057,80,130,700,bloc_loop.csv,2023-10-05_08h57.51.897,PainUncertainty,2022.2.5,144.71319292466538,
aigu,moderee,stimuli/660Hz,stimuli/moderee,bloc_1,prob20hthp_12trials.xlsx,4,48,20,80,0,,,,,0,0,0,0,0,10,10,8,,,,,,,,4.2,209.93531880000046,214.14154150000013,214.1411771200007,0.3048633999997037,214.5855831000008,214.5855831000008,n,0.7725308999997651,218.63235150000037,218.63235150000037,10,3.213,,,,,sub-057,80,130,700,bloc_loop.csv,2023-10-05_08h57.51.897,PainUncertainty,2022.2.5,144.71319292466538,
aigu,moderee,stimuli/660Hz,stimuli/moderee,bloc_1,prob20hthp_12trials.xlsx,4,48,20,80,0,,,,,0,0,0,0,0,11,11,9,,,,,,,,3.1,218.63235150000037,221.73257310000008,221.7322903200008,0.3057337999998708,222.18152630000077,222.18152630000077,n,0.7197446000000127,224.6261781000003,224.6261781000003,4,1.657,,,,,sub-057,80,130,700,bloc_loop.csv,2023-10-05_08h57.51.897,PainUncertainty,2022.2.5,144.71319292466538,
aigu,moderee,stimuli/660Hz,stimuli/moderee,bloc_1,prob20hthp_12trials.xlsx,4,48,20,80,0,,,,,0,0,0,0,1,0,12,8,,,,,,,,3.4,224.6261781000003,228.0320513000006,228.03166152000057,0.3051488999999492,228.48040330000003,228.48040330000003,n,0.8158561999989615,234.0110211000001,234.0110211000001,3,4.644,,,,,sub-057,80,130,700,bloc_loop.csv,2023-10-05_08h57.51.897,PainUncertainty,2022.2.5,144.71319292466538,
grave,forte,stimuli/330Hz,stimuli/forte,bloc_1,prob20hthp_12trials.xlsx,4,48,20,80,0,,,,,0,0,0,0,1,1,13,0,,,,,,,,3.8,234.0110211000001,237.81084030000056,237.81056452,0.30505449999964185,238.25517910000053,238.25517910000053,m,1.0019299999994473,243.93971580000016,243.93971580000016,44,4.6,,,,,sub-057,80,130,700,bloc_loop.csv,2023-10-05_08h57.51.897,PainUncertainty,2022.2.5,144.71319292466538,
aigu,moderee,stimuli/660Hz,stimuli/moderee,bloc_1,prob20hthp_12trials.xlsx,4,48,20,80,0,,,,,0,0,0,0,1,2,14,10,,,,,,,,4.4,243.93971580000016,248.34001120000084,248.33985892000027,0.30495280000013736,248.78403500000059,248.78403500000059,n,0.628109699999186,251.73924250000073,251.73924250000073,8,2.275,,,,,sub-057,80,130,700,bloc_loop.csv,2023-10-05_08h57.51.897,PainUncertainty,2022.2.5,144.71319292466538,
grave,moderee,stimuli/330Hz,stimuli/moderee,bloc_1,prob20hthp_12trials.xlsx,4,48,20,80,0,,,,,0,0,0,0,1,3,15,5,,,,,,,,3.3,251.73924250000073,255.04415380000046,255.04212822000017,0.3051792000005662,255.48641130000033,255.48641130000033,n,0.8528983999995035,259.47698690000016,259.47698690000016,4,3.087,,,,,sub-057,80,130,700,bloc_loop.csv,2023-10-05_08h57.51.897,PainUncertainty,2022.2.5,144.71319292466538,
aigu,moderee,stimuli/660Hz,stimuli/moderee,bloc_1,prob20hthp_12trials.xlsx,4,48,20,80,0,,,,,0,0,0,0,1,4,16,6,,,,,,,,3.7,259.47698690000016,263.1820428000001,263.1816392200005,0.3053543999994872,263.6265082,263.6265082,n,1.0307232999994085,268.6563278000003,268.6563278000003,11,3.913,,,,,sub-057,80,130,700,bloc_loop.csv,2023-10-05_08h57.51.897,PainUncertainty,2022.2.5,144.71319292466538,
grave,forte,stimuli/330Hz,stimuli/forte,bloc_1,prob20hthp_12trials.xlsx,4,48,20,80,0,,,,,0,0,0,0,1,5,17,2,,,,,,,,4.5,268.6563278000003,273.16228990000036,273.16215062000055,0.30485090000001946,273.6065322000004,273.6065322000004,m,0.9828978999994433,277.8009283000001,277.8009283000001,51,3.143,,,,,sub-057,80,130,700,bloc_loop.csv,2023-10-05_08h57.51.897,PainUncertainty,2022.2.5,144.71319292466538,
grave,forte,stimuli/330Hz,stimuli/forte,bloc_1,prob20hthp_12trials.xlsx,4,48,20,80,0,,,,,0,0,0,0,1,6,18,1,,,,,,,,4.2,277.8009283000001,282.0037235000009,282.0034727200006,0.30117280000013125,282.44838530000015,282.44838530000015,None,,288.20790580000084,288.20790580000084,49,3.252,284.91743320000023,284.91743320000023,,,sub-057,80,130,700,bloc_loop.csv,2023-10-05_08h57.51.897,PainUncertainty,2022.2.5,144.71319292466538,
grave,forte,stimuli/330Hz,stimuli/forte,bloc_1,prob20hthp_12trials.xlsx,4,48,20,80,0,,,,,0,0,0,0,1,7,19,4,,,,,,,,4.7,288.20790580000084,292.90772300000026,292.90753182,0.30506509999941045,293.35202630000003,293.35202630000003,m,1.4531489999999394,299.0947874000003,299.0947874000003,63,4.204,,,,,sub-057,80,130,700,bloc_loop.csv,2023-10-05_08h57.51.897,PainUncertainty,2022.2.5,144.71319292466538,
aigu,moderee,stimuli/660Hz,stimuli/moderee,bloc_1,prob20hthp_12trials.xlsx,4,48,20,80,0,,,,,0,0,0,0,1,8,20,9,,,,,,,,4.7,299.0947874000003,303.7980389000004,303.79782872000004,0.30470149999928253,304.2464396000005,304.2464396000005,n,0.8513614999992569,307.4407804000002,307.4407804000002,6,2.263,,,,,sub-057,80,130,700,bloc_loop.csv,2023-10-05_08h57.51.897,PainUncertainty,2022.2.5,144.71319292466538,
aigu,forte,stimuli/660Hz,stimuli/forte,bloc_1,prob20hthp_12trials.xlsx,4,48,20,80,0,,,,,0,0,0,0,1,9,21,11,,,,,,,,4,307.4407804000002,311.44563520000065,311.4448226200008,0.3048255000003337,311.8890859000003,311.8890859000003,n,1.5287996999995812,316.9049407000002,316.9049407000002,22,3.405,,,,,sub-057,80,130,700,bloc_loop.csv,2023-10-05_08h57.51.897,PainUncertainty,2022.2.5,144.71319292466538,
aigu,moderee,stimuli/660Hz,stimuli/moderee,bloc_1,prob20hthp_12trials.xlsx,4,48,20,80,0,,,,,0,0,0,0,1,10,22,7,,,,,,,,4,316.9049407000002,320.9049894000009,320.9048612200001,0.30029670000021724,321.3490507000006,321.3490507000006,n,0.945628299999953,324.8980171000003,324.8980171000003,15,2.518,,,,,sub-057,80,130,700,bloc_loop.csv,2023-10-05_08h57.51.897,PainUncertainty,2022.2.5,144.71319292466538,
grave,forte,stimuli/330Hz,stimuli/forte,bloc_1,prob20hthp_12trials.xlsx,4,48,20,80,0,,,,,0,0,0,0,1,11,23,3,,,,,,,,3.6,324.8980171000003,328.5025206,328.5022482200008,0.3052287000000433,328.9466996000001,328.9466996000001,m,2.1556429000002026,333.2591278,333.2591278,60,2.08,,,,,sub-057,80,130,700,bloc_loop.csv,2023-10-05_08h57.51.897,PainUncertainty,2022.2.5,144.71319292466538,
aigu,moderee,stimuli/660Hz,stimuli/moderee,bloc_1,prob20hthp_12trials.xlsx,4,48,20,80,0,,,,,0,0,0,0,2,0,24,8,,,,,,,,4.3,333.2591278,337.55946530000074,337.55912212000084,0.3054550000006202,338.00795520000065,338.00795520000065,n,1.0287908999998763,343.45752900000025,343.45752900000025,4,4.357,,,,,sub-057,80,130,700,bloc_loop.csv,2023-10-05_08h57.51.897,PainUncertainty,2022.2.5,144.71319292466538,
aigu,moderee,stimuli/660Hz,stimuli/moderee,bloc_1,prob20hthp_12trials.xlsx,4,48,20,80,0,,,,,0,0,0,0,2,1,25,10,,,,,,,,3.1,343.45752900000025,346.5606378000002,346.56077802000044,0.3044330999991871,347.00458420000086,347.00458420000086,n,0.6882781999993313,348.71848410000075,348.71848410000075,10,0.969,,,,,sub-057,80,130,700,bloc_loop.csv,2023-10-05_08h57.51.897,PainUncertainty,2022.2.5,144.71319292466538,
aigu,moderee,stimuli/660Hz,stimuli/moderee,bloc_1,prob20hthp_12trials.xlsx,4,48,20,80,0,,,,,0,0,0,0,2,2,26,7,,,,,,,,3.1,348.71848410000075,351.8178895000001,351.8175147200006,0.30534720000014204,352.2621519000004,352.2621519000004,n,0.8326901999989786,356.3448550000003,356.3448550000003,11,3.177,,,,,sub-057,80,130,700,bloc_loop.csv,2023-10-05_08h57.51.897,PainUncertainty,2022.2.5,144.71319292466538,
grave,forte,stimuli/330Hz,stimuli/forte,bloc_1,prob20hthp_12trials.xlsx,4,48,20,80,0,,,,,0,0,0,0,2,3,27,1,,,,,,,,4,356.3448550000003,360.34656540000015,360.3463429200007,0.305020699999659,360.79480390000026,360.79480390000026,m,1.2017237999989447,365.0412754000008,365.0412754000008,41,2.977,,,,,sub-057,80,130,700,bloc_loop.csv,2023-10-05_08h57.51.897,PainUncertainty,2022.2.5,144.71319292466538,
aigu,moderee,stimuli/660Hz,stimuli/moderee,bloc_1,prob20hthp_12trials.xlsx,4,48,20,80,0,,,,,0,0,0,0,2,4,28,6,,,,,,,,3.9,365.0412754000008,368.9468631000009,368.94489842000047,0.3047971999994843,369.3890388,369.3890388,n,0.6873281999996834,373.19411990000026,373.19411990000026,4,3.053,,,,,sub-057,80,130,700,bloc_loop.csv,2023-10-05_08h57.51.897,PainUncertainty,2022.2.5,144.71319292466538,
aigu,forte,stimuli/660Hz,stimuli/forte,bloc_1,prob20hthp_12trials.xlsx,4,48,20,80,0,,,,,0,0,0,0,2,5,29,11,,,,,,,,3.3,373.19411990000026,376.4943927000004,376.4941271200002,0.30501970000022993,376.94576040000084,376.94576040000084,m,0.8567746999997325,381.84293740000066,381.84293740000066,44,3.982,,,,,sub-057,80,130,700,bloc_loop.csv,2023-10-05_08h57.51.897,PainUncertainty,2022.2.5,144.71319292466538,
grave,forte,stimuli/330Hz,stimuli/forte,bloc_1,prob20hthp_12trials.xlsx,4,48,20,80,0,,,,,0,0,0,0,2,6,30,0,,,,,,,,4.1,381.84293740000066,385.9470046000006,385.94682322000034,0.3052611999992223,386.39240210000025,386.39240210000025,m,1.1440208999993047,390.57273460000033,390.57273460000033,45,2.963,,,,,sub-057,80,130,700,bloc_loop.csv,2023-10-05_08h57.51.897,PainUncertainty,2022.2.5,144.71319292466538,
aigu,moderee,stimuli/660Hz,stimuli/moderee,bloc_1,prob20hthp_12trials.xlsx,4,48,20,80,0,,,,,0,0,0,0,2,7,31,9,,,,,,,,4.2,390.57273460000033,394.77438490000077,394.77417052000027,0.3050548000001072,395.22590460000083,395.22590460000083,n,0.8495133999995232,398.69489110000086,398.69489110000086,16,2.532,,,,,sub-057,80,130,700,bloc_loop.csv,2023-10-05_08h57.51.897,PainUncertainty,2022.2.5,144.71319292466538,
grave,forte,stimuli/330Hz,stimuli/forte,bloc_1,prob20hthp_12trials.xlsx,4,48,20,80,0,,,,,0,0,0,0,2,8,32,2,,,,,,,,3.9,398.69489110000086,402.5948474000006,402.59454562000036,0.3049177000002601,403.0462455000006,403.0462455000006,m,0.9529563999994934,406.90982860000076,406.90982860000076,67,2.845,,,,,sub-057,80,130,700,bloc_loop.csv,2023-10-05_08h57.51.897,PainUncertainty,2022.2.5,144.71319292466538,
grave,forte,stimuli/330Hz,stimuli/forte,bloc_1,prob20hthp_12trials.xlsx,4,48,20,80,0,,,,,0,0,0,0,2,9,33,4,,,,,,,,3.6,406.90982860000076,410.5130858000002,410.51268452000085,0.3046963999995569,410.95674040000085,410.95674040000085,m,0.9144812999993519,414.60087140000087,414.60087140000087,56,2.65,,,,,sub-057,80,130,700,bloc_loop.csv,2023-10-05_08h57.51.897,PainUncertainty,2022.2.5,144.71319292466538,
grave,moderee,stimuli/330Hz,stimuli/moderee,bloc_1,prob20hthp_12trials.xlsx,4,48,20,80,0,,,,,0,0,0,0,2,10,34,5,,,,,,,,3.9,414.60087140000087,418.5069910000002,418.50649592000053,0.30510969999977533,418.95084120000047,418.95084120000047,n,0.9712077999993198,423.0887425000001,423.0887425000001,19,3.101,,,,,sub-057,80,130,700,bloc_loop.csv,2023-10-05_08h57.51.897,PainUncertainty,2022.2.5,144.71319292466538,
grave,forte,stimuli/330Hz,stimuli/forte,bloc_1,prob20hthp_12trials.xlsx,4,48,20,80,0,,,,,0,0,0,0,2,11,35,3,,,,,,,,3.3,423.0887425000001,426.38945090000016,426.3894485200005,0.30451739999989513,426.8338435000005,426.8338435000005,m,0.7550819999996747,430.8267257000007,430.8267257000007,63,3.164,,,,,sub-057,80,130,700,bloc_loop.csv,2023-10-05_08h57.51.897,PainUncertainty,2022.2.5,144.71319292466538,
aigu,moderee,stimuli/660Hz,stimuli/moderee,bloc_1,prob20hthp_12trials.xlsx,4,48,20,80,0,,,,,0,0,0,0,3,0,36,10,,,,,,,,3.1,430.8267257000007,433.93196610000086,433.93168992,0.30520549999982904,434.37646290000066,434.37646290000066,n,0.8527474999991682,438.75509540000076,438.75509540000076,8,3.477,,,,,sub-057,80,130,700,bloc_loop.csv,2023-10-05_08h57.51.897,PainUncertainty,2022.2.5,144.71319292466538,
grave,moderee,stimuli/330Hz,stimuli/moderee,bloc_1,prob20hthp_12trials.xlsx,4,48,20,80,0,,,,,0,0,0,0,3,1,37,5,,,,,,,,3.1,438.75509540000076,441.8565154000007,441.85628422000053,0.30495390000032785,442.3007411000008,442.3007411000008,n,1.1790283999998792,446.5423152000003,446.5423152000003,10,2.983,,,,,sub-057,80,130,700,bloc_loop.csv,2023-10-05_08h57.51.897,PainUncertainty,2022.2.5,144.71319292466538,
grave,forte,stimuli/330Hz,stimuli/forte,bloc_1,prob20hthp_12trials.xlsx,4,48,20,80,0,,,,,0,0,0,0,3,2,38,2,,,,,,,,4.7,446.5423152000003,451.2468793000007,451.24680852000046,0.30482320000010077,451.6909194,451.6909194,m,0.8194776000000275,454.15076900000076,454.15076900000076,48,1.572,,,,,sub-057,80,130,700,bloc_loop.csv,2023-10-05_08h57.51.897,PainUncertainty,2022.2.5,144.71319292466538,
aigu,moderee,stimuli/660Hz,stimuli/moderee,bloc_1,prob20hthp_12trials.xlsx,4,48,20,80,0,,,,,0,0,0,0,3,3,39,8,,,,,,,,3.5,454.15076900000076,457.65021010000055,457.6499943200003,0.3052318000000014,458.09964990000026,458.09964990000026,n,0.6807624999992186,462.0163018000003,462.0163018000003,5,3.164,,,,,sub-057,80,130,700,bloc_loop.csv,2023-10-05_08h57.51.897,PainUncertainty,2022.2.5,144.71319292466538,
grave,forte,stimuli/330Hz,stimuli/forte,bloc_1,prob20hthp_12trials.xlsx,4,48,20,80,0,,,,,0,0,0,0,3,4,40,4,,,,,,,,3.2,462.0163018000003,465.2206597000004,465.2203016200007,0.30502310000065336,465.6652042000005,465.6652042000005,m,0.9638176999997086,469.5303577000004,469.5303577000004,57,2.838,,,,,sub-057,80,130,700,bloc_loop.csv,2023-10-05_08h57.51.897,PainUncertainty,2022.2.5,144.71319292466538,
grave,forte,stimuli/330Hz,stimuli/forte,bloc_1,prob20hthp_12trials.xlsx,4,48,20,80,0,,,,,0,0,0,0,3,5,41,0,,,,,,,,4.9,469.5303577000004,474.42999730000065,474.4296931200003,0.30511090000072727,474.8742499,474.8742499,m,0.8539089999994758,479.01031690000036,479.01031690000036,68,3.211,,,,,sub-057,80,130,700,bloc_loop.csv,2023-10-05_08h57.51.897,PainUncertainty,2022.2.5,144.71319292466538,
aigu,moderee,stimuli/660Hz,stimuli/moderee,bloc_1,prob20hthp_12trials.xlsx,4,48,20,80,0,,,,,0,0,0,0,3,6,42,6,,,,,,,,3.5,479.01031690000036,482.5142885000005,482.51391762000065,0.30515030000060506,482.95847650000087,482.95847650000087,n,0.7479598999989321,485.1680193000002,485.1680193000002,10,1.387,,,,,sub-057,80,130,700,bloc_loop.csv,2023-10-05_08h57.51.897,PainUncertainty,2022.2.5,144.71319292466538,
grave,forte,stimuli/330Hz,stimuli/forte,bloc_1,prob20hthp_12trials.xlsx,4,48,20,80,0,,,,,0,0,0,0,3,7,43,3,,,,,,,,3.7,485.1680193000002,488.8693718000004,488.8688789200002,0.30524270000023535,489.3133604000004,489.3133604000004,None,,495.8476208000002,495.8476208000002,17,4.011,491.78173550000065,491.78173550000065,,,sub-057,80,130,700,bloc_loop.csv,2023-10-05_08h57.51.897,PainUncertainty,2022.2.5,144.71319292466538,
aigu,moderee,stimuli/660Hz,stimuli/moderee,bloc_1,prob20hthp_12trials.xlsx,4,48,20,80,0,,,,,0,0,0,0,3,8,44,9,,,,,,,,3.3,495.8476208000002,499.1487754000009,499.14832602000087,0.3051876999998058,499.5945599000006,499.5945599000006,n,0.7466336999996201,503.2797418,503.2797418,1,2.871,,,,,sub-057,80,130,700,bloc_loop.csv,2023-10-05_08h57.51.897,PainUncertainty,2022.2.5,144.71319292466538,
aigu,forte,stimuli/660Hz,stimuli/forte,bloc_1,prob20hthp_12trials.xlsx,4,48,20,80,0,,,,,0,0,0,0,3,9,45,11,,,,,,,,3.7,503.2797418,506.98256650000076,506.98250292000074,0.3025811999996222,507.4290925000005,507.4290925000005,n,1.2789963999994143,512.1541541000006,512.1541541000006,15,3.386,,,,,sub-057,80,130,700,bloc_loop.csv,2023-10-05_08h57.51.897,PainUncertainty,2022.2.5,144.71319292466538,
grave,forte,stimuli/330Hz,stimuli/forte,bloc_1,prob20hthp_12trials.xlsx,4,48,20,80,0,,,,,0,0,0,0,3,10,46,1,,,,,,,,4.8,512.1541541000006,516.9566912,516.9560323200001,0.3005913999995755,517.4005828000008,517.4005828000008,m,1.1421308999997564,520.9949299,520.9949299,43,2.372,,,,,sub-057,80,130,700,bloc_loop.csv,2023-10-05_08h57.51.897,PainUncertainty,2022.2.5,144.71319292466538,
aigu,moderee,stimuli/660Hz,stimuli/moderee,bloc_1,prob20hthp_12trials.xlsx,4,48,20,80,0,,,,,0,0,0,0,3,11,47,7,,,,,,,,3.9,520.9949299,524.8947880000005,524.8946787200009,0.30442849999963073,525.3390813000005,525.3390813000005,n,0.7285280999994939,528.2679381000007,528.2679381000007,9,2.125,,,,,sub-057,80,130,700,bloc_loop.csv,2023-10-05_08h57.51.897,PainUncertainty,2022.2.5,144.71319292466538,
aigu,forte,stimuli/660Hz,stimuli/forte,bloc_2,prob50_50_4trials.xlsx,2,8,50,50,1,,,,,0,1,1,1,0,0,0,3,,,,,,,,4,528.2679381000007,532.2703825000008,532.2700800200007,0.3049745999996958,532.7145722000005,532.7145722000005,m,1.3832738999990397,536.4372721000009,536.4372721000009,58,2.267,,,,,sub-057,80,130,700,bloc_loop.csv,2023-10-05_08h57.51.897,PainUncertainty,2022.2.5,144.71319292466538,
aigu,moderee,stimuli/660Hz,stimuli/moderee,bloc_2,prob50_50_4trials.xlsx,2,8,50,50,1,,,,,0,1,1,1,0,1,1,2,,,,,,,,3.1,536.4372721000009,539.5419591,539.5418564200006,0.30519360000016604,539.9865838000005,539.9865838000005,n,0.7687149000003046,542.9299879,542.9299879,4,2.107,,,,,sub-057,80,130,700,bloc_loop.csv,2023-10-05_08h57.51.897,PainUncertainty,2022.2.5,144.71319292466538,
grave,moderee,stimuli/330Hz,stimuli/moderee,bloc_2,prob50_50_4trials.xlsx,2,8,50,50,1,,,,,0,1,1,1,0,2,2,0,,,,,,,,4.7,542.9299879,547.6332346000008,547.63293752,0.2990214000001288,548.0713062000004,548.0713062000004,n,1.1218760000001566,552.4253186000005,552.4253186000005,11,3.15,,,,,sub-057,80,130,700,bloc_loop.csv,2023-10-05_08h57.51.897,PainUncertainty,2022.2.5,144.71319292466538,
grave,forte,stimuli/330Hz,stimuli/forte,bloc_2,prob50_50_4trials.xlsx,2,8,50,50,1,,,,,0,1,1,1,0,3,3,1,,,,,,,,4.5,552.4253186000005,556.9264150000008,556.9262906200008,0.29923839999992197,557.3688981000005,557.3688981000005,m,0.7020485999992161,560.7211381000006,560.7211381000006,56,2.602,,,,,sub-057,80,130,700,bloc_loop.csv,2023-10-05_08h57.51.897,PainUncertainty,2022.2.5,144.71319292466538,
grave,forte,stimuli/330Hz,stimuli/forte,bloc_2,prob50_50_4trials.xlsx,2,8,50,50,1,,,,,0,1,1,1,1,0,4,1,,,,,,,,4.3,560.7211381000006,565.0242098000008,565.0238776200001,0.3050604999998541,565.4757333000007,565.4757333000007,m,0.7583909999993921,568.9562559000005,568.9562559000005,68,2.652,,,,,sub-057,80,130,700,bloc_loop.csv,2023-10-05_08h57.51.897,PainUncertainty,2022.2.5,144.71319292466538,
grave,moderee,stimuli/330Hz,stimuli/moderee,bloc_2,prob50_50_4trials.xlsx,2,8,50,50,1,,,,,0,1,1,1,1,1,5,0,,,,,,,,3.6,568.9562559000005,572.5598564000002,572.5596408200006,0.30513299999984156,573.0043097000007,573.0043097000007,n,0.6705060999993293,576.4526766000008,576.4526766000008,15,2.714,,,,,sub-057,80,130,700,bloc_loop.csv,2023-10-05_08h57.51.897,PainUncertainty,2022.2.5,144.71319292466538,
aigu,moderee,stimuli/660Hz,stimuli/moderee,bloc_2,prob50_50_4trials.xlsx,2,8,50,50,1,,,,,0,1,1,1,1,2,6,2,,,,,,,,4.4,576.4526766000008,580.8527945000005,580.8525750200004,0.30517760000020644,581.3006725000005,581.3006725000005,n,0.9124897999990935,584.3184899000007,584.3184899000007,18,2.028,,,,,sub-057,80,130,700,bloc_loop.csv,2023-10-05_08h57.51.897,PainUncertainty,2022.2.5,144.71319292466538,
aigu,forte,stimuli/660Hz,stimuli/forte,bloc_2,prob50_50_4trials.xlsx,2,8,50,50,1,,,,,0,1,1,1,1,3,7,3,,,,,,,,4.1,584.3184899000007,588.4228712000004,588.4225504200001,0.3050159000003987,588.8671854000004,588.8671854000004,m,0.8537617999991198,594.0888796000008,594.0888796000008,59,2.336,,,,,sub-057,80,130,700,bloc_loop.csv,2023-10-05_08h57.51.897,PainUncertainty,2022.2.5,144.71319292466538,
,,,,bloc_2,prob50_50_4trials.xlsx,2,8,50,50,1,,,,,0,1,1,1,,,,,0,0,0,0,,,,,,,,,,,,,,,,,,,594.0888796000008,626.9412874000009,sub-057,80,130,700,bloc_loop.csv,2023-10-05_08h57.51.897,PainUncertainty,2022.2.5,144.71319292466538,
grave,moderee,stimuli/330Hz,stimuli/moderee,bloc_3,prob80hthp_12trials.xlsx,2,24,80,20,0,,,,,0,2,2,2,0,0,0,0,,,,,,,,3.3,627.9480758000009,631.2478071000005,631.2475401200006,0.3048232999999527,631.6918941000004,631.6918941000004,n,0.7751398000000336,633.9428468000006,633.9428468000006,10,1.393,,,,,sub-057,80,130,700,bloc_loop.csv,2023-10-05_08h57.51.897,PainUncertainty,2022.2.5,144.71319292466538,
grave,forte,stimuli/330Hz,stimuli/forte,bloc_3,prob80hthp_12trials.xlsx,2,24,80,20,0,,,,,0,2,2,2,0,1,1,5,,,,,,,,3.9,633.9428468000006,637.8454667000005,637.8451906200005,0.3048828999999387,638.2896581000005,638.2896581000005,m,1.1730024999997113,641.3120922000007,641.3120922000007,30,1.774,,,,,sub-057,80,130,700,bloc_loop.csv,2023-10-05_08h57.51.897,PainUncertainty,2022.2.5,144.71319292466538,
grave,moderee,stimuli/330Hz,stimuli/moderee,bloc_3,prob80hthp_12trials.xlsx,2,24,80,20,0,,,,,0,2,2,2,0,2,2,1,,,,,,,,4.6,641.3120922000007,645.9161514000007,645.9159518200001,0.3060693999996147,646.3647643000004,646.3647643000004,n,0.9581905999993978,649.9924985000007,649.9924985000007,9,2.6,,,,,sub-057,80,130,700,bloc_loop.csv,2023-10-05_08h57.51.897,PainUncertainty,2022.2.5,144.71319292466538,
aigu,forte,stimuli/660Hz,stimuli/forte,bloc_3,prob80hthp_12trials.xlsx,2,24,80,20,0,,,,,0,2,2,2,0,3,3,8,,,,,,,,4.8,649.9924985000007,654.7918814000004,654.7916873200008,0.3051707000004171,655.2399926000007,655.2399926000007,m,1.4000390999999581,658.9444519000008,658.9444519000008,44,2.246,,,,,sub-057,80,130,700,bloc_loop.csv,2023-10-05_08h57.51.897,PainUncertainty,2022.2.5,144.71319292466538,
aigu,forte,stimuli/660Hz,stimuli/forte,bloc_3,prob80hthp_12trials.xlsx,2,24,80,20,0,,,,,0,2,2,2,0,4,4,6,,,,,,,,4.1,658.9444519000008,663.0432676,663.0434694200001,0.30131970000002184,663.4873726000005,663.4873726000005,m,0.845356099998753,666.9237621000002,666.9237621000002,50,2.509,,,,,sub-057,80,130,700,bloc_loop.csv,2023-10-05_08h57.51.897,PainUncertainty,2022.2.5,144.71319292466538,
aigu,moderee,stimuli/660Hz,stimuli/moderee,bloc_3,prob80hthp_12trials.xlsx,2,24,80,20,0,,,,,0,2,2,2,0,5,5,11,,,,,,,,4.2,666.9237621000002,671.1271121000009,671.1268141200005,0.30542249999962223,671.5719735000002,671.5719735000002,n,0.8647034999994503,675.4453428000006,675.4453428000006,3,2.935,,,,,sub-057,80,130,700,bloc_loop.csv,2023-10-05_08h57.51.897,PainUncertainty,2022.2.5,144.71319292466538,
aigu,forte,stimuli/660Hz,stimuli/forte,bloc_3,prob80hthp_12trials.xlsx,2,24,80,20,0,,,,,0,2,2,2,0,6,6,9,,,,,,,,4,675.4453428000006,679.4476930000001,679.4476472200001,0.3045599000006405,679.8924373,679.8924373,m,0.9014786999996431,683.2622374000002,683.2622374000002,38,2.393,,,,,sub-057,80,130,700,bloc_loop.csv,2023-10-05_08h57.51.897,PainUncertainty,2022.2.5,144.71319292466538,
grave,moderee,stimuli/330Hz,stimuli/moderee,bloc_3,prob80hthp_12trials.xlsx,2,24,80,20,0,,,,,0,2,2,2,0,7,7,4,,,,,,,,4.9,683.2622374000002,688.1641012,688.1637896200007,0.30495799999971496,688.6084098000001,688.6084098000001,n,0.8345053000002736,691.5913157000005,691.5913157000005,4,2.066,,,,,sub-057,80,130,700,bloc_loop.csv,2023-10-05_08h57.51.897,PainUncertainty,2022.2.5,144.71319292466538,
aigu,forte,stimuli/660Hz,stimuli/forte,bloc_3,prob80hthp_12trials.xlsx,2,24,80,20,0,,,,,0,2,2,2,0,8,8,10,,,,,,,,3.3,691.5913157000005,694.8940415000006,694.8935610200003,0.3052462000005107,695.3410507000008,695.3410507000008,m,0.7982232999993357,699.7637392000006,699.7637392000006,38,3.538,,,,,sub-057,80,130,700,bloc_loop.csv,2023-10-05_08h57.51.897,PainUncertainty,2022.2.5,144.71319292466538,
grave,moderee,stimuli/330Hz,stimuli/moderee,bloc_3,prob80hthp_12trials.xlsx,2,24,80,20,0,,,,,0,2,2,2,0,9,9,2,,,,,,,,4.2,699.7637392000006,703.9650745000008,703.9647713200009,0.3017492000008133,704.4097727000008,704.4097727000008,n,0.7105443999998897,708.7603910000007,708.7603910000007,4,3.573,,,,,sub-057,80,130,700,bloc_loop.csv,2023-10-05_08h57.51.897,PainUncertainty,2022.2.5,144.71319292466538,
grave,moderee,stimuli/330Hz,stimuli/moderee,bloc_3,prob80hthp_12trials.xlsx,2,24,80,20,0,,,,,0,2,2,2,0,10,10,3,,,,,,,,3.6,708.7603910000007,712.3611827000004,712.36098302,0.30526020000070275,712.8126723000005,712.8126723000005,n,1.2029337999993004,715.6190694000006,715.6190694000006,10,1.532,,,,,sub-057,80,130,700,bloc_loop.csv,2023-10-05_08h57.51.897,PainUncertainty,2022.2.5,144.71319292466538,
aigu,forte,stimuli/660Hz,stimuli/forte,bloc_3,prob80hthp_12trials.xlsx,2,24,80,20,0,,,,,0,2,2,2,0,11,11,7,,,,,,,,4.9,715.6190694000006,720.5219236000003,720.5216435200007,0.30513340000015887,720.9696888000008,720.9696888000008,m,1.0005483999993885,724.6514810000008,724.6514810000008,39,2.621,,,,,sub-057,80,130,700,bloc_loop.csv,2023-10-05_08h57.51.897,PainUncertainty,2022.2.5,144.71319292466538,
grave,forte,stimuli/330Hz,stimuli/forte,bloc_3,prob80hthp_12trials.xlsx,2,24,80,20,0,,,,,0,2,2,2,1,0,12,5,,,,,,,,3.5,724.6514810000008,728.1546673000003,728.1546549200009,0.30039789999955246,728.5997274000001,728.5997274000001,m,0.9769104999995761,732.0862443000005,732.0862443000005,32,2.443,,,,,sub-057,80,130,700,bloc_loop.csv,2023-10-05_08h57.51.897,PainUncertainty,2022.2.5,144.71319292466538,
aigu,moderee,stimuli/660Hz,stimuli/moderee,bloc_3,prob80hthp_12trials.xlsx,2,24,80,20,0,,,,,0,2,2,2,1,1,13,11,,,,,,,,3.9,732.0862443000005,735.9889883000005,735.9886905200008,0.30575450000014825,736.4377246000004,736.4377246000004,n,0.8791104000001724,739.1365852000008,739.1365852000008,10,1.761,,,,,sub-057,80,130,700,bloc_loop.csv,2023-10-05_08h57.51.897,PainUncertainty,2022.2.5,144.71319292466538,
grave,moderee,stimuli/330Hz,stimuli/moderee,bloc_3,prob80hthp_12trials.xlsx,2,24,80,20,0,,,,,0,2,2,2,1,2,14,4,,,,,,,,4.5,739.1365852000008,743.6362398000001,743.6370330200004,0.3009124000000156,744.0803885000005,744.0803885000005,n,0.8703097999996317,747.6897802000003,747.6897802000003,3,2.672,,,,,sub-057,80,130,700,bloc_loop.csv,2023-10-05_08h57.51.897,PainUncertainty,2022.2.5,144.71319292466538,
grave,moderee,stimuli/330Hz,stimuli/moderee,bloc_3,prob80hthp_12trials.xlsx,2,24,80,20,0,,,,,0,2,2,2,1,3,15,0,,,,,,,,4.5,747.6897802000003,752.1923412000006,752.1920619200007,0.3054629999996905,752.6371637000002,752.6371637000002,n,0.8582850999991933,757.5383106000008,757.5383106000008,3,3.982,,,,,sub-057,80,130,700,bloc_loop.csv,2023-10-05_08h57.51.897,PainUncertainty,2022.2.5,144.71319292466538,
grave,moderee,stimuli/330Hz,stimuli/moderee,bloc_3,prob80hthp_12trials.xlsx,2,24,80,20,0,,,,,0,2,2,2,1,4,16,2,,,,,,,,4.2,757.5383106000008,761.7421456000002,761.7418873200002,0.30528570000024047,762.1864334000002,762.1864334000002,n,0.8723104999990028,766.1880561000007,766.1880561000007,6,3.053,,,,,sub-057,80,130,700,bloc_loop.csv,2023-10-05_08h57.51.897,PainUncertainty,2022.2.5,144.71319292466538,
aigu,forte,stimuli/660Hz,stimuli/forte,bloc_3,prob80hthp_12trials.xlsx,2,24,80,20,0,,,,,0,2,2,2,1,5,17,10,,,,,,,,4.3,766.1880561000007,770.4950195000001,770.4932643200007,0.30172249999941414,770.9387418000006,770.9387418000006,m,0.7672829999992246,773.6527685000001,773.6527685000001,34,1.893,,,,,sub-057,80,130,700,bloc_loop.csv,2023-10-05_08h57.51.897,PainUncertainty,2022.2.5,144.71319292466538,
aigu,forte,stimuli/660Hz,stimuli/forte,bloc_3,prob80hthp_12trials.xlsx,2,24,80,20,0,,,,,0,2,2,2,1,6,18,6,,,,,,,,3.4,773.6527685000001,777.0563578000001,777.0561415200007,0.30511829999977635,777.5012548000004,777.5012548000004,m,0.9076986999998553,780.6878091000008,780.6878091000008,42,2.204,,,,,sub-057,80,130,700,bloc_loop.csv,2023-10-05_08h57.51.897,PainUncertainty,2022.2.5,144.71319292466538,
grave,moderee,stimuli/330Hz,stimuli/moderee,bloc_3,prob80hthp_12trials.xlsx,2,24,80,20,0,,,,,0,2,2,2,1,7,19,3,,,,,,,,4.3,780.6878091000008,784.9878254000005,784.9876145200003,0.30514119999952527,785.4321892000007,785.4321892000007,n,0.6336900999995123,790.2967499000006,790.2967499000006,3,4.15,,,,,sub-057,80,130,700,bloc_loop.csv,2023-10-05_08h57.51.897,PainUncertainty,2022.2.5,144.71319292466538,
aigu,forte,stimuli/660Hz,stimuli/forte,bloc_3,prob80hthp_12trials.xlsx,2,24,80,20,0,,,,,0,2,2,2,1,8,20,7,,,,,,,,4.8,790.2967499000006,795.1002244000001,795.0999210200005,0.3048404999999548,795.5446576000004,795.5446576000004,n,1.1477116999994905,800.3195085000007,800.3195085000007,10,3.56,,,,,sub-057,80,130,700,bloc_loop.csv,2023-10-05_08h57.51.897,PainUncertainty,2022.2.5,144.71319292466538,
aigu,forte,stimuli/660Hz,stimuli/forte,bloc_3,prob80hthp_12trials.xlsx,2,24,80,20,0,,,,,0,2,2,2,1,9,21,8,,,,,,,,4.2,800.3195085000007,804.524934,804.5247056200003,0.3012220000000525,804.9697915000006,804.9697915000006,m,1.0503165999989506,809.1765678000002,809.1765678000002,37,3.074,,,,,sub-057,80,130,700,bloc_loop.csv,2023-10-05_08h57.51.897,PainUncertainty,2022.2.5,144.71319292466538,
grave,moderee,stimuli/330Hz,stimuli/moderee,bloc_3,prob80hthp_12trials.xlsx,2,24,80,20,0,,,,,0,2,2,2,1,10,22,1,,,,,,,,3.5,809.1765678000002,812.6804213000005,812.6788872200002,0.30512739999994665,813.1279789,813.1279789,n,0.8793043999994552,816.8976079000004,816.8976079000004,1,2.815,,,,,sub-057,80,130,700,bloc_loop.csv,2023-10-05_08h57.51.897,PainUncertainty,2022.2.5,144.71319292466538,
aigu,forte,stimuli/660Hz,stimuli/forte,bloc_3,prob80hthp_12trials.xlsx,2,24,80,20,0,,,,,0,2,2,2,1,11,23,9,,,,,,,,3.6,816.8976079000004,820.4993344000004,820.4991529200004,0.3048453999999765,820.9435083000008,820.9435083000008,m,1.4014808999991146,825.1485053000006,825.1485053000006,27,2.733,,,,,sub-057,80,130,700,bloc_loop.csv,2023-10-05_08h57.51.897,PainUncertainty,2022.2.5,144.71319292466538,
grave,forte,stimuli/330Hz,stimuli/forte,bloc_4,prob50_50_4trials.xlsx,2,8,50,50,1,,,,,0,3,3,3,0,0,0,1,,,,,,,,4.2,825.1485053000006,829.3555107000002,829.3543966200002,0.3002669999996215,829.7988180000002,829.7988180000002,m,1.319352099999378,833.9072668000008,833.9072668000008,31,2.733,,,,,sub-057,80,130,700,bloc_loop.csv,2023-10-05_08h57.51.897,PainUncertainty,2022.2.5,144.71319292466538,
aigu,forte,stimuli/660Hz,stimuli/forte,bloc_4,prob50_50_4trials.xlsx,2,8,50,50,1,,,,,0,3,3,3,0,1,1,3,,,,,,,,4.5,833.9072668000008,838.4108928000005,838.4107203200008,0.3049754000003304,838.8553333,838.8553333,m,1.082903699999406,842.5555787000003,842.5555787000003,50,2.553,,,,,sub-057,80,130,700,bloc_loop.csv,2023-10-05_08h57.51.897,PainUncertainty,2022.2.5,144.71319292466538,
aigu,moderee,stimuli/660Hz,stimuli/moderee,bloc_4,prob50_50_4trials.xlsx,2,8,50,50,1,,,,,0,3,3,3,0,2,2,2,,,,,,,,4.6,842.5555787000003,847.1550537000003,847.1547042200007,0.30504019999989396,847.5991548000002,847.5991548000002,n,0.843950099999347,850.7089784000009,850.7089784000009,5,2.205,,,,,sub-057,80,130,700,bloc_loop.csv,2023-10-05_08h57.51.897,PainUncertainty,2022.2.5,144.71319292466538,
grave,moderee,stimuli/330Hz,stimuli/moderee,bloc_4,prob50_50_4trials.xlsx,2,8,50,50,1,,,,,0,3,3,3,0,3,3,0,,,,,,,,3.8,850.7089784000009,854.5102226000008,854.5100519200003,0.30473410000013246,854.9543712000004,854.9543712000004,n,0.7314612000000125,858.3030588000001,858.3030588000001,7,2.559,,,,,sub-057,80,130,700,bloc_loop.csv,2023-10-05_08h57.51.897,PainUncertainty,2022.2.5,144.71319292466538,
aigu,moderee,stimuli/660Hz,stimuli/moderee,bloc_4,prob50_50_4trials.xlsx,2,8,50,50,1,,,,,0,3,3,3,1,0,4,2,,,,,,,,3.2,858.3030588000001,861.5047772000007,861.5039229200008,0.3048882999992202,861.9480073000004,861.9480073000004,n,0.611872499999663,865.4021775000001,865.4021775000001,0,2.788,,,,,sub-057,80,130,700,bloc_loop.csv,2023-10-05_08h57.51.897,PainUncertainty,2022.2.5,144.71319292466538,
grave,moderee,stimuli/330Hz,stimuli/moderee,bloc_4,prob50_50_4trials.xlsx,2,8,50,50,1,,,,,0,3,3,3,1,1,5,0,,,,,,,,4.2,865.4021775000001,869.6021743000001,869.6019015200006,0.3047928000005413,870.0499888000004,870.0499888000004,n,0.8221768999992491,873.0922881000006,873.0922881000006,7,2.143,,,,,sub-057,80,130,700,bloc_loop.csv,2023-10-05_08h57.51.897,PainUncertainty,2022.2.5,144.71319292466538,
aigu,forte,stimuli/660Hz,stimuli/forte,bloc_4,prob50_50_4trials.xlsx,2,8,50,50,1,,,,,0,3,3,3,1,2,6,3,,,,,,,,3.8,873.0922881000006,876.8945921000004,876.8943389200001,0.305120199999692,877.3390517000007,877.3390517000007,m,1.9105393999998341,881.8842269000006,881.8842269000006,22,2.574,,,,,sub-057,80,130,700,bloc_loop.csv,2023-10-05_08h57.51.897,PainUncertainty,2022.2.5,144.71319292466538,
grave,forte,stimuli/330Hz,stimuli/forte,bloc_4,prob50_50_4trials.xlsx,2,8,50,50,1,,,,,0,3,3,3,1,3,7,1,,,,,,,,3,881.8842269000006,884.8886451000008,884.8883334200007,0.30536060000031284,885.3330714000003,885.3330714000003,m,1.4640221999998175,891.0901775000002,891.0901775000002,35,2.261,,,,,sub-057,80,130,700,bloc_loop.csv,2023-10-05_08h57.51.897,PainUncertainty,2022.2.5,144.71319292466538,
,,,,bloc_4,prob50_50_4trials.xlsx,2,8,50,50,1,,,,,0,3,3,3,,,,,0,0,0,0,,,,,,,,,,,,,,,,,,,891.0901775000002,919.9207245000007,sub-057,80,130,700,bloc_loop.csv,2023-10-05_08h57.51.897,PainUncertainty,2022.2.5,144.71319292466538,
aigu,forte,stimuli/660Hz,stimuli/forte,bloc_5,prob20hthp_12trials.xlsx,2,24,20,80,0,,,,,0,4,4,4,0,0,0,11,,,,,,,,4,921.6942497,925.6990960000003,925.6988723200009,0.3049952999999732,926.1506280000003,926.1506280000003,n,1.0481250999991971,930.2627392000004,930.2627392000004,12,2.996,,,,,sub-057,80,130,700,bloc_loop.csv,2023-10-05_08h57.51.897,PainUncertainty,2022.2.5,144.71319292466538,
aigu,moderee,stimuli/660Hz,stimuli/moderee,bloc_5,prob20hthp_12trials.xlsx,2,24,20,80,0,,,,,0,4,4,4,0,1,1,6,,,,,,,,3.3,930.2627392000004,933.5680415000006,933.5678193200008,0.3051420000001599,934.0123793000002,934.0123793000002,n,0.7731272999990324,936.8028207000007,936.8028207000007,3,1.939,,,,,sub-057,80,130,700,bloc_loop.csv,2023-10-05_08h57.51.897,PainUncertainty,2022.2.5,144.71319292466538,
grave,forte,stimuli/330Hz,stimuli/forte,bloc_5,prob20hthp_12trials.xlsx,2,24,20,80,0,,,,,0,4,4,4,0,2,2,0,,,,,,,,4.5,936.8028207000007,941.3052458000002,941.3049378200001,0.3001465000006647,941.7499294000008,941.7499294000008,m,0.7935730999997759,945.4970785000005,945.4970785000005,25,2.894,,,,,sub-057,80,130,700,bloc_loop.csv,2023-10-05_08h57.51.897,PainUncertainty,2022.2.5,144.71319292466538,
grave,forte,stimuli/330Hz,stimuli/forte,bloc_5,prob20hthp_12trials.xlsx,2,24,20,80,0,,,,,0,4,4,4,0,3,3,1,,,,,,,,3.1,945.4970785000005,948.5976602000001,948.5974144200006,0.30464670000037586,949.0417773000008,949.0417773000008,m,1.160144699999364,952.8058953000009,952.8058953000009,37,2.538,,,,,sub-057,80,130,700,bloc_loop.csv,2023-10-05_08h57.51.897,PainUncertainty,2022.2.5,144.71319292466538,
aigu,moderee,stimuli/660Hz,stimuli/moderee,bloc_5,prob20hthp_12trials.xlsx,2,24,20,80,0,,,,,0,4,4,4,0,4,4,10,,,,,,,,3.8,952.8058953000009,956.6054897000004,956.6053705200009,0.30486519999976736,957.0534614000007,957.0534614000007,n,0.9269644999994853,960.4773280000009,960.4773280000009,18,2.441,,,,,sub-057,80,130,700,bloc_loop.csv,2023-10-05_08h57.51.897,PainUncertainty,2022.2.5,144.71319292466538,
aigu,moderee,stimuli/660Hz,stimuli/moderee,bloc_5,prob20hthp_12trials.xlsx,2,24,20,80,0,,,,,0,4,4,4,0,5,5,7,,,,,,,,3.2,960.4773280000009,963.6827353000008,963.6825791200006,0.30503050000061194,964.1272558000001,964.1272558000001,n,0.5060083999997005,967.8809053000004,967.8809053000004,7,3.171,,,,,sub-057,80,130,700,bloc_loop.csv,2023-10-05_08h57.51.897,PainUncertainty,2022.2.5,144.71319292466538,
grave,forte,stimuli/330Hz,stimuli/forte,bloc_5,prob20hthp_12trials.xlsx,2,24,20,80,0,,,,,0,4,4,4,0,6,6,3,,,,,,,,4.5,967.8809053000004,972.3854114000005,972.38525972,0.3051570999996329,972.8334715000001,972.8334715000001,m,2.118964999999662,977.6498178000002,977.6498178000002,25,2.614,,,,,sub-057,80,130,700,bloc_loop.csv,2023-10-05_08h57.51.897,PainUncertainty,2022.2.5,144.71319292466538,
aigu,moderee,stimuli/660Hz,stimuli/moderee,bloc_5,prob20hthp_12trials.xlsx,2,24,20,80,0,,,,,0,4,4,4,0,7,7,8,,,,,,,,4.5,977.6498178000002,982.1501884000008,982.1499439200004,0.30520069999965926,982.5985244000003,982.5985244000003,n,0.6283709999997882,984.3948119000006,984.3948119000006,10,1.1,,,,,sub-057,80,130,700,bloc_loop.csv,2023-10-05_08h57.51.897,PainUncertainty,2022.2.5,144.71319292466538,
grave,forte,stimuli/330Hz,stimuli/forte,bloc_5,prob20hthp_12trials.xlsx,2,24,20,80,0,,,,,0,4,4,4,0,8,8,4,,,,,,,,4.2,984.3948119000006,988.5953280000003,988.59524252,0.30455150000034337,989.0395478,989.0395478,m,1.553229399999509,993.4428219000001,993.4428219000001,37,2.796,,,,,sub-057,80,130,700,bloc_loop.csv,2023-10-05_08h57.51.897,PainUncertainty,2022.2.5,144.71319292466538,
grave,forte,stimuli/330Hz,stimuli/forte,bloc_5,prob20hthp_12trials.xlsx,2,24,20,80,0,,,,,0,4,4,4,0,9,9,2,,,,,,,,5,993.4428219000001,998.4440889000007,998.4439761200008,0.3046610999999757,998.8880347000004,998.8880347000004,m,0.8269343999991179,1001.9645564000002,1001.9645564000002,35,2.184,,,,,sub-057,80,130,700,bloc_loop.csv,2023-10-05_08h57.51.897,PainUncertainty,2022.2.5,144.71319292466538,
aigu,moderee,stimuli/660Hz,stimuli/moderee,bloc_5,prob20hthp_12trials.xlsx,2,24,20,80,0,,,,,0,4,4,4,0,10,10,9,,,,,,,,3.2,1001.9645564000002,1005.1667865000009,1005.1665639200007,0.30498460000035266,1005.6109867000005,1005.6109867000005,n,0.6673545999992712,1009.3495358,1009.3495358,4,3.017,,,,,sub-057,80,130,700,bloc_loop.csv,2023-10-05_08h57.51.897,PainUncertainty,2022.2.5,144.71319292466538,
grave,moderee,stimuli/330Hz,stimuli/moderee,bloc_5,prob20hthp_12trials.xlsx,2,24,20,80,0,,,,,0,4,4,4,0,11,11,5,,,,,,,,4.3,1009.3495358,1013.6539563000006,1013.6535755200009,0.3049652999998216,1014.0980942000006,1014.0980942000006,n,0.7546020999998291,1017.2662374000001,1017.2662374000001,6,2.331,,,,,sub-057,80,130,700,bloc_loop.csv,2023-10-05_08h57.51.897,PainUncertainty,2022.2.5,144.71319292466538,
grave,forte,stimuli/330Hz,stimuli/forte,bloc_5,prob20hthp_12trials.xlsx,2,24,20,80,0,,,,,0,4,4,4,1,0,12,3,,,,,,,,4.5,1017.2662374000001,1021.7663032,1021.7660622200008,0.3049605000005613,1022.2148965000006,1022.2148965000006,n,1.3352649999997084,1026.6481182000007,1026.6481182000007,14,3.038,,,,,sub-057,80,130,700,bloc_loop.csv,2023-10-05_08h57.51.897,PainUncertainty,2022.2.5,144.71319292466538,
grave,forte,stimuli/330Hz,stimuli/forte,bloc_5,prob20hthp_12trials.xlsx,2,24,20,80,0,,,,,0,4,4,4,1,1,13,0,,,,,,,,3.5,1026.6481182000007,1030.1489818,1030.1485904200006,0.3051478000006682,1030.5930521,1030.5930521,m,0.6995823999995991,1032.9969693000003,1032.9969693000003,30,1.621,,,,,sub-057,80,130,700,bloc_loop.csv,2023-10-05_08h57.51.897,PainUncertainty,2022.2.5,144.71319292466538,
aigu,moderee,stimuli/660Hz,stimuli/moderee,bloc_5,prob20hthp_12trials.xlsx,2,24,20,80,0,,,,,0,4,4,4,1,2,14,6,,,,,,,,4.7,1032.9969693000003,1037.6987200000003,1037.6985507200004,0.3052517000005537,1038.1454673000007,1038.1454673000007,n,1.3592684999994162,1041.7871861000003,1041.7871861000003,14,2.212,,,,,sub-057,80,130,700,bloc_loop.csv,2023-10-05_08h57.51.897,PainUncertainty,2022.2.5,144.71319292466538,
grave,forte,stimuli/330Hz,stimuli/forte,bloc_5,prob20hthp_12trials.xlsx,2,24,20,80,0,,,,,0,4,4,4,1,3,15,2,,,,,,,,4.9,1041.7871861000003,1046.6926391000006,1046.69235722,0.30506400000012945,1047.1369999000008,1047.1369999000008,m,1.0088605000000825,1051.1400940000003,1051.1400940000003,40,2.927,,,,,sub-057,80,130,700,bloc_loop.csv,2023-10-05_08h57.51.897,PainUncertainty,2022.2.5,144.71319292466538,
grave,forte,stimuli/330Hz,stimuli/forte,bloc_5,prob20hthp_12trials.xlsx,2,24,20,80,0,,,,,0,4,4,4,1,4,16,4,,,,,,,,4.1,1051.1400940000003,1055.2423116,1055.2420085200008,0.3053660999994463,1055.6902297000006,1055.6902297000006,m,0.7537473999991562,1058.3837743000004,1058.3837743000004,51,1.865,,,,,sub-057,80,130,700,bloc_loop.csv,2023-10-05_08h57.51.897,PainUncertainty,2022.2.5,144.71319292466538,
aigu,moderee,stimuli/660Hz,stimuli/moderee,bloc_5,prob20hthp_12trials.xlsx,2,24,20,80,0,,,,,0,4,4,4,1,5,17,8,,,,,,,,3.9,1058.3837743000004,1062.2848688000004,1062.2846146200006,0.3010805999992954,1062.7294966000009,1062.7294966000009,n,0.6723990000000413,1066.9344412,1066.9344412,5,3.476,,,,,sub-057,80,130,700,bloc_loop.csv,2023-10-05_08h57.51.897,PainUncertainty,2022.2.5,144.71319292466538,
grave,moderee,stimuli/330Hz,stimuli/moderee,bloc_5,prob20hthp_12trials.xlsx,2,24,20,80,0,,,,,0,4,4,4,1,6,18,5,,,,,,,,4.2,1066.9344412,1071.1334092000006,1071.1345101200002,0.30369919999975536,1071.5817357000005,1071.5817357000005,n,0.7358076999998957,1075.4877407000004,1075.4877407000004,3,3.107,,,,,sub-057,80,130,700,bloc_loop.csv,2023-10-05_08h57.51.897,PainUncertainty,2022.2.5,144.71319292466538,
aigu,moderee,stimuli/660Hz,stimuli/moderee,bloc_5,prob20hthp_12trials.xlsx,2,24,20,80,0,,,,,0,4,4,4,1,7,19,9,,,,,,,,4.8,1075.4877407000004,1080.2936709000005,1080.2934629200006,0.29905259999941336,1080.7318450000002,1080.7318450000002,n,1.1879035999991174,1084.6010234000005,1084.6010234000005,1,2.608,,,,,sub-057,80,130,700,bloc_loop.csv,2023-10-05_08h57.51.897,PainUncertainty,2022.2.5,144.71319292466538,
grave,forte,stimuli/330Hz,stimuli/forte,bloc_5,prob20hthp_12trials.xlsx,2,24,20,80,0,,,,,0,4,4,4,1,8,20,1,,,,,,,,3.7,1084.6010234000005,1088.3017708000007,1088.3014661200002,0.30529829999977665,1088.7466128000005,1088.7466128000005,m,0.8332614999990255,1091.7959134000002,1091.7959134000002,33,2.143,,,,,sub-057,80,130,700,bloc_loop.csv,2023-10-05_08h57.51.897,PainUncertainty,2022.2.5,144.71319292466538,
aigu,moderee,stimuli/660Hz,stimuli/moderee,bloc_5,prob20hthp_12trials.xlsx,2,24,20,80,0,,,,,0,4,4,4,1,9,21,10,,,,,,,,3.7,1091.7959134000002,1095.4972384000002,1095.4969574200002,0.29967779999969935,1095.9412749000003,1095.9412749000003,n,0.8721168999991278,1099.6278738,1099.6278738,9,2.761,,,,,sub-057,80,130,700,bloc_loop.csv,2023-10-05_08h57.51.897,PainUncertainty,2022.2.5,144.71319292466538,
aigu,moderee,stimuli/660Hz,stimuli/moderee,bloc_5,prob20hthp_12trials.xlsx,2,24,20,80,0,,,,,0,4,4,4,1,10,22,7,,,,,,,,3.6,1099.6278738,1103.234281,1103.2339734200002,0.30164590000003955,1103.6792577000006,1103.6792577000006,n,0.8374560999991445,1107.2700981000007,1107.2700981000007,4,2.685,,,,,sub-057,80,130,700,bloc_loop.csv,2023-10-05_08h57.51.897,PainUncertainty,2022.2.5,144.71319292466538,
aigu,forte,stimuli/660Hz,stimuli/forte,bloc_5,prob20hthp_12trials.xlsx,2,24,20,80,0,,,,,0,4,4,4,1,11,23,11,,,,,,,,3.1,1107.2700981000007,1110.3741547000009,1110.3739321200007,0.30469800000082614,1110.8179785000002,1110.8179785000002,m,0.7971538999991026,1114.2574787000003,1114.2574787000003,30,2.589,,,,,sub-057,80,130,700,bloc_loop.csv,2023-10-05_08h57.51.897,PainUncertainty,2022.2.5,144.71319292466538,
aigu,forte,stimuli/660Hz,stimuli/forte,bloc_6,prob50_50_4trials.xlsx,2,8,50,50,0,,,,,0,5,5,5,0,0,0,3,,,,,,,,3,1114.2574787000003,1117.2633917000003,1117.26325582,0.3019082000000708,1117.7083729000005,1117.7083729000005,m,0.7272505999990244,1121.4196602000002,1121.4196602000002,48,2.913,,,,,sub-057,80,130,700,bloc_loop.csv,2023-10-05_08h57.51.897,PainUncertainty,2022.2.5,144.71319292466538,
aigu,moderee,stimuli/660Hz,stimuli/moderee,bloc_6,prob50_50_4trials.xlsx,2,8,50,50,0,,,,,0,5,5,5,0,1,1,2,,,,,,,,5,1121.4196602000002,1126.4242154000003,1126.4240487200002,0.30494629999975587,1126.8685095,1126.8685095,m,1.5249825999999302,1130.0685846000006,1130.0685846000006,23,1.6,,,,,sub-057,80,130,700,bloc_loop.csv,2023-10-05_08h57.51.897,PainUncertainty,2022.2.5,144.71319292466538,
grave,forte,stimuli/330Hz,stimuli/forte,bloc_6,prob50_50_4trials.xlsx,2,8,50,50,0,,,,,0,5,5,5,0,2,2,1,,,,,,,,4,1130.0685846000006,1134.0709899000003,1134.0707670200006,0.30500969999957306,1134.5152552000009,1134.5152552000009,m,0.7630652999996528,1137.4374775000006,1137.4374775000006,58,2.094,,,,,sub-057,80,130,700,bloc_loop.csv,2023-10-05_08h57.51.897,PainUncertainty,2022.2.5,144.71319292466538,
grave,moderee,stimuli/330Hz,stimuli/moderee,bloc_6,prob50_50_4trials.xlsx,2,8,50,50,0,,,,,0,5,5,5,0,3,3,0,,,,,,,,3.3,1137.4374775000006,1140.7388767000002,1140.7386926200004,0.2995412000000215,1141.1831378000006,1141.1831378000006,n,0.7298905999987255,1144.1056138000004,1144.1056138000004,15,2.107,,,,,sub-057,80,130,700,bloc_loop.csv,2023-10-05_08h57.51.897,PainUncertainty,2022.2.5,144.71319292466538,
aigu,forte,stimuli/660Hz,stimuli/forte,bloc_6,prob50_50_4trials.xlsx,2,8,50,50,0,,,,,0,5,5,5,1,0,4,3,,,,,,,,3,1144.1056138000004,1147.1075464000005,1147.10731542,0.30511370000022,1147.5561200000002,1147.5561200000002,m,0.6278018000002703,1150.0848283000005,1150.0848283000005,41,1.837,,,,,sub-057,80,130,700,bloc_loop.csv,2023-10-05_08h57.51.897,PainUncertainty,2022.2.5,144.71319292466538,
grave,forte,stimuli/330Hz,stimuli/forte,bloc_6,prob50_50_4trials.xlsx,2,8,50,50,0,,,,,0,5,5,5,1,1,5,1,,,,,,,,4.5,1150.0848283000005,1154.5872943000004,1154.5870238200002,0.30501120000008086,1155.0315095000005,1155.0315095000005,m,1.1060515999997733,1159.3738178000003,1159.3738178000003,27,2.114,,,,,sub-057,80,130,700,bloc_loop.csv,2023-10-05_08h57.51.897,PainUncertainty,2022.2.5,144.71319292466538,
aigu,moderee,stimuli/660Hz,stimuli/moderee,bloc_6,prob50_50_4trials.xlsx,2,8,50,50,0,,,,,0,5,5,5,1,2,6,2,,,,,,,,4.5,1159.3738178000003,1163.8733421000006,1163.87354862,0.30438239999966754,1164.3174967000004,1164.3174967000004,n,0.6224810999992769,1168.8355294000003,1168.8355294000003,3,3.844,,,,,sub-057,80,130,700,bloc_loop.csv,2023-10-05_08h57.51.897,PainUncertainty,2022.2.5,144.71319292466538,
grave,moderee,stimuli/330Hz,stimuli/moderee,bloc_6,prob50_50_4trials.xlsx,2,8,50,50,0,,,,,0,5,5,5,1,3,7,0,,,,,,,,3.6,1168.8355294000003,1172.4371246,1172.4369120200006,0.30010370000036346,1172.8816428,1172.8816428,n,1.7040436999996018,1178.1888893000005,1178.1888893000005,0,3.524,,,,,sub-057,80,130,700,bloc_loop.csv,2023-10-05_08h57.51.897,PainUncertainty,2022.2.5,144.71319292466538,
grave,forte,stimuli/330Hz,stimuli/forte,bloc_7,prob80hthp_12trials.xlsx,2,24,80,20,1,,,,,0,6,6,6,0,0,0,5,,,,,,,,4.9,1178.1888893000005,1183.0906911000002,1183.0905332200007,0.3051682000004803,1183.5383843000009,1183.5383843000009,m,0.8208506999990277,1186.2788228000009,1186.2788228000009,24,1.837,,,,,sub-057,80,130,700,bloc_loop.csv,2023-10-05_08h57.51.897,PainUncertainty,2022.2.5,144.71319292466538,
grave,moderee,stimuli/330Hz,stimuli/moderee,bloc_7,prob80hthp_12trials.xlsx,2,24,80,20,1,,,,,0,6,6,6,0,1,1,1,,,,,,,,3.1,1186.2788228000009,1189.3830735000001,1189.38273112,0.3053583000000799,1189.8344863000002,1189.8344863000002,n,0.7305659999992713,1193.0403526,1193.0403526,2,2.399,,,,,sub-057,80,130,700,bloc_loop.csv,2023-10-05_08h57.51.897,PainUncertainty,2022.2.5,144.71319292466538,
aigu,forte,stimuli/660Hz,stimuli/forte,bloc_7,prob80hthp_12trials.xlsx,2,24,80,20,1,,,,,0,6,6,6,0,2,2,9,,,,,,,,3.5,1193.0403526,1196.5436087000007,1196.5433575200002,0.3051446000008582,1196.9878283000007,1196.9878283000007,m,0.9182361000002857,1199.4355061000006,1199.4355061000006,35,1.45,,,,,sub-057,80,130,700,bloc_loop.csv,2023-10-05_08h57.51.897,PainUncertainty,2022.2.5,144.71319292466538,
grave,moderee,stimuli/330Hz,stimuli/moderee,bloc_7,prob80hthp_12trials.xlsx,2,24,80,20,1,,,,,0,6,6,6,0,3,3,0,,,,,,,,4,1199.4355061000006,1203.4402141,1203.44004242,0.3056341000001339,1203.8894908000002,1203.8894908000002,n,0.9480193999988842,1208.2123313000002,1208.2123313000002,10,3.303,,,,,sub-057,80,130,700,bloc_loop.csv,2023-10-05_08h57.51.897,PainUncertainty,2022.2.5,144.71319292466538,
aigu,forte,stimuli/660Hz,stimuli/forte,bloc_7,prob80hthp_12trials.xlsx,2,24,80,20,1,,,,,0,6,6,6,0,4,4,10,,,,,,,,4.2,1208.2123313000002,1212.4138721000008,1212.4139159200001,0.30443279999963124,1212.8581107,1212.8581107,m,0.8464292999997269,1216.7351746000004,1216.7351746000004,35,2.948,,,,,sub-057,80,130,700,bloc_loop.csv,2023-10-05_08h57.51.897,PainUncertainty,2022.2.5,144.71319292466538,
grave,moderee,stimuli/330Hz,stimuli/moderee,bloc_7,prob80hthp_12trials.xlsx,2,24,80,20,1,,,,,0,6,6,6,0,5,5,3,,,,,,,,3.3,1216.7351746000004,1220.0399194000001,1220.0394674200004,0.30507550000038464,1220.4840057000001,1220.4840057000001,n,0.7653599999994185,1223.6725431000004,1223.6725431000004,6,2.364,,,,,sub-057,80,130,700,bloc_loop.csv,2023-10-05_08h57.51.897,PainUncertainty,2022.2.5,144.71319292466538,
grave,moderee,stimuli/330Hz,stimuli/moderee,bloc_7,prob80hthp_12trials.xlsx,2,24,80,20,1,,,,,0,6,6,6,0,6,6,2,,,,,,,,4.6,1223.6725431000004,1228.2765094000006,1228.2763676200009,0.30490869999994175,1228.7207193000004,1228.7207193000004,n,0.8010354999996707,1232.2746555000003,1232.2746555000003,5,2.67,,,,,sub-057,80,130,700,bloc_loop.csv,2023-10-05_08h57.51.897,PainUncertainty,2022.2.5,144.71319292466538,
aigu,forte,stimuli/660Hz,stimuli/forte,bloc_7,prob80hthp_12trials.xlsx,2,24,80,20,1,,,,,0,6,6,6,0,7,7,6,,,,,,,,4.6,1232.2746555000003,1236.8748076000002,1236.87452972,0.30523360000006505,1237.3192488000004,1237.3192488000004,m,1.0013391999991654,1240.2667135000002,1240.2667135000002,37,1.885,,,,,sub-057,80,130,700,bloc_loop.csv,2023-10-05_08h57.51.897,PainUncertainty,2022.2.5,144.71319292466538,
aigu,forte,stimuli/660Hz,stimuli/forte,bloc_7,prob80hthp_12trials.xlsx,2,24,80,20,1,,,,,0,6,6,6,0,8,8,8,,,,,,,,4.1,1240.2667135000002,1244.3690592000003,1244.3688689200005,0.3046249999997599,1244.8132833000009,1244.8132833000009,m,1.2302977999988798,1247.5887830000001,1247.5887830000001,30,1.468,,,,,sub-057,80,130,700,bloc_loop.csv,2023-10-05_08h57.51.897,PainUncertainty,2022.2.5,144.71319292466538,
grave,moderee,stimuli/330Hz,stimuli/moderee,bloc_7,prob80hthp_12trials.xlsx,2,24,80,20,1,,,,,0,6,6,6,0,9,9,4,,,,,,,,3.9,1247.5887830000001,1251.4879801000006,1251.4877958200002,0.30518410000058793,1251.9355272000003,1251.9355272000003,n,0.7079778999996051,1254.8944506000007,1254.8944506000007,12,2.187,,,,,sub-057,80,130,700,bloc_loop.csv,2023-10-05_08h57.51.897,PainUncertainty,2022.2.5,144.71319292466538,
aigu,moderee,stimuli/660Hz,stimuli/moderee,bloc_7,prob80hthp_12trials.xlsx,2,24,80,20,1,,,,,0,6,6,6,0,10,10,11,,,,,,,,3.3,1254.8944506000007,1258.1967875,1258.1965702200002,0.30508889999964595,1258.6447265000006,1258.6447265000006,n,1.4521165999994992,1262.4396260000003,1262.4396260000003,5,2.274,,,,,sub-057,80,130,700,bloc_loop.csv,2023-10-05_08h57.51.897,PainUncertainty,2022.2.5,144.71319292466538,
aigu,forte,stimuli/660Hz,stimuli/forte,bloc_7,prob80hthp_12trials.xlsx,2,24,80,20,1,,,,,0,6,6,6,0,11,11,7,,,,,,,,3.6,1262.4396260000003,1266.0448868000003,1266.0447493200006,0.30469429999993736,1266.4931920000008,1266.4931920000008,m,0.6775529999995342,1270.1613211000004,1270.1613211000004,53,2.935,,,,,sub-057,80,130,700,bloc_loop.csv,2023-10-05_08h57.51.897,PainUncertainty,2022.2.5,144.71319292466538,
grave,forte,stimuli/330Hz,stimuli/forte,bloc_7,prob80hthp_12trials.xlsx,2,24,80,20,1,,,,,0,6,6,6,1,0,12,5,,,,,,,,5,1270.1613211000004,1275.1641198000007,1275.1638562200003,0.30500149999988935,1275.6084305000004,1275.6084305000004,m,0.8591941999993651,1279.2255179000003,1279.2255179000003,46,2.706,,,,,sub-057,80,130,700,bloc_loop.csv,2023-10-05_08h57.51.897,PainUncertainty,2022.2.5,144.71319292466538,
aigu,forte,stimuli/660Hz,stimuli/forte,bloc_7,prob80hthp_12trials.xlsx,2,24,80,20,1,,,,,0,6,6,6,1,1,13,7,,,,,,,,4.7,1279.2255179000003,1283.9290716000005,1283.9287489200003,0.305106099999648,1284.3733052000007,1284.3733052000007,m,0.8415775999992547,1287.9887428000002,1287.9887428000002,47,2.705,,,,,sub-057,80,130,700,bloc_loop.csv,2023-10-05_08h57.51.897,PainUncertainty,2022.2.5,144.71319292466538,
grave,moderee,stimuli/330Hz,stimuli/moderee,bloc_7,prob80hthp_12trials.xlsx,2,24,80,20,1,,,,,0,6,6,6,1,2,14,4,,,,,,,,3.8,1287.9887428000002,1291.7918615000008,1291.7913066200006,0.30501639999965846,1292.2393398000004,1292.2393398000004,n,0.9330515999999989,1295.3727361,1295.3727361,14,2.148,,,,,sub-057,80,130,700,bloc_loop.csv,2023-10-05_08h57.51.897,PainUncertainty,2022.2.5,144.71319292466538,
grave,moderee,stimuli/330Hz,stimuli/moderee,bloc_7,prob80hthp_12trials.xlsx,2,24,80,20,1,,,,,0,6,6,6,1,3,15,0,,,,,,,,4.4,1295.3727361,1299.7793263000003,1299.7781302200008,0.30521369999951276,1300.2261926,1300.2261926,n,0.7801595999999336,1303.9908159000006,1303.9908159000006,3,2.906,,,,,sub-057,80,130,700,bloc_loop.csv,2023-10-05_08h57.51.897,PainUncertainty,2022.2.5,144.71319292466538,
aigu,forte,stimuli/660Hz,stimuli/forte,bloc_7,prob80hthp_12trials.xlsx,2,24,80,20,1,,,,,0,6,6,6,1,4,16,6,,,,,,,,3.3,1303.9908159000006,1307.2930577000006,1307.2926504200002,0.3056616000003487,1307.7420625000004,1307.7420625000004,m,0.6680670999994618,1310.8825531000002,1310.8825531000002,35,2.393,,,,,sub-057,80,130,700,bloc_loop.csv,2023-10-05_08h57.51.897,PainUncertainty,2022.2.5,144.71319292466538,
grave,moderee,stimuli/330Hz,stimuli/moderee,bloc_7,prob80hthp_12trials.xlsx,2,24,80,20,1,,,,,0,6,6,6,1,5,17,3,,,,,,,,3.7,1310.8825531000002,1314.5856685000008,1314.5853890200003,0.30493029999979626,1315.0299598000001,1315.0299598000001,n,1.268850599999496,1319.9452802000005,1319.9452802000005,8,3.586,,,,,sub-057,80,130,700,bloc_loop.csv,2023-10-05_08h57.51.897,PainUncertainty,2022.2.5,144.71319292466538,
grave,moderee,stimuli/330Hz,stimuli/moderee,bloc_7,prob80hthp_12trials.xlsx,2,24,80,20,1,,,,,0,6,6,6,1,6,18,1,,,,,,,,3.7,1319.9452802000005,1323.6489536000008,1323.6488227200005,0.30497449999984383,1324.0931254000006,1324.0931254000006,n,2.0317583999994895,1329.4425146000003,1329.4425146000003,2,3.236,,,,,sub-057,80,130,700,bloc_loop.csv,2023-10-05_08h57.51.897,PainUncertainty,2022.2.5,144.71319292466538,
aigu,forte,stimuli/660Hz,stimuli/forte,bloc_7,prob80hthp_12trials.xlsx,2,24,80,20,1,,,,,0,6,6,6,1,7,19,9,,,,,,,,4.8,1329.4425146000003,1334.2476478000008,1334.2471692200004,0.3051901999997426,1334.6916513000006,1334.6916513000006,m,1.0167675000002419,1338.2358787000003,1338.2358787000003,40,2.456,,,,,sub-057,80,130,700,bloc_loop.csv,2023-10-05_08h57.51.897,PainUncertainty,2022.2.5,144.71319292466538,
aigu,moderee,stimuli/660Hz,stimuli/moderee,bloc_7,prob80hthp_12trials.xlsx,2,24,80,20,1,,,,,0,6,6,6,1,8,20,11,,,,,,,,4.1,1338.2358787000003,1342.3387188000006,1342.3384622200008,0.30505170000014914,1342.7830058000009,1342.7830058000009,n,0.8506808000001911,1346.3904222,1346.3904222,7,2.678,,,,,sub-057,80,130,700,bloc_loop.csv,2023-10-05_08h57.51.897,PainUncertainty,2022.2.5,144.71319292466538,
aigu,forte,stimuli/660Hz,stimuli/forte,bloc_7,prob80hthp_12trials.xlsx,2,24,80,20,1,,,,,0,6,6,6,1,9,21,10,,,,,,,,4.8,1346.3904222,1351.1942282,1351.1938964200006,0.304790299999695,1351.6384042000009,1351.6384042000009,m,0.8897125999992568,1355.0688261000005,1355.0688261000005,33,2.478,,,,,sub-057,80,130,700,bloc_loop.csv,2023-10-05_08h57.51.897,PainUncertainty,2022.2.5,144.71319292466538,
aigu,forte,stimuli/660Hz,stimuli/forte,bloc_7,prob80hthp_12trials.xlsx,2,24,80,20,1,,,,,0,6,6,6,1,10,22,8,,,,,,,,4.8,1355.0688261000005,1359.8684683000001,1359.8682474200002,0.30522190000010596,1360.3167079000004,1360.3167079000004,m,1.4711460999997144,1365.2700590000004,1365.2700590000004,31,3.407,,,,,sub-057,80,130,700,bloc_loop.csv,2023-10-05_08h57.51.897,PainUncertainty,2022.2.5,144.71319292466538,
grave,moderee,stimuli/330Hz,stimuli/moderee,bloc_7,prob80hthp_12trials.xlsx,2,24,80,20,1,,,,,0,6,6,6,1,11,23,2,,,,,,,,3.5,1365.2700590000004,1368.7726987000005,1368.7726246200007,0.3069418000004589,1369.2250929000002,1369.2250929000002,n,0.7079418999992413,1374.4794775,1374.4794775,9,2.51,,,,,sub-057,80,130,700,bloc_loop.csv,2023-10-05_08h57.51.897,PainUncertainty,2022.2.5,144.71319292466538,
,,,,bloc_7,prob80hthp_12trials.xlsx,2,24,80,20,1,,,,,0,6,6,6,,,,,0,0,0,0,,,,,,,,,,,,,,,,,,,1374.4794775,1394.1920095000005,sub-057,80,130,700,bloc_loop.csv,2023-10-05_08h57.51.897,PainUncertainty,2022.2.5,144.71319292466538,
aigu,moderee,stimuli/660Hz,stimuli/moderee,bloc_8,prob50_50_4trials.xlsx,3,12,50,50,0,,,,,0,7,7,7,0,0,0,2,,,,,,,,4.7,1395.3266986000008,1400.0260530000005,1400.0258825200006,0.305125500000031,1400.4704208000003,1400.4704208000003,n,0.6049559000002773,1403.7037900000005,1403.7037900000005,1,2.545,,,,,sub-057,80,130,700,bloc_loop.csv,2023-10-05_08h57.51.897,PainUncertainty,2022.2.5,144.71319292466538,
grave,forte,stimuli/330Hz,stimuli/forte,bloc_8,prob50_50_4trials.xlsx,3,12,50,50,0,,,,,0,7,7,7,0,1,1,1,,,,,,,,4.8,1403.7037900000005,1408.5063702000007,1408.505990720001,0.3052325999997265,1408.9504905000003,1408.9504905000003,m,0.7561819000002288,1412.5126115000003,1412.5126115000003,34,2.752,,,,,sub-057,80,130,700,bloc_loop.csv,2023-10-05_08h57.51.897,PainUncertainty,2022.2.5,144.71319292466538,
aigu,forte,stimuli/660Hz,stimuli/forte,bloc_8,prob50_50_4trials.xlsx,3,12,50,50,0,,,,,0,7,7,7,0,2,2,3,,,,,,,,4.3,1412.5126115000003,1416.8129292000003,1416.8125638200006,0.30521779999980936,1417.2570101000001,1417.2570101000001,m,1.393195999999989,1421.1939973000008,1421.1939973000008,27,2.47,,,,,sub-057,80,130,700,bloc_loop.csv,2023-10-05_08h57.51.897,PainUncertainty,2022.2.5,144.71319292466538,
grave,moderee,stimuli/330Hz,stimuli/moderee,bloc_8,prob50_50_4trials.xlsx,3,12,50,50,0,,,,,0,7,7,7,0,3,3,0,,,,,,,,3.9,1421.1939973000008,1425.0990732,1425.09875342,0.30463140000028943,1425.5427361000002,1425.5427361000002,n,0.920916699999907,1429.2334799,1429.2334799,5,2.719,,,,,sub-057,80,130,700,bloc_loop.csv,2023-10-05_08h57.51.897,PainUncertainty,2022.2.5,144.71319292466538,
aigu,moderee,stimuli/660Hz,stimuli/moderee,bloc_8,prob50_50_4trials.xlsx,3,12,50,50,0,,,,,0,7,7,7,1,0,4,2,,,,,,,,3.4,1429.2334799,1432.6341302,1432.6338595200002,0.3050618999996004,1433.0786419000005,1433.0786419000005,n,1.6106020999995962,1438.3458910000008,1438.3458910000008,2,3.587,,,,,sub-057,80,130,700,bloc_loop.csv,2023-10-05_08h57.51.897,PainUncertainty,2022.2.5,144.71319292466538,
grave,forte,stimuli/330Hz,stimuli/forte,bloc_8,prob50_50_4trials.xlsx,3,12,50,50,0,,,,,0,7,7,7,1,1,5,1,,,,,,,,3.8,1438.3458910000008,1442.1491506000002,1442.1489248200003,0.3050526000006357,1442.5936976000003,1442.5936976000003,m,0.7124185999991823,1445.668619,1445.668619,35,2.306,,,,,sub-057,80,130,700,bloc_loop.csv,2023-10-05_08h57.51.897,PainUncertainty,2022.2.5,144.71319292466538,
aigu,forte,stimuli/660Hz,stimuli/forte,bloc_8,prob50_50_4trials.xlsx,3,12,50,50,0,,,,,0,7,7,7,1,2,6,3,,,,,,,,3.9,1445.668619,1449.5735815000007,1449.5733877200007,0.3048829999997906,1450.0179145000002,1450.0179145000002,m,1.4067977999993673,1453.7905865000002,1453.7905865000002,54,2.294,,,,,sub-057,80,130,700,bloc_loop.csv,2023-10-05_08h57.51.897,PainUncertainty,2022.2.5,144.71319292466538,
grave,moderee,stimuli/330Hz,stimuli/moderee,bloc_8,prob50_50_4trials.xlsx,3,12,50,50,0,,,,,0,7,7,7,1,3,7,0,,,,,,,,4.6,1453.7905865000002,1458.3942213,1458.3939406200004,0.30498010000064824,1458.8388168000001,1458.8388168000001,n,0.8611457999986669,1462.5511571000006,1462.5511571000006,8,2.782,,,,,sub-057,80,130,700,bloc_loop.csv,2023-10-05_08h57.51.897,PainUncertainty,2022.2.5,144.71319292466538,
aigu,forte,stimuli/660Hz,stimuli/forte,bloc_8,prob50_50_4trials.xlsx,3,12,50,50,0,,,,,0,7,7,7,2,0,8,3,,,,,,,,3.8,1462.5511571000006,1466.3534185000008,1466.35327802,0.3047851000001174,1466.8020000000006,1466.8020000000006,m,0.751207199999044,1470.1620750000002,1470.1620750000002,29,2.538,,,,,sub-057,80,130,700,bloc_loop.csv,2023-10-05_08h57.51.897,PainUncertainty,2022.2.5,144.71319292466538,
aigu,moderee,stimuli/660Hz,stimuli/moderee,bloc_8,prob50_50_4trials.xlsx,3,12,50,50,0,,,,,0,7,7,7,2,1,9,2,,,,,,,,4.9,1470.1620750000002,1475.0627918,1475.0625800200003,0.3050140999994255,1475.5069103000005,1475.5069103000005,m,1.276785999999447,1479.6419788000003,1479.6419788000003,19,2.782,,,,,sub-057,80,130,700,bloc_loop.csv,2023-10-05_08h57.51.897,PainUncertainty,2022.2.5,144.71319292466538,
grave,forte,stimuli/330Hz,stimuli/forte,bloc_8,prob50_50_4trials.xlsx,3,12,50,50,0,,,,,0,7,7,7,2,2,10,1,,,,,,,,3.1,1479.6419788000003,1482.7442208000002,1482.74386922,0.3052025999995749,1483.1883220000009,1483.1883220000009,m,0.7686051000000589,1486.0692318000001,1486.0692318000001,51,2.038,,,,,sub-057,80,130,700,bloc_loop.csv,2023-10-05_08h57.51.897,PainUncertainty,2022.2.5,144.71319292466538,
grave,moderee,stimuli/330Hz,stimuli/moderee,bloc_8,prob50_50_4trials.xlsx,3,12,50,50,0,,,,,0,7,7,7,2,3,11,0,,,,,,,,3,1486.0692318000001,1489.0713692000008,1489.0711046200001,0.30589940000027127,1489.5205448000006,1489.5205448000006,n,0.6932004000000234,1491.7269361000008,1491.7269361000008,11,1.44,,,,,sub-057,80,130,700,bloc_loop.csv,2023-10-05_08h57.51.897,PainUncertainty,2022.2.5,144.71319292466538,
grave,forte,stimuli/330Hz,stimuli/forte,bloc_9,prob20hthp_12trials.xlsx,3,36,80,20,0,,,,,0,8,8,8,0,0,0,0,,,,,,,,3.9,1491.7269361000008,1495.6276302000006,1495.6273683200004,0.3052854000006846,1496.0719751000006,1496.0719751000006,m,0.8210518999994747,1499.0983336000008,1499.0983336000008,49,2.122,,,,,sub-057,80,130,700,bloc_loop.csv,2023-10-05_08h57.51.897,PainUncertainty,2022.2.5,144.71319292466538,
grave,moderee,stimuli/330Hz,stimuli/moderee,bloc_9,prob20hthp_12trials.xlsx,3,36,80,20,0,,,,,0,8,8,8,0,1,1,5,,,,,,,,3.4,1499.0983336000008,1502.5034624,1502.5032430200006,0.3051900000000387,1502.9481099000004,1502.9481099000004,n,1.2819002999995064,1506.2453762000005,1506.2453762000005,16,1.948,,,,,sub-057,80,130,700,bloc_loop.csv,2023-10-05_08h57.51.897,PainUncertainty,2022.2.5,144.71319292466538,
aigu,moderee,stimuli/660Hz,stimuli/moderee,bloc_9,prob20hthp_12trials.xlsx,3,36,80,20,0,,,,,0,8,8,8,0,2,2,10,,,,,,,,4.9,1506.2453762000005,1511.1508373000006,1511.1503690200004,0.30486970000038127,1511.5945111,1511.5945111,n,0.8341872999990301,1515.1963666000001,1515.1963666000001,7,2.698,,,,,sub-057,80,130,700,bloc_loop.csv,2023-10-05_08h57.51.897,PainUncertainty,2022.2.5,144.71319292466538,
aigu,moderee,stimuli/660Hz,stimuli/moderee,bloc_9,prob20hthp_12trials.xlsx,3,36,80,20,0,,,,,0,8,8,8,0,3,3,9,,,,,,,,4.4,1515.1963666000001,1519.5958008000007,1519.5956200200005,0.30493569999998726,1520.0404135000008,1520.0404135000008,n,0.7753719000002093,1522.8212792000004,1522.8212792000004,3,1.954,,,,,sub-057,80,130,700,bloc_loop.csv,2023-10-05_08h57.51.897,PainUncertainty,2022.2.5,144.71319292466538,
aigu,moderee,stimuli/660Hz,stimuli/moderee,bloc_9,prob20hthp_12trials.xlsx,3,36,80,20,0,,,,,0,8,8,8,0,4,4,7,,,,,,,,5,1522.8212792000004,1527.8263704,1527.8261571200007,0.30506470000000263,1528.2774085,1528.2774085,n,0.7777686999997968,1531.2631347000006,1531.2631347000006,0,2.142,,,,,sub-057,80,130,700,bloc_loop.csv,2023-10-05_08h57.51.897,PainUncertainty,2022.2.5,144.71319292466538,
grave,forte,stimuli/330Hz,stimuli/forte,bloc_9,prob20hthp_12trials.xlsx,3,36,80,20,0,,,,,0,8,8,8,0,5,5,3,,,,,,,,3.1,1531.2631347000006,1534.3688826000007,1534.3692794200003,0.30405010000049515,1534.8127781000003,1534.8127781000003,m,1.293591199999355,1537.864888,1537.864888,24,1.698,,,,,sub-057,80,130,700,bloc_loop.csv,2023-10-05_08h57.51.897,PainUncertainty,2022.2.5,144.71319292466538,
grave,forte,stimuli/330Hz,stimuli/forte,bloc_9,prob20hthp_12trials.xlsx,3,36,80,20,0,,,,,0,8,8,8,0,6,6,1,,,,,,,,4.3,1537.864888,1542.1683679000007,1542.1679584200008,0.3051538999998229,1542.6127909000006,1542.6127909000006,m,0.8187426999993477,1546.3858985000006,1546.3858985000006,47,2.907,,,,,sub-057,80,130,700,bloc_loop.csv,2023-10-05_08h57.51.897,PainUncertainty,2022.2.5,144.71319292466538,
grave,forte,stimuli/330Hz,stimuli/forte,bloc_9,prob20hthp_12trials.xlsx,3,36,80,20,0,,,,,0,8,8,8,0,7,7,4,,,,,,,,3.5,1546.3858985000006,1549.8910386000007,1549.8907090200007,0.30565699999988283,1550.3396208000004,1550.3396208000004,m,0.7895266999994419,1553.6766794000005,1553.6766794000005,49,2.482,,,,,sub-057,80,130,700,bloc_loop.csv,2023-10-05_08h57.51.897,PainUncertainty,2022.2.5,144.71319292466538,
grave,forte,stimuli/330Hz,stimuli/forte,bloc_9,prob20hthp_12trials.xlsx,3,36,80,20,0,,,,,0,8,8,8,0,8,8,2,,,,,,,,3.8,1553.6766794000005,1557.4823091000007,1557.4821641200003,0.3049068000000261,1557.9265233000006,1557.9265233000006,m,0.5937692999996216,1560.9211006000005,1560.9211006000005,57,2.329,,,,,sub-057,80,130,700,bloc_loop.csv,2023-10-05_08h57.51.897,PainUncertainty,2022.2.5,144.71319292466538,
aigu,moderee,stimuli/660Hz,stimuli/moderee,bloc_9,prob20hthp_12trials.xlsx,3,36,80,20,0,,,,,0,8,8,8,0,9,9,8,,,,,,,,3.4,1560.9211006000005,1564.3235497000005,1564.323157220001,0.30220790000021225,1564.7692768000006,1564.7692768000006,n,0.6549752999999328,1567.6822461000002,1567.6822461000002,4,2.191,,,,,sub-057,80,130,700,bloc_loop.csv,2023-10-05_08h57.51.897,PainUncertainty,2022.2.5,144.71319292466538,
aigu,moderee,stimuli/660Hz,stimuli/moderee,bloc_9,prob20hthp_12trials.xlsx,3,36,80,20,0,,,,,0,8,8,8,0,10,10,6,,,,,,,,4.8,1567.6822461000002,1572.4839818,1572.4837109200005,0.3050924999997733,1572.9282179000002,1572.9282179000002,n,0.8938952999997127,1576.3788804000005,1576.3788804000005,1,2.491,,,,,sub-057,80,130,700,bloc_loop.csv,2023-10-05_08h57.51.897,PainUncertainty,2022.2.5,144.71319292466538,
aigu,forte,stimuli/660Hz,stimuli/forte,bloc_9,prob20hthp_12trials.xlsx,3,36,80,20,0,,,,,0,8,8,8,0,11,11,11,,,,,,,,4.4,1576.3788804000005,1580.7835808,1580.78333352,0.3051335000000108,1581.2281886,1581.2281886,m,0.8744273999991492,1584.7868163000003,1584.7868163000003,25,2.635,,,,,sub-057,80,130,700,bloc_loop.csv,2023-10-05_08h57.51.897,PainUncertainty,2022.2.5,144.71319292466538,
grave,forte,stimuli/330Hz,stimuli/forte,bloc_9,prob20hthp_12trials.xlsx,3,36,80,20,0,,,,,0,8,8,8,1,0,12,2,,,,,,,,3,1584.7868163000003,1587.7917166000007,1587.7915455200007,0.30508929999996326,1588.2391988000008,1588.2391988000008,m,1.0955379999995785,1591.725316,1591.725316,39,2.337,,,,,sub-057,80,130,700,bloc_loop.csv,2023-10-05_08h57.51.897,PainUncertainty,2022.2.5,144.71319292466538,
grave,forte,stimuli/330Hz,stimuli/forte,bloc_9,prob20hthp_12trials.xlsx,3,36,80,20,0,,,,,0,8,8,8,1,1,13,1,,,,,,,,4.7,1591.725316,1596.4246952000003,1596.4243926200004,0.30053179999958957,1596.8688814000006,1596.8688814000006,m,0.9278763000002073,1600.4235466,1600.4235466,54,2.573,,,,,sub-057,80,130,700,bloc_loop.csv,2023-10-05_08h57.51.897,PainUncertainty,2022.2.5,144.71319292466538,
grave,forte,stimuli/330Hz,stimuli/forte,bloc_9,prob20hthp_12trials.xlsx,3,36,80,20,0,,,,,0,8,8,8,1,2,14,3,,,,,,,,3,1600.4235466,1603.4252105000005,1603.42494572,0.30106069999965257,1603.8699222000005,1603.8699222000005,m,0.9694555999994918,1607.3623851000002,1607.3623851000002,59,2.456,,,,,sub-057,80,130,700,bloc_loop.csv,2023-10-05_08h57.51.897,PainUncertainty,2022.2.5,144.71319292466538,
aigu,moderee,stimuli/660Hz,stimuli/moderee,bloc_9,prob20hthp_12trials.xlsx,3,36,80,20,0,,,,,0,8,8,8,1,3,15,6,,,,,,,,4,1607.3623851000002,1611.3640336000008,1611.3637565200004,0.3030408000004172,1611.8083343000008,1611.8083343000008,n,0.8131074999992052,1615.0044129000007,1615.0044129000007,1,2.301,,,,,sub-057,80,130,700,bloc_loop.csv,2023-10-05_08h57.51.897,PainUncertainty,2022.2.5,144.71319292466538,
aigu,forte,stimuli/660Hz,stimuli/forte,bloc_9,prob20hthp_12trials.xlsx,3,36,80,20,0,,,,,0,8,8,8,1,4,16,11,,,,,,,,4.7,1615.0044129000007,1619.7051981000004,1619.70499782,0.3046957000005932,1620.1489700000002,1620.1489700000002,m,1.0536433999996007,1623.6856695000006,1623.6856695000006,32,2.407,,,,,sub-057,80,130,700,bloc_loop.csv,2023-10-05_08h57.51.897,PainUncertainty,2022.2.5,144.71319292466538,
aigu,moderee,stimuli/660Hz,stimuli/moderee,bloc_9,prob20hthp_12trials.xlsx,3,36,80,20,0,,,,,0,8,8,8,1,5,17,7,,,,,,,,3.8,1623.6856695000006,1627.4904750000005,1627.4902402200003,0.3051089000000502,1627.9347219,1627.9347219,n,0.7687294999996084,1629.9694261000004,1629.9694261000004,10,1.184,,,,,sub-057,80,130,700,bloc_loop.csv,2023-10-05_08h57.51.897,PainUncertainty,2022.2.5,144.71319292466538,
grave,forte,stimuli/330Hz,stimuli/forte,bloc_9,prob20hthp_12trials.xlsx,3,36,80,20,0,,,,,0,8,8,8,1,6,18,4,,,,,,,,4,1629.9694261000004,1633.97051,1633.9701861200008,0.30512799999996787,1634.4150557000003,1634.4150557000003,m,0.6873324999996839,1637.0193574000004,1637.0193574000004,49,1.836,,,,,sub-057,80,130,700,bloc_loop.csv,2023-10-05_08h57.51.897,PainUncertainty,2022.2.5,144.71319292466538,
aigu,moderee,stimuli/660Hz,stimuli/moderee,bloc_9,prob20hthp_12trials.xlsx,3,36,80,20,0,,,,,0,8,8,8,1,7,19,8,,,,,,,,4,1637.0193574000004,1641.0199700000003,1641.0196809200004,0.3051377000001594,1641.4645231000004,1641.4645231000004,n,0.842274599999655,1644.9004435000006,1644.9004435000006,6,2.538,,,,,sub-057,80,130,700,bloc_loop.csv,2023-10-05_08h57.51.897,PainUncertainty,2022.2.5,144.71319292466538,
grave,moderee,stimuli/330Hz,stimuli/moderee,bloc_9,prob20hthp_12trials.xlsx,3,36,80,20,0,,,,,0,8,8,8,1,8,20,5,,,,,,,,4.4,1644.9004435000006,1649.3062629000005,1649.3058815200009,0.30451300000004267,1649.7498188000009,1649.7498188000009,n,1.1218712999998388,1654.2683320000006,1654.2683320000006,8,3.331,,,,,sub-057,80,130,700,bloc_loop.csv,2023-10-05_08h57.51.897,PainUncertainty,2022.2.5,144.71319292466538,
aigu,moderee,stimuli/660Hz,stimuli/moderee,bloc_9,prob20hthp_12trials.xlsx,3,36,80,20,0,,,,,0,8,8,8,1,9,21,10,,,,,,,,4.1,1654.2683320000006,1658.3692026000008,1658.3690711200004,0.3051359000000957,1658.8134026000007,1658.8134026000007,n,1.3781263999999283,1661.7827055000007,1661.7827055000007,3,1.516,,,,,sub-057,80,130,700,bloc_loop.csv,2023-10-05_08h57.51.897,PainUncertainty,2022.2.5,144.71319292466538,
grave,forte,stimuli/330Hz,stimuli/forte,bloc_9,prob20hthp_12trials.xlsx,3,36,80,20,0,,,,,0,8,8,8,1,10,22,0,,,,,,,,3.5,1661.7827055000007,1665.2866214000005,1665.28676642,0.3049133999993501,1665.7381595000006,1665.7381595000006,m,1.5584785999990345,1670.5281666,1670.5281666,25,3.149,,,,,sub-057,80,130,700,bloc_loop.csv,2023-10-05_08h57.51.897,PainUncertainty,2022.2.5,144.71319292466538,
aigu,moderee,stimuli/660Hz,stimuli/moderee,bloc_9,prob20hthp_12trials.xlsx,3,36,80,20,0,,,,,0,8,8,8,1,11,23,9,,,,,,,,4.4,1670.5281666,1674.9336169000007,1674.9334462200002,0.3050622000000658,1675.3779163000008,1675.3779163000008,n,1.0171398999991652,1679.5277844000002,1679.5277844000002,7,3.081,,,,,sub-057,80,130,700,bloc_loop.csv,2023-10-05_08h57.51.897,PainUncertainty,2022.2.5,144.71319292466538,
aigu,moderee,stimuli/660Hz,stimuli/moderee,bloc_9,prob20hthp_12trials.xlsx,3,36,80,20,0,,,,,0,8,8,8,2,0,24,6,,,,,,,,3.6,1679.5277844000002,1683.1291541,1683.1288530200006,0.305551700000251,1683.5773545000002,1683.5773545000002,n,0.8572041999996145,1687.6488733000006,1687.6488733000006,7,3.156,,,,,sub-057,80,130,700,bloc_loop.csv,2023-10-05_08h57.51.897,PainUncertainty,2022.2.5,144.71319292466538,
aigu,moderee,stimuli/660Hz,stimuli/moderee,bloc_9,prob20hthp_12trials.xlsx,3,36,80,20,0,,,,,0,8,8,8,2,1,25,10,,,,,,,,3.4,1687.6488733000006,1691.0535898000007,1691.0533712200001,0.2991997999997693,1691.4919139000003,1691.4919139000003,n,1.2893941999991512,1696.0600290000002,1696.0600290000002,10,3.198,,,,,sub-057,80,130,700,bloc_loop.csv,2023-10-05_08h57.51.897,PainUncertainty,2022.2.5,144.71319292466538,
grave,forte,stimuli/330Hz,stimuli/forte,bloc_9,prob20hthp_12trials.xlsx,3,36,80,20,0,,,,,0,8,8,8,2,2,26,4,,,,,,,,3.8,1696.0600290000002,1699.8605092000007,1699.860231120001,0.3048686000001908,1700.3050116000004,1700.3050116000004,m,0.6876837999998315,1702.9803507000006,1702.9803507000006,42,1.932,,,,,sub-057,80,130,700,bloc_loop.csv,2023-10-05_08h57.51.897,PainUncertainty,2022.2.5,144.71319292466538,
grave,forte,stimuli/330Hz,stimuli/forte,bloc_9,prob20hthp_12trials.xlsx,3,36,80,20,0,,,,,0,8,8,8,2,3,27,0,,,,,,,,3.6,1702.9803507000006,1706.5831966000005,1706.5829378200003,0.30502420000084385,1707.0278390000003,1707.0278390000003,m,0.7014838999994026,1710.7336640000003,1710.7336640000003,62,2.956,,,,,sub-057,80,130,700,bloc_loop.csv,2023-10-05_08h57.51.897,PainUncertainty,2022.2.5,144.71319292466538,
grave,forte,stimuli/330Hz,stimuli/forte,bloc_9,prob20hthp_12trials.xlsx,3,36,80,20,0,,,,,0,8,8,8,2,4,28,1,,,,,,,,4.8,1710.7336640000003,1715.5356361000004,1715.535449320001,0.30501230000027135,1715.9870266000007,1715.9870266000007,m,0.7952883999996629,1719.8639755000004,1719.8639755000004,58,3.01,,,,,sub-057,80,130,700,bloc_loop.csv,2023-10-05_08h57.51.897,PainUncertainty,2022.2.5,144.71319292466538,
aigu,moderee,stimuli/660Hz,stimuli/moderee,bloc_9,prob20hthp_12trials.xlsx,3,36,80,20,0,,,,,0,8,8,8,2,5,29,9,,,,,,,,4.8,1719.8639755000004,1724.6686960000006,1724.6684591200008,0.30500800000027084,1725.1128630000003,1725.1128630000003,n,0.734515499999361,1728.0814511000008,1728.0814511000008,2,2.157,,,,,sub-057,80,130,700,bloc_loop.csv,2023-10-05_08h57.51.897,PainUncertainty,2022.2.5,144.71319292466538,
grave,forte,stimuli/330Hz,stimuli/forte,bloc_9,prob20hthp_12trials.xlsx,3,36,80,20,0,,,,,0,8,8,8,2,6,30,2,,,,,,,,4.6,1728.0814511000008,1732.6835992000006,1732.6833932200004,0.30490650000047026,1733.1314269000004,1733.1314269000004,m,1.511788400000114,1737.6573186000005,1737.6573186000005,35,2.948,,,,,sub-057,80,130,700,bloc_loop.csv,2023-10-05_08h57.51.897,PainUncertainty,2022.2.5,144.71319292466538,
aigu,forte,stimuli/660Hz,stimuli/forte,bloc_9,prob20hthp_12trials.xlsx,3,36,80,20,0,,,,,0,8,8,8,2,7,31,11,,,,,,,,3.1,1737.6573186000005,1740.7611302000005,1740.7610188200003,0.29934620000040013,1741.1994659000002,1741.1994659000002,m,1.1034899999995105,1744.8658691,1744.8658691,38,2.507,,,,,sub-057,80,130,700,bloc_loop.csv,2023-10-05_08h57.51.897,PainUncertainty,2022.2.5,144.71319292466538,
grave,forte,stimuli/330Hz,stimuli/forte,bloc_9,prob20hthp_12trials.xlsx,3,36,80,20,0,,,,,0,8,8,8,2,8,32,3,,,,,,,,4.4,1744.8658691,1749.2689542000007,1749.2686452200003,0.3047084999998333,1749.7129422000007,1749.7129422000007,m,1.0823155999996743,1753.2451326,1753.2451326,58,2.373,,,,,sub-057,80,130,700,bloc_loop.csv,2023-10-05_08h57.51.897,PainUncertainty,2022.2.5,144.71319292466538,
grave,moderee,stimuli/330Hz,stimuli/moderee,bloc_9,prob20hthp_12trials.xlsx,3,36,80,20,0,,,,,0,8,8,8,2,9,33,5,,,,,,,,4.6,1753.2451326,1757.8486272,1757.8464107200004,0.30457099999966886,1758.2976161000006,1758.2976161000006,n,0.7983497999994142,1762.1155124000006,1762.1155124000006,7,2.968,,,,,sub-057,80,130,700,bloc_loop.csv,2023-10-05_08h57.51.897,PainUncertainty,2022.2.5,144.71319292466538,
aigu,moderee,stimuli/660Hz,stimuli/moderee,bloc_9,prob20hthp_12trials.xlsx,3,36,80,20,0,,,,,0,8,8,8,2,10,34,7,,,,,,,,4.8,1762.1155124000006,1766.9168801000005,1766.916821820001,0.3048804999998538,1767.3609153000007,1767.3609153000007,n,0.8699659999992946,1770.7342983000008,1770.7342983000008,7,2.441,,,,,sub-057,80,130,700,bloc_loop.csv,2023-10-05_08h57.51.897,PainUncertainty,2022.2.5,144.71319292466538,
aigu,moderee,stimuli/660Hz,stimuli/moderee,bloc_9,prob20hthp_12trials.xlsx,3,36,80,20,0,,,,,0,8,8,8,2,11,35,8,,,,,,,,4.8,1770.7342983000008,1775.5359901000002,1775.5357035200002,0.3049279999995633,1775.9802437000008,1775.9802437000008,n,0.8040407999997115,1779.7361812000008,1779.7361812000008,6,2.928,,,,,sub-057,80,130,700,bloc_loop.csv,2023-10-05_08h57.51.897,PainUncertainty,2022.2.5,144.71319292466538,
