cue_,stimulus_,cue_fichier,stimulus_fichier,block_name,block_trials_file,block_n_reps,block_ntrials,block_prob_highP_highT,block_prob_highP_lowT,block_pause_after,Bloc_essai.thisRepN,Bloc_essai.thisTrialN,Bloc_essai.thisN,Bloc_essai.thisIndex,blocks.thisRepN,blocks.thisTrialN,blocks.thisN,blocks.thisIndex,trials.thisRepN,trials.thisTrialN,trials.thisN,trials.thisIndex,pause_loop.thisRepN,pause_loop.thisTrialN,pause_loop.thisN,pause_loop.thisIndex,key_resp_5.started,start_calib.started,key_resp_2.started,ISI_duration,pause.started,pause.stopped,cue.started,ISI.started,choice_pain.started,Choice.started,choice_pain.keys,choice_pain.rt,main_text.started,confirm_text.started,ratingScale.response,ratingScale.rt,choice_pain.stopped,Choice.stopped,key_resp_3.started,key_resp_6.started,participant,low_ma,high_ma,failsafe_ma,block_file,date,expName,psychopyVersion,frameRate,
aigu,moderee,stimuli/660Hz,stimuli/moderee,,,,,,,,0,0,0,2,,,,,,,,,,,,,27.44568249999429,169.12226240000746,199.28551190000144,3.2,201.90570040000603,205.1107694999955,205.11268503999452,0.2999417999963043,205.54473150000558,205.54473150000558,n,0.7869990000035614,208.78439519999665,208.78439519999665,37,2.389,,,,,sub-050,35,55,700,bloc_loop.csv,2023-09-20_13h50.47.440,PainUncertainty,2022.2.5,144.25122795396308,
aigu,forte,stimuli/660Hz,stimuli/forte,,,,,,,,0,1,1,3,,,,,,,,,,,,,,,,3.7,208.78439519999665,212.48839660000522,212.48851837000547,0.3049668000021484,212.9326136000018,212.9326136000018,m,2.195670200002496,218.10135660000378,218.10135660000378,59,2.906,,,,,sub-050,35,55,700,bloc_loop.csv,2023-09-20_13h50.47.440,PainUncertainty,2022.2.5,144.25122795396308,
grave,moderee,stimuli/330Hz,stimuli/moderee,,,,,,,,0,2,2,0,,,,,,,,,,,,,,,,3.8,218.10135660000378,221.90888309999718,221.91336034000267,0.2994794999976875,222.35067810000328,222.35067810000328,None,,226.76245009999548,226.76245009999548,60,1.912,224.81957360000524,224.81957360000524,,,sub-050,35,55,700,bloc_loop.csv,2023-09-20_13h50.47.440,PainUncertainty,2022.2.5,144.25122795396308,
grave,forte,stimuli/330Hz,stimuli/forte,,,,,,,,0,3,3,1,,,,,,,,,,,,,,,,3.4,226.76245009999548,230.16406710000592,230.16426196999527,0.3051056999975117,230.608750600004,230.608750600004,m,0.8632735999999568,233.19281730000512,233.19281730000512,72,1.692,,,,,sub-050,35,55,700,bloc_loop.csv,2023-09-20_13h50.47.440,PainUncertainty,2022.2.5,144.25122795396308,
grave,moderee,stimuli/330Hz,stimuli/moderee,bloc_1,prob20hthp_12trials.xlsx,4,48,20,80,0,,,,,0,0,0,0,0,0,0,5,,,,,,,,4.2,270.1029689999996,274.3081860999955,274.3082885699943,0.30503369998768903,274.7523790999985,274.7523790999985,n,0.7661380999925314,277.78848180000205,277.78848180000205,27,2.211,,,,,sub-050,35,55,700,bloc_loop.csv,2023-09-20_13h50.47.440,PainUncertainty,2022.2.5,144.25122795396308,
grave,forte,stimuli/330Hz,stimuli/forte,bloc_1,prob20hthp_12trials.xlsx,4,48,20,80,0,,,,,0,0,0,0,0,1,1,3,,,,,,,,4.7,277.78848180000205,282.4902054999984,282.490305769995,0.3050109000032535,282.93638810000266,282.93638810000266,n,1.4744291999959387,287.0229757000052,287.0229757000052,36,2.559,,,,,sub-050,35,55,700,bloc_loop.csv,2023-09-20_13h50.47.440,PainUncertainty,2022.2.5,144.25122795396308,
aigu,moderee,stimuli/660Hz,stimuli/moderee,bloc_1,prob20hthp_12trials.xlsx,4,48,20,80,0,,,,,0,0,0,0,0,2,2,10,,,,,,,,3.8,287.0229757000052,290.8241615000006,290.82408537000737,0.3052351000078488,291.2685233000084,291.2685233000084,n,0.92427289999614,293.3032547000039,293.3032547000039,17,1.052,,,,,sub-050,35,55,700,bloc_loop.csv,2023-09-20_13h50.47.440,PainUncertainty,2022.2.5,144.25122795396308,
aigu,moderee,stimuli/660Hz,stimuli/moderee,bloc_1,prob20hthp_12trials.xlsx,4,48,20,80,0,,,,,0,0,0,0,0,3,3,7,,,,,,,,4.7,293.3032547000039,298.0069647000055,298.0059684700056,0.3052548999985447,298.45430450000276,298.45430450000276,n,1.01990929999738,300.49403080000775,300.49403080000775,22,0.961,,,,,sub-050,35,55,700,bloc_loop.csv,2023-09-20_13h50.47.440,PainUncertainty,2022.2.5,144.25122795396308,
aigu,moderee,stimuli/660Hz,stimuli/moderee,bloc_1,prob20hthp_12trials.xlsx,4,48,20,80,0,,,,,0,0,0,0,0,4,4,8,,,,,,,,4.4,300.49403080000775,304.89547279999533,304.895687670006,0.3046043000067584,305.3398479000025,305.3398479000025,n,0.7528326000028756,307.4615417000023,307.4615417000023,27,1.309,,,,,sub-050,35,55,700,bloc_loop.csv,2023-09-20_13h50.47.440,PainUncertainty,2022.2.5,144.25122795396308,
grave,forte,stimuli/330Hz,stimuli/forte,bloc_1,prob20hthp_12trials.xlsx,4,48,20,80,0,,,,,0,0,0,0,0,5,5,4,,,,,,,,4.7,307.4615417000023,312.1673374999955,312.1672078700023,0.30526940000709146,312.61505609999585,312.61505609999585,m,0.5943667000101414,315.35623629999463,315.35623629999463,66,2.087,,,,,sub-050,35,55,700,bloc_loop.csv,2023-09-20_13h50.47.440,PainUncertainty,2022.2.5,144.25122795396308,
aigu,moderee,stimuli/660Hz,stimuli/moderee,bloc_1,prob20hthp_12trials.xlsx,4,48,20,80,0,,,,,0,0,0,0,0,6,6,9,,,,,,,,3.2,315.35623629999463,318.55681670000195,318.55691747000236,0.3053016000048956,319.0050188000023,319.0050188000023,n,0.7274689999903785,320.93247100000735,320.93247100000735,18,1.141,,,,,sub-050,35,55,700,bloc_loop.csv,2023-09-20_13h50.47.440,PainUncertainty,2022.2.5,144.25122795396308,
grave,forte,stimuli/330Hz,stimuli/forte,bloc_1,prob20hthp_12trials.xlsx,4,48,20,80,0,,,,,0,0,0,0,0,7,7,2,,,,,,,,3,320.93247100000735,323.93207360000815,323.93220536999723,0.305139500007499,324.3762519000011,324.3762519000011,m,0.632376599998679,326.1752516999986,326.1752516999986,69,1.108,,,,,sub-050,35,55,700,bloc_loop.csv,2023-09-20_13h50.47.440,PainUncertainty,2022.2.5,144.25122795396308,
aigu,moderee,stimuli/660Hz,stimuli/moderee,bloc_1,prob20hthp_12trials.xlsx,4,48,20,80,0,,,,,0,0,0,0,0,8,8,6,,,,,,,,3.2,326.1752516999986,329.37735209999664,329.3774333699941,0.2990055999980541,329.8159711000044,329.8159711000044,n,0.3922273999924073,331.71846319999895,331.71846319999895,22,1.455,,,,,sub-050,35,55,700,bloc_loop.csv,2023-09-20_13h50.47.440,PainUncertainty,2022.2.5,144.25122795396308,
grave,forte,stimuli/330Hz,stimuli/forte,bloc_1,prob20hthp_12trials.xlsx,4,48,20,80,0,,,,,0,0,0,0,0,9,9,0,,,,,,,,3.5,331.71846319999895,335.2181455999962,335.21823347000026,0.30028399999719113,335.66314550000243,335.66314550000243,m,0.5502616000012495,337.99887120000494,337.99887120000494,70,1.719,,,,,sub-050,35,55,700,bloc_loop.csv,2023-09-20_13h50.47.440,PainUncertainty,2022.2.5,144.25122795396308,
aigu,forte,stimuli/660Hz,stimuli/forte,bloc_1,prob20hthp_12trials.xlsx,4,48,20,80,0,,,,,0,0,0,0,0,10,10,11,,,,,,,,4.8,337.99887120000494,342.8024701999966,342.80257666999677,0.30503540000063367,343.2465907000005,343.2465907000005,m,0.5151148000004468,346.34211949999735,346.34211949999735,77,2.512,,,,,sub-050,35,55,700,bloc_loop.csv,2023-09-20_13h50.47.440,PainUncertainty,2022.2.5,144.25122795396308,
grave,forte,stimuli/330Hz,stimuli/forte,bloc_1,prob20hthp_12trials.xlsx,4,48,20,80,0,,,,,0,0,0,0,0,11,11,1,,,,,,,,4.5,346.34211949999735,350.8454985999997,350.8455810700063,0.30459939999855123,351.2893838000018,351.2893838000018,m,0.758308800010127,354.89032819999557,354.89032819999557,69,2.774,,,,,sub-050,35,55,700,bloc_loop.csv,2023-09-20_13h50.47.440,PainUncertainty,2022.2.5,144.25122795396308,
aigu,moderee,stimuli/660Hz,stimuli/moderee,bloc_1,prob20hthp_12trials.xlsx,4,48,20,80,0,,,,,0,0,0,0,1,0,12,10,,,,,,,,4.1,354.89032819999557,358.9918963999953,358.99202016999624,0.30496340000536293,359.43600499999593,359.43600499999593,n,0.6609699999971781,361.05899520000094,361.05899520000094,15,0.906,,,,,sub-050,35,55,700,bloc_loop.csv,2023-09-20_13h50.47.440,PainUncertainty,2022.2.5,144.25122795396308,
aigu,moderee,stimuli/660Hz,stimuli/moderee,bloc_1,prob20hthp_12trials.xlsx,4,48,20,80,0,,,,,0,0,0,0,1,1,13,9,,,,,,,,3.6,361.05899520000094,364.6598074000067,364.6599367700066,0.3005541999882553,365.10383680000086,365.10383680000086,n,0.615695800006506,366.6835332000046,366.6835332000046,20,0.913,,,,,sub-050,35,55,700,bloc_loop.csv,2023-09-20_13h50.47.440,PainUncertainty,2022.2.5,144.25122795396308,
aigu,moderee,stimuli/660Hz,stimuli/moderee,bloc_1,prob20hthp_12trials.xlsx,4,48,20,80,0,,,,,0,0,0,0,1,2,14,8,,,,,,,,4.1,366.6835332000046,370.7850307000044,370.78501186999637,0.3052538999909302,371.22910510000656,371.22910510000656,n,0.8538887999893632,374.9766767999972,374.9766767999972,17,2.838,,,,,sub-050,35,55,700,bloc_loop.csv,2023-09-20_13h50.47.440,PainUncertainty,2022.2.5,144.25122795396308,
grave,forte,stimuli/330Hz,stimuli/forte,bloc_1,prob20hthp_12trials.xlsx,4,48,20,80,0,,,,,0,0,0,0,1,3,15,3,,,,,,,,4,374.9766767999972,378.98041220000596,378.98048777000366,0.3047482999972999,379.42447019999963,379.42447019999963,m,0.5986381999973673,382.2805793000007,382.2805793000007,67,2.191,,,,,sub-050,35,55,700,bloc_loop.csv,2023-09-20_13h50.47.440,PainUncertainty,2022.2.5,144.25122795396308,
grave,forte,stimuli/330Hz,stimuli/forte,bloc_1,prob20hthp_12trials.xlsx,4,48,20,80,0,,,,,0,0,0,0,1,4,16,4,,,,,,,,3.6,382.2805793000007,385.88409859999956,385.8847684699969,0.30497169999580365,386.33208100000047,386.33208100000047,m,2.0795564000000013,390.717447300005,390.717447300005,64,2.246,,,,,sub-050,35,55,700,bloc_loop.csv,2023-09-20_13h50.47.440,PainUncertainty,2022.2.5,144.25122795396308,
aigu,forte,stimuli/660Hz,stimuli/forte,bloc_1,prob20hthp_12trials.xlsx,4,48,20,80,0,,,,,0,0,0,0,1,5,17,11,,,,,,,,4.8,390.717447300005,395.51726690000214,395.5174549699979,0.30531219999829773,395.9664819000027,395.9664819000027,n,0.8086645000003045,399.41295500000706,399.41295500000706,32,2.574,,,,,sub-050,35,55,700,bloc_loop.csv,2023-09-20_13h50.47.440,PainUncertainty,2022.2.5,144.25122795396308,
grave,forte,stimuli/330Hz,stimuli/forte,bloc_1,prob20hthp_12trials.xlsx,4,48,20,80,0,,,,,0,0,0,0,1,6,18,0,,,,,,,,3.4,399.41295500000706,402.8167296000029,402.81674617000243,0.3051534999976866,403.2678181000083,403.2678181000083,m,1.4428976000053808,406.76282800000627,406.76282800000627,65,1.988,,,,,sub-050,35,55,700,bloc_loop.csv,2023-09-20_13h50.47.440,PainUncertainty,2022.2.5,144.25122795396308,
grave,forte,stimuli/330Hz,stimuli/forte,bloc_1,prob20hthp_12trials.xlsx,4,48,20,80,0,,,,,0,0,0,0,1,7,19,2,,,,,,,,5,406.76282800000627,411.7618602000002,411.7620421699932,0.3050615999964066,412.2132836999954,412.2132836999954,m,1.0164938999951119,415.5519013000012,415.5519013000012,70,2.254,,,,,sub-050,35,55,700,bloc_loop.csv,2023-09-20_13h50.47.440,PainUncertainty,2022.2.5,144.25122795396308,
grave,forte,stimuli/330Hz,stimuli/forte,bloc_1,prob20hthp_12trials.xlsx,4,48,20,80,0,,,,,0,0,0,0,1,8,20,1,,,,,,,,3.5,415.5519013000012,419.05440870000166,419.0544766699997,0.3051676999893971,419.5011872000032,419.5011872000032,m,0.5053437000024132,421.35161230000085,421.35161230000085,71,1.275,,,,,sub-050,35,55,700,bloc_loop.csv,2023-09-20_13h50.47.440,PainUncertainty,2022.2.5,144.25122795396308,
aigu,moderee,stimuli/660Hz,stimuli/moderee,bloc_1,prob20hthp_12trials.xlsx,4,48,20,80,0,,,,,0,0,0,0,1,9,21,6,,,,,,,,4.9,421.35161230000085,426.2566611000075,426.25677376999664,0.3052603999967687,426.70135820000723,426.70135820000723,n,0.510542300005909,429.24586579999595,429.24586579999595,11,1.976,,,,,sub-050,35,55,700,bloc_loop.csv,2023-09-20_13h50.47.440,PainUncertainty,2022.2.5,144.25122795396308,
grave,moderee,stimuli/330Hz,stimuli/moderee,bloc_1,prob20hthp_12trials.xlsx,4,48,20,80,0,,,,,0,0,0,0,1,10,22,5,,,,,,,,4.5,429.24586579999595,433.75091230000544,433.75095796999375,0.30522100000234786,434.1950627000042,434.1950627000042,n,0.7370057000080124,436.2926110999979,436.2926110999979,23,1.302,,,,,sub-050,35,55,700,bloc_loop.csv,2023-09-20_13h50.47.440,PainUncertainty,2022.2.5,144.25122795396308,
aigu,moderee,stimuli/660Hz,stimuli/moderee,bloc_1,prob20hthp_12trials.xlsx,4,48,20,80,0,,,,,0,0,0,0,1,11,23,7,,,,,,,,4,436.2926110999979,440.29308370000217,440.29317707000445,0.30503449999378063,440.74098240000603,440.74098240000603,n,1.1222876000101678,442.6525621000037,442.6525621000037,20,0.726,,,,,sub-050,35,55,700,bloc_loop.csv,2023-09-20_13h50.47.440,PainUncertainty,2022.2.5,144.25122795396308,
grave,moderee,stimuli/330Hz,stimuli/moderee,bloc_1,prob20hthp_12trials.xlsx,4,48,20,80,0,,,,,0,0,0,0,2,0,24,5,,,,,,,,3.2,442.6525621000037,445.8561456000025,445.8562000699996,0.30516639999405015,446.3004023999965,446.3004023999965,n,0.8370451999944635,451.66671510000015,451.66671510000015,20,4.462,,,,,sub-050,35,55,700,bloc_loop.csv,2023-09-20_13h50.47.440,PainUncertainty,2022.2.5,144.25122795396308,
aigu,moderee,stimuli/660Hz,stimuli/moderee,bloc_1,prob20hthp_12trials.xlsx,4,48,20,80,0,,,,,0,0,0,0,2,1,25,7,,,,,,,,4.9,451.66671510000015,456.5658076999971,456.5659045699969,0.3050950000033481,457.009922600002,457.009922600002,n,1.3130338999908417,459.78342029999476,459.78342029999476,12,1.4,,,,,sub-050,35,55,700,bloc_loop.csv,2023-09-20_13h50.47.440,PainUncertainty,2022.2.5,144.25122795396308,
grave,forte,stimuli/330Hz,stimuli/forte,bloc_1,prob20hthp_12trials.xlsx,4,48,20,80,0,,,,,0,0,0,0,2,2,26,2,,,,,,,,3.8,459.78342029999476,463.58775039999455,463.5880389699989,0.3045189999975264,464.0316543000081,464.0316543000081,m,0.6158044000039808,465.82450050000625,465.82450050000625,71,1.123,,,,,sub-050,35,55,700,bloc_loop.csv,2023-09-20_13h50.47.440,PainUncertainty,2022.2.5,144.25122795396308,
grave,forte,stimuli/330Hz,stimuli/forte,bloc_1,prob20hthp_12trials.xlsx,4,48,20,80,0,,,,,0,0,0,0,2,3,27,3,,,,,,,,3,465.82450050000625,468.82460439999704,468.8244680699965,0.3053936999931466,469.2723788000003,469.2723788000003,m,1.1376640999951633,471.4334804999962,471.4334804999962,80,0.969,,,,,sub-050,35,55,700,bloc_loop.csv,2023-09-20_13h50.47.440,PainUncertainty,2022.2.5,144.25122795396308,
aigu,moderee,stimuli/660Hz,stimuli/moderee,bloc_1,prob20hthp_12trials.xlsx,4,48,20,80,0,,,,,0,0,0,0,2,4,28,8,,,,,,,,4.4,471.4334804999962,475.8389807000058,475.83921356999343,0.30233350000344217,476.28551669999433,476.28551669999433,n,0.6838459999999031,477.9528016999975,477.9528016999975,12,0.92,,,,,sub-050,35,55,700,bloc_loop.csv,2023-09-20_13h50.47.440,PainUncertainty,2022.2.5,144.25122795396308,
aigu,forte,stimuli/660Hz,stimuli/forte,bloc_1,prob20hthp_12trials.xlsx,4,48,20,80,0,,,,,0,0,0,0,2,5,29,11,,,,,,,,5,477.9528016999975,482.9583871000068,482.9583441700044,0.3016051000013249,483.40537989999575,483.40537989999575,None,,488.4509495999955,488.4509495999955,28,2.539,,,,,sub-050,35,55,700,bloc_loop.csv,2023-09-20_13h50.47.440,PainUncertainty,2022.2.5,144.25122795396308,
grave,forte,stimuli/330Hz,stimuli/forte,bloc_1,prob20hthp_12trials.xlsx,4,48,20,80,0,,,,,0,0,0,0,2,6,30,0,,,,,,,,4.3,488.4509495999955,492.75079130000086,492.7507615699971,0.3052449000097113,493.1949903000059,493.1949903000059,m,0.5259054000052856,496.2032410999964,496.2032410999964,73,2.389,,,,,sub-050,35,55,700,bloc_loop.csv,2023-09-20_13h50.47.440,PainUncertainty,2022.2.5,144.25122795396308,
grave,forte,stimuli/330Hz,stimuli/forte,bloc_1,prob20hthp_12trials.xlsx,4,48,20,80,0,,,,,0,0,0,0,2,7,31,1,,,,,,,,3.1,496.2032410999964,499.30715550000605,499.3071318700051,0.3009501999913482,499.75181250000605,499.75181250000605,m,0.46447389999229927,501.15566730000137,501.15566730000137,77,0.885,,,,,sub-050,35,55,700,bloc_loop.csv,2023-09-20_13h50.47.440,PainUncertainty,2022.2.5,144.25122795396308,
aigu,moderee,stimuli/660Hz,stimuli/moderee,bloc_1,prob20hthp_12trials.xlsx,4,48,20,80,0,,,,,0,0,0,0,2,8,32,6,,,,,,,,3.1,501.15566730000137,504.2589447000064,504.25896327000663,0.30506279999099206,504.7030339000048,504.7030339000048,n,0.49423399999795947,508.1724097999977,508.1724097999977,12,2.907,,,,,sub-050,35,55,700,bloc_loop.csv,2023-09-20_13h50.47.440,PainUncertainty,2022.2.5,144.25122795396308,
grave,forte,stimuli/330Hz,stimuli/forte,bloc_1,prob20hthp_12trials.xlsx,4,48,20,80,0,,,,,0,0,0,0,2,9,33,4,,,,,,,,3.4,508.1724097999977,511.57227180000336,511.57243007000505,0.3049810999946203,512.0164046999998,512.0164046999998,m,0.9171469000139041,514.0996368000051,514.0996368000051,71,1.106,,,,,sub-050,35,55,700,bloc_loop.csv,2023-09-20_13h50.47.440,PainUncertainty,2022.2.5,144.25122795396308,
aigu,moderee,stimuli/660Hz,stimuli/moderee,bloc_1,prob20hthp_12trials.xlsx,4,48,20,80,0,,,,,0,0,0,0,2,10,34,10,,,,,,,,3.2,514.0996368000051,517.3025291999948,517.3029815699949,0.30444180000631604,517.7464435000002,517.7464435000002,n,0.5114680999977281,519.2619197000022,519.2619197000022,20,0.942,,,,,sub-050,35,55,700,bloc_loop.csv,2023-09-20_13h50.47.440,PainUncertainty,2022.2.5,144.25122795396308,
aigu,moderee,stimuli/660Hz,stimuli/moderee,bloc_1,prob20hthp_12trials.xlsx,4,48,20,80,0,,,,,0,0,0,0,2,11,35,9,,,,,,,,3.5,519.2619197000022,522.7610868000047,522.7611099699964,0.30506539999623783,523.2055468000035,523.2055468000035,n,0.6033379000145942,524.9030959999945,524.9030959999945,15,1.03,,,,,sub-050,35,55,700,bloc_loop.csv,2023-09-20_13h50.47.440,PainUncertainty,2022.2.5,144.25122795396308,
grave,forte,stimuli/330Hz,stimuli/forte,bloc_1,prob20hthp_12trials.xlsx,4,48,20,80,0,,,,,0,0,0,0,3,0,36,4,,,,,,,,4.3,524.9030959999945,529.2069239999983,529.2066732699998,0.3053215999971144,529.6543347999977,529.6543347999977,m,0.4955571000027703,532.9394881000044,532.9394881000044,78,2.74,,,,,sub-050,35,55,700,bloc_loop.csv,2023-09-20_13h50.47.440,PainUncertainty,2022.2.5,144.25122795396308,
grave,forte,stimuli/330Hz,stimuli/forte,bloc_1,prob20hthp_12trials.xlsx,4,48,20,80,0,,,,,0,0,0,0,3,1,37,1,,,,,,,,4.6,532.9394881000044,537.5406033000036,537.5407889699957,0.30475830000068527,537.9848118000082,537.9848118000082,m,0.49197170000115875,540.1305770000035,540.1305770000035,77,1.602,,,,,sub-050,35,55,700,bloc_loop.csv,2023-09-20_13h50.47.440,PainUncertainty,2022.2.5,144.25122795396308,
grave,forte,stimuli/330Hz,stimuli/forte,bloc_1,prob20hthp_12trials.xlsx,4,48,20,80,0,,,,,0,0,0,0,3,2,38,0,,,,,,,,3.1,540.1305770000035,543.2357035000023,543.2358152699992,0.3053155999950832,543.6870879000053,543.6870879000053,m,0.401125200005481,546.2677152999968,546.2677152999968,78,2.121,,,,,sub-050,35,55,700,bloc_loop.csv,2023-09-20_13h50.47.440,PainUncertainty,2022.2.5,144.25122795396308,
grave,forte,stimuli/330Hz,stimuli/forte,bloc_1,prob20hthp_12trials.xlsx,4,48,20,80,0,,,,,0,0,0,0,3,3,39,2,,,,,,,,4,546.2677152999968,550.2712619999947,550.2714696699943,0.30492120000417344,550.7225580999948,550.7225580999948,m,0.49300529999891296,552.9792404000036,552.9792404000036,69,1.706,,,,,sub-050,35,55,700,bloc_loop.csv,2023-09-20_13h50.47.440,PainUncertainty,2022.2.5,144.25122795396308,
aigu,moderee,stimuli/660Hz,stimuli/moderee,bloc_1,prob20hthp_12trials.xlsx,4,48,20,80,0,,,,,0,0,0,0,3,4,40,10,,,,,,,,3.2,552.9792404000036,556.1830576000066,556.1821813700037,0.30487790000915993,556.6258565000026,556.6258565000026,n,0.5594954000116559,558.4127855999977,558.4127855999977,23,1.164,,,,,sub-050,35,55,700,bloc_loop.csv,2023-09-20_13h50.47.440,PainUncertainty,2022.2.5,144.25122795396308,
grave,forte,stimuli/330Hz,stimuli/forte,bloc_1,prob20hthp_12trials.xlsx,4,48,20,80,0,,,,,0,0,0,0,3,5,41,3,,,,,,,,4.8,558.4127855999977,563.217266599997,563.2172498700049,0.3052923999930499,563.6640307000052,563.6640307000052,m,0.4150398000056157,566.019466800004,566.019466800004,78,1.877,,,,,sub-050,35,55,700,bloc_loop.csv,2023-09-20_13h50.47.440,PainUncertainty,2022.2.5,144.25122795396308,
aigu,forte,stimuli/660Hz,stimuli/forte,bloc_1,prob20hthp_12trials.xlsx,4,48,20,80,0,,,,,0,0,0,0,3,6,42,11,,,,,,,,4,566.019466800004,570.0239403000014,570.024034569996,0.30506849999073893,570.4680211999948,570.4680211999948,n,1.688438600001973,574.8416709000012,574.8416709000012,36,2.614,,,,,sub-050,35,55,700,bloc_loop.csv,2023-09-20_13h50.47.440,PainUncertainty,2022.2.5,144.25122795396308,
aigu,moderee,stimuli/660Hz,stimuli/moderee,bloc_1,prob20hthp_12trials.xlsx,4,48,20,80,0,,,,,0,0,0,0,3,7,43,8,,,,,,,,4.6,574.8416709000012,579.4414232999989,579.4416275700016,0.30490370000188705,579.8879830000078,579.8879830000078,n,0.5530145000084303,582.5420868000074,582.5420868000074,23,2.053,,,,,sub-050,35,55,700,bloc_loop.csv,2023-09-20_13h50.47.440,PainUncertainty,2022.2.5,144.25122795396308,
grave,moderee,stimuli/330Hz,stimuli/moderee,bloc_1,prob20hthp_12trials.xlsx,4,48,20,80,0,,,,,0,0,0,0,3,8,44,5,,,,,,,,3,582.5420868000074,585.5462512999948,585.5463358700028,0.3051214000006439,585.9903882000071,585.9903882000071,n,1.3438581000082195,590.0705008000077,590.0705008000077,24,2.67,,,,,sub-050,35,55,700,bloc_loop.csv,2023-09-20_13h50.47.440,PainUncertainty,2022.2.5,144.25122795396308,
aigu,moderee,stimuli/660Hz,stimuli/moderee,bloc_1,prob20hthp_12trials.xlsx,4,48,20,80,0,,,,,0,0,0,0,3,9,45,6,,,,,,,,4.3,590.0705008000077,594.374140800006,594.3741487699983,0.3052416999998968,594.8227221999987,594.8227221999987,n,0.47937159999855794,596.1250434999965,596.1250434999965,15,0.767,,,,,sub-050,35,55,700,bloc_loop.csv,2023-09-20_13h50.47.440,PainUncertainty,2022.2.5,144.25122795396308,
aigu,moderee,stimuli/660Hz,stimuli/moderee,bloc_1,prob20hthp_12trials.xlsx,4,48,20,80,0,,,,,0,0,0,0,3,10,46,9,,,,,,,,4.5,596.1250434999965,600.6247330000042,600.6247922699943,0.3050832000008086,601.0712954000046,601.0712954000046,n,0.4468704000028083,602.4050780999969,602.4050780999969,10,0.835,,,,,sub-050,35,55,700,bloc_loop.csv,2023-09-20_13h50.47.440,PainUncertainty,2022.2.5,144.25122795396308,
aigu,moderee,stimuli/660Hz,stimuli/moderee,bloc_1,prob20hthp_12trials.xlsx,4,48,20,80,0,,,,,0,0,0,0,3,11,47,7,,,,,,,,3.3,602.4050780999969,605.7086658000044,605.7086959700057,0.3048198000033153,606.1524805999943,606.1524805999943,n,0.4658966999995755,609.8364444000035,609.8364444000035,10,3.163,,,,,sub-050,35,55,700,bloc_loop.csv,2023-09-20_13h50.47.440,PainUncertainty,2022.2.5,144.25122795396308,
aigu,moderee,stimuli/660Hz,stimuli/moderee,bloc_2,prob50_50_4trials.xlsx,2,8,50,50,1,,,,,0,1,1,1,0,0,0,2,,,,,,,,3.3,609.8364444000035,613.1397247999994,613.1397798700011,0.3051112999964971,613.5839622000058,613.5839622000058,n,0.47752329999639187,617.587572400007,617.587572400007,9,3.469,,,,,sub-050,35,55,700,bloc_loop.csv,2023-09-20_13h50.47.440,PainUncertainty,2022.2.5,144.25122795396308,
grave,forte,stimuli/330Hz,stimuli/forte,bloc_2,prob50_50_4trials.xlsx,2,8,50,50,1,,,,,0,1,1,1,0,1,1,1,,,,,,,,4.8,617.587572400007,622.3907851999975,622.3908218700046,0.3052867999940645,622.834981299995,622.834981299995,m,0.5112858000065899,624.4579047000007,624.4579047000007,78,1.051,,,,,sub-050,35,55,700,bloc_loop.csv,2023-09-20_13h50.47.440,PainUncertainty,2022.2.5,144.25122795396308,
grave,moderee,stimuli/330Hz,stimuli/moderee,bloc_2,prob50_50_4trials.xlsx,2,8,50,50,1,,,,,0,1,1,1,0,2,2,0,,,,,,,,4.1,624.4579047000007,628.5582809000043,628.5583933700066,0.3017503000010038,629.0035303000041,629.0035303000041,None,,633.6316402999946,633.6316402999946,37,2.129,631.4697721999983,631.4697721999983,,,sub-050,35,55,700,bloc_loop.csv,2023-09-20_13h50.47.440,PainUncertainty,2022.2.5,144.25122795396308,
aigu,forte,stimuli/660Hz,stimuli/forte,bloc_2,prob50_50_4trials.xlsx,2,8,50,50,1,,,,,0,1,1,1,0,3,3,3,,,,,,,,3.9,633.6316402999946,637.5318211999984,637.5319083699972,0.30521439999574795,637.9797156999994,637.9797156999994,m,0.8716806000011275,640.0066999999981,640.0066999999981,70,1.101,,,,,sub-050,35,55,700,bloc_loop.csv,2023-09-20_13h50.47.440,PainUncertainty,2022.2.5,144.25122795396308,
grave,forte,stimuli/330Hz,stimuli/forte,bloc_2,prob50_50_4trials.xlsx,2,8,50,50,1,,,,,0,1,1,1,1,0,4,1,,,,,,,,3.4,640.0066999999981,643.4071597000002,643.4072085699984,0.30517540000437293,643.855215100004,643.855215100004,m,0.7576015000086045,645.9526997000066,645.9526997000066,78,1.275,,,,,sub-050,35,55,700,bloc_loop.csv,2023-09-20_13h50.47.440,PainUncertainty,2022.2.5,144.25122795396308,
aigu,forte,stimuli/660Hz,stimuli/forte,bloc_2,prob50_50_4trials.xlsx,2,8,50,50,1,,,,,0,1,1,1,1,1,5,3,,,,,,,,4.7,645.9526997000066,650.6580729999987,650.6581222699999,0.30279349999909755,651.1040672999952,651.1040672999952,m,1.896418200005428,654.2307847000047,654.2307847000047,59,1.161,,,,,sub-050,35,55,700,bloc_loop.csv,2023-09-20_13h50.47.440,PainUncertainty,2022.2.5,144.25122795396308,
aigu,moderee,stimuli/660Hz,stimuli/moderee,bloc_2,prob50_50_4trials.xlsx,2,8,50,50,1,,,,,0,1,1,1,1,2,6,2,,,,,,,,3.8,654.2307847000047,658.0339772000007,658.0340400700036,0.30508959999133367,658.4826498000039,658.4826498000039,n,0.5185952000028919,659.8384645000042,659.8384645000042,17,0.773,,,,,sub-050,35,55,700,bloc_loop.csv,2023-09-20_13h50.47.440,PainUncertainty,2022.2.5,144.25122795396308,
grave,moderee,stimuli/330Hz,stimuli/moderee,bloc_2,prob50_50_4trials.xlsx,2,8,50,50,1,,,,,0,1,1,1,1,3,7,0,,,,,,,,4.3,659.8384645000042,664.1387548000057,664.1389024699995,0.3047921999968821,664.5830280999944,664.5830280999944,n,1.5892915000003995,670.6248806000076,670.6248806000076,26,2.418,,,,,sub-050,35,55,700,bloc_loop.csv,2023-09-20_13h50.47.440,PainUncertainty,2022.2.5,144.25122795396308,
,,,,bloc_2,prob50_50_4trials.xlsx,2,8,50,50,1,,,,,0,1,1,1,,,,,0,0,0,0,,,,,,,,,,,,,,,,,,,670.6248806000076,691.4614991999988,sub-050,35,55,700,bloc_loop.csv,2023-09-20_13h50.47.440,PainUncertainty,2022.2.5,144.25122795396308,
grave,forte,stimuli/330Hz,stimuli/forte,bloc_3,prob80hthp_12trials.xlsx,2,24,80,20,0,,,,,0,2,2,2,0,0,0,5,,,,,,,,3.6,692.4076954000047,696.0109665000055,696.0109922700024,0.30495649999647867,696.4552265999955,696.4552265999955,m,0.6623693000001367,698.1757637999981,698.1757637999981,71,0.996,,,,,sub-050,35,55,700,bloc_loop.csv,2023-09-20_13h50.47.440,PainUncertainty,2022.2.5,144.25122795396308,
grave,moderee,stimuli/330Hz,stimuli/moderee,bloc_3,prob80hthp_12trials.xlsx,2,24,80,20,0,,,,,0,2,2,2,0,1,1,1,,,,,,,,4.3,698.1757637999981,702.4767156000016,702.4766614700013,0.30513969999447,702.921359800006,702.921359800006,n,0.720363800006453,705.9726521999983,705.9726521999983,23,2.281,,,,,sub-050,35,55,700,bloc_loop.csv,2023-09-20_13h50.47.440,PainUncertainty,2022.2.5,144.25122795396308,
aigu,forte,stimuli/660Hz,stimuli/forte,bloc_3,prob80hthp_12trials.xlsx,2,24,80,20,0,,,,,0,2,2,2,0,2,2,8,,,,,,,,3.7,705.9726521999983,709.6719410000078,709.6719961699957,0.3052675999933854,710.1163880999957,710.1163880999957,m,1.046253100008471,712.7000499999995,712.7000499999995,76,1.482,,,,,sub-050,35,55,700,bloc_loop.csv,2023-09-20_13h50.47.440,PainUncertainty,2022.2.5,144.25122795396308,
aigu,forte,stimuli/660Hz,stimuli/forte,bloc_3,prob80hthp_12trials.xlsx,2,24,80,20,0,,,,,0,2,2,2,0,3,3,9,,,,,,,,4.8,712.7000499999995,717.4993897999957,717.4993827700048,0.30564639999647625,717.9461278999952,717.9461278999952,m,1.010687300004065,719.7957677999948,719.7957677999948,74,0.789,,,,,sub-050,35,55,700,bloc_loop.csv,2023-09-20_13h50.47.440,PainUncertainty,2022.2.5,144.25122795396308,
aigu,moderee,stimuli/660Hz,stimuli/moderee,bloc_3,prob80hthp_12trials.xlsx,2,24,80,20,0,,,,,0,2,2,2,0,4,4,11,,,,,,,,3,719.7957677999948,722.7986165000038,722.7988272699979,0.30489130000933073,723.2430263999995,723.2430263999995,n,0.5457499999902211,725.1510213000001,725.1510213000001,19,1.295,,,,,sub-050,35,55,700,bloc_loop.csv,2023-09-20_13h50.47.440,PainUncertainty,2022.2.5,144.25122795396308,
aigu,forte,stimuli/660Hz,stimuli/forte,bloc_3,prob80hthp_12trials.xlsx,2,24,80,20,0,,,,,0,2,2,2,0,5,5,6,,,,,,,,3.3,725.1510213000001,728.4519605999958,728.4522134700048,0.305376599993906,728.9011633000046,728.9011633000046,m,0.5707542000018293,732.9486311000073,732.9486311000073,72,3.419,,,,,sub-050,35,55,700,bloc_loop.csv,2023-09-20_13h50.47.440,PainUncertainty,2022.2.5,144.25122795396308,
aigu,forte,stimuli/660Hz,stimuli/forte,bloc_3,prob80hthp_12trials.xlsx,2,24,80,20,0,,,,,0,2,2,2,0,6,6,10,,,,,,,,4,732.9486311000073,736.9528916999989,736.9532782700073,0.30532400000083726,737.4000281000044,737.4000281000044,m,0.5850660000141943,740.0428641000035,740.0428641000035,70,1.997,,,,,sub-050,35,55,700,bloc_loop.csv,2023-09-20_13h50.47.440,PainUncertainty,2022.2.5,144.25122795396308,
grave,moderee,stimuli/330Hz,stimuli/moderee,bloc_3,prob80hthp_12trials.xlsx,2,24,80,20,0,,,,,0,2,2,2,0,7,7,2,,,,,,,,3.4,740.0428641000035,743.4467198000057,743.4470129700014,0.300261699987459,743.8917440000077,743.8917440000077,n,0.542185199999949,745.4595095999975,745.4595095999975,6,0.969,,,,,sub-050,35,55,700,bloc_loop.csv,2023-09-20_13h50.47.440,PainUncertainty,2022.2.5,144.25122795396308,
aigu,forte,stimuli/660Hz,stimuli/forte,bloc_3,prob80hthp_12trials.xlsx,2,24,80,20,0,,,,,0,2,2,2,0,8,8,7,,,,,,,,4.2,745.4595095999975,749.6630123000068,749.6628371700019,0.3051664999948116,750.1072150999971,750.1072150999971,m,0.4879242000024533,752.0432983000064,752.0432983000064,83,1.392,,,,,sub-050,35,55,700,bloc_loop.csv,2023-09-20_13h50.47.440,PainUncertainty,2022.2.5,144.25122795396308,
grave,moderee,stimuli/330Hz,stimuli/moderee,bloc_3,prob80hthp_12trials.xlsx,2,24,80,20,0,,,,,0,2,2,2,0,9,9,0,,,,,,,,3.1,752.0432983000064,755.1426021999941,755.1427221699953,0.30508229999395553,755.5870671000011,755.5870671000011,n,0.43899990001227707,758.0536244999967,758.0536244999967,16,1.963,,,,,sub-050,35,55,700,bloc_loop.csv,2023-09-20_13h50.47.440,PainUncertainty,2022.2.5,144.25122795396308,
grave,moderee,stimuli/330Hz,stimuli/moderee,bloc_3,prob80hthp_12trials.xlsx,2,24,80,20,0,,,,,0,2,2,2,0,10,10,4,,,,,,,,3,758.0536244999967,761.0531134000048,761.0532006700043,0.30485220000264235,761.4976540000062,761.4976540000062,n,0.5612648000096669,764.1916897000046,764.1916897000046,17,2.067,,,,,sub-050,35,55,700,bloc_loop.csv,2023-09-20_13h50.47.440,PainUncertainty,2022.2.5,144.25122795396308,
grave,moderee,stimuli/330Hz,stimuli/moderee,bloc_3,prob80hthp_12trials.xlsx,2,24,80,20,0,,,,,0,2,2,2,0,11,11,3,,,,,,,,3.7,764.1916897000046,767.8941515000042,767.8942593700006,0.30544309999095276,768.3415275000007,768.3415275000007,n,0.443367700005183,770.8692235000053,770.8692235000053,13,1.99,,,,,sub-050,35,55,700,bloc_loop.csv,2023-09-20_13h50.47.440,PainUncertainty,2022.2.5,144.25122795396308,
aigu,forte,stimuli/660Hz,stimuli/forte,bloc_3,prob80hthp_12trials.xlsx,2,24,80,20,0,,,,,0,2,2,2,1,0,12,9,,,,,,,,4.9,770.8692235000053,775.7699130999972,775.7699916700033,0.3048821999982465,776.2144487000041,776.2144487000041,m,0.8310017000039807,778.0751717999956,778.0751717999956,76,0.97,,,,,sub-050,35,55,700,bloc_loop.csv,2023-09-20_13h50.47.440,PainUncertainty,2022.2.5,144.25122795396308,
aigu,forte,stimuli/660Hz,stimuli/forte,bloc_3,prob80hthp_12trials.xlsx,2,24,80,20,0,,,,,0,2,2,2,1,1,13,7,,,,,,,,3.7,778.0751717999956,781.7776318999968,781.7777994699966,0.3048200000048382,782.2218355000077,782.2218355000077,n,1.7885922999994364,786.4017422000034,786.4017422000034,35,2.335,,,,,sub-050,35,55,700,bloc_loop.csv,2023-09-20_13h50.47.440,PainUncertainty,2022.2.5,144.25122795396308,
aigu,forte,stimuli/660Hz,stimuli/forte,bloc_3,prob80hthp_12trials.xlsx,2,24,80,20,0,,,,,0,2,2,2,1,2,14,10,,,,,,,,3.7,786.4017422000034,790.1050937999971,790.1051319700011,0.30540660000406206,790.5531797000003,790.5531797000003,m,1.2023366000066744,794.2961772999988,794.2961772999988,59,2.475,,,,,sub-050,35,55,700,bloc_loop.csv,2023-09-20_13h50.47.440,PainUncertainty,2022.2.5,144.25122795396308,
aigu,forte,stimuli/660Hz,stimuli/forte,bloc_3,prob80hthp_12trials.xlsx,2,24,80,20,0,,,,,0,2,2,2,1,3,15,6,,,,,,,,3,794.2961772999988,797.302906900004,797.3007054699949,0.30481449999206234,797.7450248999958,797.7450248999958,m,0.6326144999911776,800.7988655999943,800.7988655999943,66,2.358,,,,,sub-050,35,55,700,bloc_loop.csv,2023-09-20_13h50.47.440,PainUncertainty,2022.2.5,144.25122795396308,
aigu,moderee,stimuli/660Hz,stimuli/moderee,bloc_3,prob80hthp_12trials.xlsx,2,24,80,20,0,,,,,0,2,2,2,1,4,16,11,,,,,,,,4.3,800.7988655999943,805.0998594999983,805.0999514700045,0.30510109999158885,805.544141499995,805.544141499995,n,0.5349363999994239,807.9096812000062,807.9096812000062,11,1.781,,,,,sub-050,35,55,700,bloc_loop.csv,2023-09-20_13h50.47.440,PainUncertainty,2022.2.5,144.25122795396308,
grave,moderee,stimuli/330Hz,stimuli/moderee,bloc_3,prob80hthp_12trials.xlsx,2,24,80,20,0,,,,,0,2,2,2,1,5,17,4,,,,,,,,4.5,807.9096812000062,812.4132288999972,812.4133590700033,0.30541630000516307,812.8614627000061,812.8614627000061,n,0.6028544000000693,815.9172483000002,815.9172483000002,16,2.393,,,,,sub-050,35,55,700,bloc_loop.csv,2023-09-20_13h50.47.440,PainUncertainty,2022.2.5,144.25122795396308,
grave,moderee,stimuli/330Hz,stimuli/moderee,bloc_3,prob80hthp_12trials.xlsx,2,24,80,20,0,,,,,0,2,2,2,1,6,18,2,,,,,,,,3.6,815.9172483000002,819.5183033000067,819.5184891700003,0.3015414999972563,819.9632624000078,819.9632624000078,n,0.6294342999899527,822.5980096999992,822.5980096999992,12,1.942,,,,,sub-050,35,55,700,bloc_loop.csv,2023-09-20_13h50.47.440,PainUncertainty,2022.2.5,144.25122795396308,
aigu,forte,stimuli/660Hz,stimuli/forte,bloc_3,prob80hthp_12trials.xlsx,2,24,80,20,0,,,,,0,2,2,2,1,7,19,8,,,,,,,,3.2,822.5980096999992,825.803665600004,825.8040011700025,0.30532169999787584,826.2486495000048,826.2486495000048,m,0.4310732000012649,827.6452289000008,827.6452289000008,78,0.908,,,,,sub-050,35,55,700,bloc_loop.csv,2023-09-20_13h50.47.440,PainUncertainty,2022.2.5,144.25122795396308,
grave,moderee,stimuli/330Hz,stimuli/moderee,bloc_3,prob80hthp_12trials.xlsx,2,24,80,20,0,,,,,0,2,2,2,1,8,20,0,,,,,,,,4,827.6452289000008,831.6447665000014,831.6448824700012,0.3049736000102712,832.0889068999968,832.0889068999968,n,0.5223887000029208,835.9724329000019,835.9724329000019,13,3.303,,,,,sub-050,35,55,700,bloc_loop.csv,2023-09-20_13h50.47.440,PainUncertainty,2022.2.5,144.25122795396308,
grave,moderee,stimuli/330Hz,stimuli/moderee,bloc_3,prob80hthp_12trials.xlsx,2,24,80,20,0,,,,,0,2,2,2,1,9,21,3,,,,,,,,3.8,835.9724329000019,839.7777189000044,839.7777173699972,0.3048879999987548,840.2218092999974,840.2218092999974,n,0.4440154000039911,842.6987608000054,842.6987608000054,15,1.97,,,,,sub-050,35,55,700,bloc_loop.csv,2023-09-20_13h50.47.440,PainUncertainty,2022.2.5,144.25122795396308,
grave,moderee,stimuli/330Hz,stimuli/moderee,bloc_3,prob80hthp_12trials.xlsx,2,24,80,20,0,,,,,0,2,2,2,1,10,22,1,,,,,,,,4.3,842.6987608000054,847.0007183999987,847.0008804700003,0.30501100000401493,847.4448468000046,847.4448468000046,n,0.46168850001413375,850.8323821999948,850.8323821999948,15,2.873,,,,,sub-050,35,55,700,bloc_loop.csv,2023-09-20_13h50.47.440,PainUncertainty,2022.2.5,144.25122795396308,
grave,forte,stimuli/330Hz,stimuli/forte,bloc_3,prob80hthp_12trials.xlsx,2,24,80,20,0,,,,,0,2,2,2,1,11,23,5,,,,,,,,4.5,850.8323821999948,855.3352657000069,855.3357413699953,0.30498820000502747,855.7844830999966,855.7844830999966,m,1.2762083999987226,858.0075307999941,858.0075307999941,69,0.879,,,,,sub-050,35,55,700,bloc_loop.csv,2023-09-20_13h50.47.440,PainUncertainty,2022.2.5,144.25122795396308,
grave,forte,stimuli/330Hz,stimuli/forte,bloc_4,prob50_50_4trials.xlsx,2,8,50,50,1,,,,,0,3,3,3,0,0,0,1,,,,,,,,4.9,858.0075307999941,862.9123410000029,862.9123466700069,0.3050812000001315,863.356477399997,863.356477399997,m,0.5059302000008756,865.3435711000056,865.3435711000056,76,1.427,,,,,sub-050,35,55,700,bloc_loop.csv,2023-09-20_13h50.47.440,PainUncertainty,2022.2.5,144.25122795396308,
grave,moderee,stimuli/330Hz,stimuli/moderee,bloc_4,prob50_50_4trials.xlsx,2,8,50,50,1,,,,,0,3,3,3,0,1,1,0,,,,,,,,3.7,865.3435711000056,869.0453034999955,869.0468147699969,0.3036117000010563,869.4929426000017,869.4929426000017,n,0.642470399994636,871.8474781999976,871.8474781999976,21,1.664,,,,,sub-050,35,55,700,bloc_loop.csv,2023-09-20_13h50.47.440,PainUncertainty,2022.2.5,144.25122795396308,
aigu,forte,stimuli/660Hz,stimuli/forte,bloc_4,prob50_50_4trials.xlsx,2,8,50,50,1,,,,,0,3,3,3,0,2,2,3,,,,,,,,5,871.8474781999976,876.8517358999961,876.8516820699981,0.3050223000027472,877.2954915000009,877.2954915000009,m,0.41134900000179186,879.3567866999947,879.3567866999947,72,1.595,,,,,sub-050,35,55,700,bloc_loop.csv,2023-09-20_13h50.47.440,PainUncertainty,2022.2.5,144.25122795396308,
aigu,moderee,stimuli/660Hz,stimuli/moderee,bloc_4,prob50_50_4trials.xlsx,2,8,50,50,1,,,,,0,3,3,3,0,3,3,2,,,,,,,,4.6,879.3567866999947,883.9568591999996,883.9569941699986,0.3048105000052601,884.4042043000081,884.4042043000081,n,0.7741872000042349,887.9858529000048,887.9858529000048,35,2.747,,,,,sub-050,35,55,700,bloc_loop.csv,2023-09-20_13h50.47.440,PainUncertainty,2022.2.5,144.25122795396308,
aigu,moderee,stimuli/660Hz,stimuli/moderee,bloc_4,prob50_50_4trials.xlsx,2,8,50,50,1,,,,,0,3,3,3,1,0,4,2,,,,,,,,3.6,887.9858529000048,891.5892397999996,891.5893848700027,0.30117439999594353,892.0340111999976,892.0340111999976,n,0.7858730000007199,895.6416137000051,895.6416137000051,21,2.752,,,,,sub-050,35,55,700,bloc_loop.csv,2023-09-20_13h50.47.440,PainUncertainty,2022.2.5,144.25122795396308,
aigu,forte,stimuli/660Hz,stimuli/forte,bloc_4,prob50_50_4trials.xlsx,2,8,50,50,1,,,,,0,3,3,3,1,1,5,3,,,,,,,,4.7,895.6416137000051,900.3471839999984,900.3472595699961,0.29983209999045357,900.7917057000013,900.7917057000013,m,0.6357730000017909,902.7682938000071,902.7682938000071,76,1.275,,,,,sub-050,35,55,700,bloc_loop.csv,2023-09-20_13h50.47.440,PainUncertainty,2022.2.5,144.25122795396308,
grave,moderee,stimuli/330Hz,stimuli/moderee,bloc_4,prob50_50_4trials.xlsx,2,8,50,50,1,,,,,0,3,3,3,1,2,6,0,,,,,,,,3.5,902.7682938000071,906.2714763999975,906.2715759700034,0.30525109999871347,906.7156409000017,906.7156409000017,n,0.47306299999763723,909.0335911000002,909.0335911000002,29,1.788,,,,,sub-050,35,55,700,bloc_loop.csv,2023-09-20_13h50.47.440,PainUncertainty,2022.2.5,144.25122795396308,
grave,forte,stimuli/330Hz,stimuli/forte,bloc_4,prob50_50_4trials.xlsx,2,8,50,50,1,,,,,0,3,3,3,1,3,7,1,,,,,,,,3,909.0335911000002,912.0360723000049,912.0362868699988,0.30533740000100806,912.4829044000071,912.4829044000071,m,0.7513233000063337,918.5179524999985,918.5179524999985,71,3.253,,,,,sub-050,35,55,700,bloc_loop.csv,2023-09-20_13h50.47.440,PainUncertainty,2022.2.5,144.25122795396308,
,,,,bloc_4,prob50_50_4trials.xlsx,2,8,50,50,1,,,,,0,3,3,3,,,,,0,0,0,0,,,,,,,,,,,,,,,,,,,918.5179524999985,1237.7206926000072,sub-050,35,55,700,bloc_loop.csv,2023-09-20_13h50.47.440,PainUncertainty,2022.2.5,144.25122795396308,
grave,forte,stimuli/330Hz,stimuli/forte,bloc_5,prob20hthp_12trials.xlsx,2,24,20,80,0,,,,,0,4,4,4,0,0,0,4,,,,,,,,4.3,1238.975927899999,1243.2764970999997,1243.2765545700051,0.3051582999905804,1243.720592800004,1243.720592800004,m,0.9684502000018256,1246.0214882,1246.0214882,70,1.275,,,,,sub-050,35,55,700,bloc_loop.csv,2023-09-20_13h50.47.440,PainUncertainty,2022.2.5,144.25122795396308,
aigu,forte,stimuli/660Hz,stimuli/forte,bloc_5,prob20hthp_12trials.xlsx,2,24,20,80,0,,,,,0,4,4,4,0,1,1,11,,,,,,,,4.4,1246.0214882,1250.4230263000063,1250.423135870001,0.30515960000047926,1250.8673982000037,1250.8673982000037,m,1.384353799992823,1253.1167133999988,1253.1167133999988,65,0.802,,,,,sub-050,35,55,700,bloc_loop.csv,2023-09-20_13h50.47.440,PainUncertainty,2022.2.5,144.25122795396308,
aigu,moderee,stimuli/660Hz,stimuli/moderee,bloc_5,prob20hthp_12trials.xlsx,2,24,20,80,0,,,,,0,4,4,4,0,2,2,10,,,,,,,,4.8,1253.1167133999988,1257.9170990999992,1257.9174636700002,0.30495729998801835,1258.361269999994,1258.361269999994,n,0.5559708000073442,1261.667068900002,1261.667068900002,20,2.691,,,,,sub-050,35,55,700,bloc_loop.csv,2023-09-20_13h50.47.440,PainUncertainty,2022.2.5,144.25122795396308,
grave,forte,stimuli/330Hz,stimuli/forte,bloc_5,prob20hthp_12trials.xlsx,2,24,20,80,0,,,,,0,4,4,4,0,3,3,2,,,,,,,,4.4,1261.667068900002,1266.0707678000035,1266.0709011700048,0.30515050000394695,1266.5151962999953,1266.5151962999953,m,0.6909603999956744,1268.8091605000081,1268.8091605000081,71,1.537,,,,,sub-050,35,55,700,bloc_loop.csv,2023-09-20_13h50.47.440,PainUncertainty,2022.2.5,144.25122795396308,
aigu,moderee,stimuli/660Hz,stimuli/moderee,bloc_5,prob20hthp_12trials.xlsx,2,24,20,80,0,,,,,0,4,4,4,0,4,4,9,,,,,,,,4.5,1268.8091605000081,1273.3150999000063,1273.315057370007,0.3050157000106992,1273.758855699998,1273.758855699998,n,0.5627652999974089,1276.2090069999977,1276.2090069999977,18,1.835,,,,,sub-050,35,55,700,bloc_loop.csv,2023-09-20_13h50.47.440,PainUncertainty,2022.2.5,144.25122795396308,
aigu,moderee,stimuli/660Hz,stimuli/moderee,bloc_5,prob20hthp_12trials.xlsx,2,24,20,80,0,,,,,0,4,4,4,0,5,5,7,,,,,,,,3.2,1276.2090069999977,1279.4129696000018,1279.413224469997,0.30495460001111496,1279.861069599996,1279.861069599996,n,0.43296219999319874,1281.097348700001,1281.097348700001,30,0.752,,,,,sub-050,35,55,700,bloc_loop.csv,2023-09-20_13h50.47.440,PainUncertainty,2022.2.5,144.25122795396308,
aigu,moderee,stimuli/660Hz,stimuli/moderee,bloc_5,prob20hthp_12trials.xlsx,2,24,20,80,0,,,,,0,4,4,4,0,6,6,8,,,,,,,,4.1,1281.097348700001,1285.198090100006,1285.1982326700047,0.3049899999896297,1285.642362300001,1285.642362300001,n,0.48544600000604987,1287.3643948999961,1287.3643948999961,18,1.171,,,,,sub-050,35,55,700,bloc_loop.csv,2023-09-20_13h50.47.440,PainUncertainty,2022.2.5,144.25122795396308,
aigu,moderee,stimuli/660Hz,stimuli/moderee,bloc_5,prob20hthp_12trials.xlsx,2,24,20,80,0,,,,,0,4,4,4,0,7,7,6,,,,,,,,4.3,1287.3643948999961,1291.664174599995,1291.6642046699956,0.3052826999919489,1292.1082552000007,1292.1082552000007,n,0.9319936999963829,1294.8405586000008,1294.8405586000008,26,1.738,,,,,sub-050,35,55,700,bloc_loop.csv,2023-09-20_13h50.47.440,PainUncertainty,2022.2.5,144.25122795396308,
grave,forte,stimuli/330Hz,stimuli/forte,bloc_5,prob20hthp_12trials.xlsx,2,24,20,80,0,,,,,0,4,4,4,0,8,8,3,,,,,,,,3.6,1294.8405586000008,1298.4426870000025,1298.4428098699966,0.30524010000226554,1298.8875950000074,1298.8875950000074,m,0.483099700009916,1300.2110944000015,1300.2110944000015,70,0.781,,,,,sub-050,35,55,700,bloc_loop.csv,2023-09-20_13h50.47.440,PainUncertainty,2022.2.5,144.25122795396308,
grave,forte,stimuli/330Hz,stimuli/forte,bloc_5,prob20hthp_12trials.xlsx,2,24,20,80,0,,,,,0,4,4,4,0,9,9,0,,,,,,,,4.2,1300.2110944000015,1304.4155793999962,1304.4156610699968,0.305016300000716,1304.8599512000073,1304.8599512000073,m,0.545434000014211,1306.858836600004,1306.858836600004,68,1.393,,,,,sub-050,35,55,700,bloc_loop.csv,2023-09-20_13h50.47.440,PainUncertainty,2022.2.5,144.25122795396308,
grave,forte,stimuli/330Hz,stimuli/forte,bloc_5,prob20hthp_12trials.xlsx,2,24,20,80,0,,,,,0,4,4,4,0,10,10,1,,,,,,,,4.4,1306.858836600004,1311.2639636999957,1311.2641664700016,0.3048792999907164,1311.7100949000014,1311.7100949000014,m,1.0756160000019008,1314.2247031000006,1314.2247031000006,71,1.38,,,,,sub-050,35,55,700,bloc_loop.csv,2023-09-20_13h50.47.440,PainUncertainty,2022.2.5,144.25122795396308,
grave,moderee,stimuli/330Hz,stimuli/moderee,bloc_5,prob20hthp_12trials.xlsx,2,24,20,80,0,,,,,0,4,4,4,0,11,11,5,,,,,,,,4.2,1314.2247031000006,1318.4243006000033,1318.4243889699967,0.3049481000052765,1318.8723752000078,1318.8723752000078,m,1.7833210000098916,1322.1031803000078,1322.1031803000078,58,1.385,,,,,sub-050,35,55,700,bloc_loop.csv,2023-09-20_13h50.47.440,PainUncertainty,2022.2.5,144.25122795396308,
aigu,moderee,stimuli/660Hz,stimuli/moderee,bloc_5,prob20hthp_12trials.xlsx,2,24,20,80,0,,,,,0,4,4,4,1,0,12,10,,,,,,,,3.8,1322.1031803000078,1325.9043563000014,1325.9044284700024,0.30521379999117926,1326.3510879999958,1326.3510879999958,n,0.5959195000032196,1329.5997593000066,1329.5997593000066,24,2.601,,,,,sub-050,35,55,700,bloc_loop.csv,2023-09-20_13h50.47.440,PainUncertainty,2022.2.5,144.25122795396308,
aigu,moderee,stimuli/660Hz,stimuli/moderee,bloc_5,prob20hthp_12trials.xlsx,2,24,20,80,0,,,,,0,4,4,4,1,1,13,9,,,,,,,,4.3,1329.5997593000066,1333.905243000001,1333.9052812700058,0.3051576999860117,1334.349476999996,1334.349476999996,n,0.6985489999933634,1336.6774633000023,1336.6774633000023,30,1.574,,,,,sub-050,35,55,700,bloc_loop.csv,2023-09-20_13h50.47.440,PainUncertainty,2022.2.5,144.25122795396308,
grave,moderee,stimuli/330Hz,stimuli/moderee,bloc_5,prob20hthp_12trials.xlsx,2,24,20,80,0,,,,,0,4,4,4,1,2,14,5,,,,,,,,3.4,1336.6774633000023,1340.0795777000021,1340.0796096700026,0.30526070001360495,1340.5236771000054,1340.5236771000054,None,,1344.890817499996,1344.890817499996,57,1.865,1342.991699399994,1342.991699399994,,,sub-050,35,55,700,bloc_loop.csv,2023-09-20_13h50.47.440,PainUncertainty,2022.2.5,144.25122795396308,
aigu,moderee,stimuli/660Hz,stimuli/moderee,bloc_5,prob20hthp_12trials.xlsx,2,24,20,80,0,,,,,0,4,4,4,1,3,15,7,,,,,,,,3.2,1344.890817499996,1348.0948143999994,1348.0948485700021,0.30477869999594986,1348.5386023000028,1348.5386023000028,n,0.5161461000097916,1351.6040308000083,1351.6040308000083,28,2.49,,,,,sub-050,35,55,700,bloc_loop.csv,2023-09-20_13h50.47.440,PainUncertainty,2022.2.5,144.25122795396308,
grave,forte,stimuli/330Hz,stimuli/forte,bloc_5,prob20hthp_12trials.xlsx,2,24,20,80,0,,,,,0,4,4,4,1,4,16,2,,,,,,,,5,1351.6040308000083,1356.6092138999957,1356.6093074699995,0.3050498999946285,1357.0575472000055,1357.0575472000055,m,0.48088109999662265,1359.1297563999979,1359.1297563999979,78,1.531,,,,,sub-050,35,55,700,bloc_loop.csv,2023-09-20_13h50.47.440,PainUncertainty,2022.2.5,144.25122795396308,
grave,forte,stimuli/330Hz,stimuli/forte,bloc_5,prob20hthp_12trials.xlsx,2,24,20,80,0,,,,,0,4,4,4,1,5,17,3,,,,,,,,4.8,1359.1297563999979,1363.9298834000074,1363.9300780699953,0.3046338999993168,1364.3737215,1364.3737215,m,0.46898410000721924,1367.2314621999976,1367.2314621999976,84,2.337,,,,,sub-050,35,55,700,bloc_loop.csv,2023-09-20_13h50.47.440,PainUncertainty,2022.2.5,144.25122795396308,
grave,forte,stimuli/330Hz,stimuli/forte,bloc_5,prob20hthp_12trials.xlsx,2,24,20,80,0,,,,,0,4,4,4,1,6,18,0,,,,,,,,5,1367.2314621999976,1372.2361012000038,1372.2362272699932,0.30506009999953676,1372.680647400004,1372.680647400004,m,0.42485200001101475,1375.2861358000082,1375.2861358000082,78,2.111,,,,,sub-050,35,55,700,bloc_loop.csv,2023-09-20_13h50.47.440,PainUncertainty,2022.2.5,144.25122795396308,
grave,forte,stimuli/330Hz,stimuli/forte,bloc_5,prob20hthp_12trials.xlsx,2,24,20,80,0,,,,,0,4,4,4,1,7,19,4,,,,,,,,4.4,1375.2861358000082,1379.6884340999968,1379.6884943699945,0.3015205999981845,1380.132943100005,1380.132943100005,m,0.38509070000145584,1383.2280995000037,1383.2280995000037,78,2.658,,,,,sub-050,35,55,700,bloc_loop.csv,2023-09-20_13h50.47.440,PainUncertainty,2022.2.5,144.25122795396308,
grave,forte,stimuli/330Hz,stimuli/forte,bloc_5,prob20hthp_12trials.xlsx,2,24,20,80,0,,,,,0,4,4,4,1,8,20,1,,,,,,,,4.8,1383.2280995000037,1388.0296697000013,1388.029780470005,0.3049240000109421,1388.4737762000004,1388.4737762000004,m,0.416032199995243,1390.7073526000022,1390.7073526000022,74,1.752,,,,,sub-050,35,55,700,bloc_loop.csv,2023-09-20_13h50.47.440,PainUncertainty,2022.2.5,144.25122795396308,
aigu,forte,stimuli/660Hz,stimuli/forte,bloc_5,prob20hthp_12trials.xlsx,2,24,20,80,0,,,,,0,4,4,4,1,9,21,11,,,,,,,,4.1,1390.7073526000022,1394.8085385000013,1394.8085400700031,0.3007045999984257,1395.254071400006,1395.254071400006,m,0.9301660000055563,1398.121423100005,1398.121423100005,74,1.878,,,,,sub-050,35,55,700,bloc_loop.csv,2023-09-20_13h50.47.440,PainUncertainty,2022.2.5,144.25122795396308,
aigu,moderee,stimuli/660Hz,stimuli/moderee,bloc_5,prob20hthp_12trials.xlsx,2,24,20,80,0,,,,,0,4,4,4,1,10,22,8,,,,,,,,3,1398.121423100005,1401.121546800001,1401.1215648699974,0.3050839000061387,1401.5659124999947,1401.5659124999947,n,0.5774676000000909,1403.5542587999953,1403.5542587999953,22,1.35,,,,,sub-050,35,55,700,bloc_loop.csv,2023-09-20_13h50.47.440,PainUncertainty,2022.2.5,144.25122795396308,
aigu,moderee,stimuli/660Hz,stimuli/moderee,bloc_5,prob20hthp_12trials.xlsx,2,24,20,80,0,,,,,0,4,4,4,1,11,23,6,,,,,,,,5,1403.5542587999953,1408.5599708999944,1408.5599918699984,0.30056150000018533,1409.0041650000057,1409.0041650000057,n,0.8372185000043828,1411.098801,1411.098801,22,1.191,,,,,sub-050,35,55,700,bloc_loop.csv,2023-09-20_13h50.47.440,PainUncertainty,2022.2.5,144.25122795396308,
grave,moderee,stimuli/330Hz,stimuli/moderee,bloc_6,prob50_50_4trials.xlsx,2,8,50,50,0,,,,,0,5,5,5,0,0,0,0,,,,,,,,3.4,1411.098801,1414.4981569999945,1414.4980761699946,0.3022119999950519,1414.9434525999968,1414.9434525999968,n,0.6882507999980589,1416.7862537000037,1416.7862537000037,11,1.101,,,,,sub-050,35,55,700,bloc_loop.csv,2023-09-20_13h50.47.440,PainUncertainty,2022.2.5,144.25122795396308,
aigu,forte,stimuli/660Hz,stimuli/forte,bloc_6,prob50_50_4trials.xlsx,2,8,50,50,0,,,,,0,5,5,5,0,1,1,3,,,,,,,,4.6,1416.7862537000037,1421.3876965999953,1421.3877945700035,0.305187100006151,1421.832066700008,1421.832066700008,m,0.4722626000002492,1425.2243967999966,1425.2243967999966,78,2.858,,,,,sub-050,35,55,700,bloc_loop.csv,2023-09-20_13h50.47.440,PainUncertainty,2022.2.5,144.25122795396308,
aigu,moderee,stimuli/660Hz,stimuli/moderee,bloc_6,prob50_50_4trials.xlsx,2,8,50,50,0,,,,,0,5,5,5,0,2,2,2,,,,,,,,3.9,1425.2243967999966,1429.124802300008,1429.1248609699935,0.3055331999930786,1429.5745133000019,1429.5745133000019,n,0.556503400002839,1432.5760602999944,1432.5760602999944,28,2.394,,,,,sub-050,35,55,700,bloc_loop.csv,2023-09-20_13h50.47.440,PainUncertainty,2022.2.5,144.25122795396308,
grave,forte,stimuli/330Hz,stimuli/forte,bloc_6,prob50_50_4trials.xlsx,2,8,50,50,0,,,,,0,5,5,5,0,3,3,1,,,,,,,,3.6,1432.5760602999944,1436.181269599998,1436.1813760699981,0.30539339999086224,1436.6301703000063,1436.6301703000063,m,0.4347261999937473,1440.693595699995,1440.693595699995,80,3.574,,,,,sub-050,35,55,700,bloc_loop.csv,2023-09-20_13h50.47.440,PainUncertainty,2022.2.5,144.25122795396308,
aigu,forte,stimuli/660Hz,stimuli/forte,bloc_6,prob50_50_4trials.xlsx,2,8,50,50,0,,,,,0,5,5,5,1,0,4,3,,,,,,,,4,1440.693595699995,1444.6961598000053,1444.6962584700043,0.3054431999917142,1445.1450985999982,1445.1450985999982,m,1.2463638999906834,1448.1722328000033,1448.1722328000033,72,1.724,,,,,sub-050,35,55,700,bloc_loop.csv,2023-09-20_13h50.47.440,PainUncertainty,2022.2.5,144.25122795396308,
aigu,moderee,stimuli/660Hz,stimuli/moderee,bloc_6,prob50_50_4trials.xlsx,2,8,50,50,0,,,,,0,5,5,5,1,1,5,2,,,,,,,,4.6,1448.1722328000033,1452.7735159000003,1452.7735805700024,0.3049499000044307,1453.2178174,1453.2178174,n,0.5278471000056015,1456.752752100001,1456.752752100001,41,2.953,,,,,sub-050,35,55,700,bloc_loop.csv,2023-09-20_13h50.47.440,PainUncertainty,2022.2.5,144.25122795396308,
grave,moderee,stimuli/330Hz,stimuli/moderee,bloc_6,prob50_50_4trials.xlsx,2,8,50,50,0,,,,,0,5,5,5,1,2,6,0,,,,,,,,3.2,1456.752752100001,1459.9552912000072,1459.955449070006,0.30461629999626894,1460.3996324000036,1460.3996324000036,n,0.6352172000042628,1462.6654889000056,1462.6654889000056,27,1.566,,,,,sub-050,35,55,700,bloc_loop.csv,2023-09-20_13h50.47.440,PainUncertainty,2022.2.5,144.25122795396308,
grave,forte,stimuli/330Hz,stimuli/forte,bloc_6,prob50_50_4trials.xlsx,2,8,50,50,0,,,,,0,5,5,5,1,3,7,1,,,,,,,,4.7,1462.6654889000056,1467.3656185,1467.3679371699939,0.3028651000058744,1467.8096047,1467.8096047,m,0.4953038999956334,1469.2011454000021,1469.2011454000021,70,0.837,,,,,sub-050,35,55,700,bloc_loop.csv,2023-09-20_13h50.47.440,PainUncertainty,2022.2.5,144.25122795396308,
grave,moderee,stimuli/330Hz,stimuli/moderee,bloc_7,prob80hthp_12trials.xlsx,2,24,80,20,1,,,,,0,6,6,6,0,0,0,1,,,,,,,,4.9,1469.2011454000021,1474.1025953000062,1474.1026359700002,0.3048990999959642,1474.5467349999963,1474.5467349999963,n,0.7430420000018785,1476.5694383999944,1476.5694383999944,42,1.226,,,,,sub-050,35,55,700,bloc_loop.csv,2023-09-20_13h50.47.440,PainUncertainty,2022.2.5,144.25122795396308,
aigu,forte,stimuli/660Hz,stimuli/forte,bloc_7,prob80hthp_12trials.xlsx,2,24,80,20,1,,,,,0,6,6,6,0,1,1,9,,,,,,,,3.2,1476.5694383999944,1479.769648100002,1479.7697421699952,0.30494780000299215,1480.2141172999982,1480.2141172999982,m,0.5135089999967022,1482.5921932000056,1482.5921932000056,74,1.809,,,,,sub-050,35,55,700,bloc_loop.csv,2023-09-20_13h50.47.440,PainUncertainty,2022.2.5,144.25122795396308,
grave,moderee,stimuli/330Hz,stimuli/moderee,bloc_7,prob80hthp_12trials.xlsx,2,24,80,20,1,,,,,0,6,6,6,0,2,2,3,,,,,,,,3.7,1482.5921932000056,1486.2911413999973,1486.291213269996,0.30518119999032933,1486.7357677999971,1486.7357677999971,n,1.0147394999949029,1488.6970317999949,1488.6970317999949,40,0.88,,,,,sub-050,35,55,700,bloc_loop.csv,2023-09-20_13h50.47.440,PainUncertainty,2022.2.5,144.25122795396308,
aigu,forte,stimuli/660Hz,stimuli/forte,bloc_7,prob80hthp_12trials.xlsx,2,24,80,20,1,,,,,0,6,6,6,0,3,3,6,,,,,,,,3.9,1488.6970317999949,1492.5975181999966,1492.59756967,0.3050361000059638,1493.0420199000073,1493.0420199000073,m,0.4612680999998702,1495.0411212000035,1495.0411212000035,79,1.484,,,,,sub-050,35,55,700,bloc_loop.csv,2023-09-20_13h50.47.440,PainUncertainty,2022.2.5,144.25122795396308,
aigu,forte,stimuli/660Hz,stimuli/forte,bloc_7,prob80hthp_12trials.xlsx,2,24,80,20,1,,,,,0,6,6,6,0,4,4,8,,,,,,,,3.4,1495.0411212000035,1498.4453671000083,1498.4454634700044,0.30514869999024086,1498.8895147000003,1498.8895147000003,m,0.5101463000028161,1501.0817184000043,1501.0817184000043,82,1.629,,,,,sub-050,35,55,700,bloc_loop.csv,2023-09-20_13h50.47.440,PainUncertainty,2022.2.5,144.25122795396308,
aigu,forte,stimuli/660Hz,stimuli/forte,bloc_7,prob80hthp_12trials.xlsx,2,24,80,20,1,,,,,0,6,6,6,0,5,5,7,,,,,,,,4.3,1501.0817184000043,1505.3841669999965,1505.3844839699989,0.3048026000033133,1505.8304602999997,1505.8304602999997,m,0.4539292999979807,1507.5561957000027,1507.5561957000027,83,1.212,,,,,sub-050,35,55,700,bloc_loop.csv,2023-09-20_13h50.47.440,PainUncertainty,2022.2.5,144.25122795396308,
grave,moderee,stimuli/330Hz,stimuli/moderee,bloc_7,prob80hthp_12trials.xlsx,2,24,80,20,1,,,,,0,6,6,6,0,6,6,2,,,,,,,,4.8,1507.5561957000027,1512.3567210000037,1512.356841569995,0.3051695999893127,1512.8009807000053,1512.8009807000053,n,0.6757248000067193,1514.6015390999964,1514.6015390999964,23,1.065,,,,,sub-050,35,55,700,bloc_loop.csv,2023-09-20_13h50.47.440,PainUncertainty,2022.2.5,144.25122795396308,
grave,moderee,stimuli/330Hz,stimuli/moderee,bloc_7,prob80hthp_12trials.xlsx,2,24,80,20,1,,,,,0,6,6,6,0,7,7,0,,,,,,,,4.5,1514.6015390999964,1519.100724200005,1519.1007449700076,0.29945829999633133,1519.5432278999942,1519.5432278999942,n,0.5641936999891186,1523.1986938000045,1523.1986938000045,21,3.037,,,,,sub-050,35,55,700,bloc_loop.csv,2023-09-20_13h50.47.440,PainUncertainty,2022.2.5,144.25122795396308,
grave,forte,stimuli/330Hz,stimuli/forte,bloc_7,prob80hthp_12trials.xlsx,2,24,80,20,1,,,,,0,6,6,6,0,8,8,5,,,,,,,,4.8,1523.1986938000045,1528.0044112000032,1528.0044032700055,0.3052188000001479,1528.448620700001,1528.448620700001,m,1.5126953000144567,1531.1571827000007,1531.1571827000007,64,1.136,,,,,sub-050,35,55,700,bloc_loop.csv,2023-09-20_13h50.47.440,PainUncertainty,2022.2.5,144.25122795396308,
aigu,forte,stimuli/660Hz,stimuli/forte,bloc_7,prob80hthp_12trials.xlsx,2,24,80,20,1,,,,,0,6,6,6,0,9,9,10,,,,,,,,3.6,1531.1571827000007,1534.7621505999996,1534.7623219699992,0.3048992999974871,1535.2063297999994,1535.2063297999994,m,1.2191594000032637,1537.9487945,1537.9487945,69,1.46,,,,,sub-050,35,55,700,bloc_loop.csv,2023-09-20_13h50.47.440,PainUncertainty,2022.2.5,144.25122795396308,
aigu,moderee,stimuli/660Hz,stimuli/moderee,bloc_7,prob80hthp_12trials.xlsx,2,24,80,20,1,,,,,0,6,6,6,0,10,10,11,,,,,,,,3.6,1537.9487945,1541.5477295000019,1541.5478064699957,0.30505510000512004,1541.9920669999992,1541.9920669999992,n,0.7185304000013275,1544.7721183999965,1544.7721183999965,24,1.956,,,,,sub-050,35,55,700,bloc_loop.csv,2023-09-20_13h50.47.440,PainUncertainty,2022.2.5,144.25122795396308,
grave,moderee,stimuli/330Hz,stimuli/moderee,bloc_7,prob80hthp_12trials.xlsx,2,24,80,20,1,,,,,0,6,6,6,0,11,11,4,,,,,,,,4.2,1544.7721183999965,1548.9724740999955,1548.9723104700054,0.3049629999877652,1549.4204586999986,1549.4204586999986,n,0.6712599000020418,1551.2129219000053,1551.2129219000053,14,1.052,,,,,sub-050,35,55,700,bloc_loop.csv,2023-09-20_13h50.47.440,PainUncertainty,2022.2.5,144.25122795396308,
aigu,forte,stimuli/660Hz,stimuli/forte,bloc_7,prob80hthp_12trials.xlsx,2,24,80,20,1,,,,,0,6,6,6,1,0,12,9,,,,,,,,4.3,1551.2129219000053,1555.5147418999986,1555.5148055700076,0.30497929999546614,1555.9634787999967,1555.9634787999967,m,0.5090076999913435,1559.1718139000004,1559.1718139000004,71,2.649,,,,,sub-050,35,55,700,bloc_loop.csv,2023-09-20_13h50.47.440,PainUncertainty,2022.2.5,144.25122795396308,
grave,moderee,stimuli/330Hz,stimuli/moderee,bloc_7,prob80hthp_12trials.xlsx,2,24,80,20,1,,,,,0,6,6,6,1,1,13,2,,,,,,,,4.8,1559.1718139000004,1563.974035399995,1563.97408707,0.3048871000064537,1564.4181271999987,1564.4181271999987,n,0.4921782000019448,1566.5549502000067,1566.5549502000067,27,1.586,,,,,sub-050,35,55,700,bloc_loop.csv,2023-09-20_13h50.47.440,PainUncertainty,2022.2.5,144.25122795396308,
aigu,forte,stimuli/660Hz,stimuli/forte,bloc_7,prob80hthp_12trials.xlsx,2,24,80,20,1,,,,,0,6,6,6,1,2,14,6,,,,,,,,4.9,1566.5549502000067,1571.4539775000012,1571.4541534700068,0.30517419999523554,1571.8982116999978,1571.8982116999978,m,0.4503253000002587,1573.6321375999978,1573.6321375999978,76,1.234,,,,,sub-050,35,55,700,bloc_loop.csv,2023-09-20_13h50.47.440,PainUncertainty,2022.2.5,144.25122795396308,
grave,moderee,stimuli/330Hz,stimuli/moderee,bloc_7,prob80hthp_12trials.xlsx,2,24,80,20,1,,,,,0,6,6,6,1,3,15,4,,,,,,,,3.2,1573.6321375999978,1576.8301652000082,1576.8321476700032,0.3032632999966154,1577.2776137000037,1577.2776137000037,n,0.4666651000152342,1580.121476100001,1580.121476100001,23,2.316,,,,,sub-050,35,55,700,bloc_loop.csv,2023-09-20_13h50.47.440,PainUncertainty,2022.2.5,144.25122795396308,
aigu,forte,stimuli/660Hz,stimuli/forte,bloc_7,prob80hthp_12trials.xlsx,2,24,80,20,1,,,,,0,6,6,6,1,4,16,10,,,,,,,,4.2,1580.121476100001,1584.3239150000009,1584.323903969994,0.3050273999979254,1584.7678353999945,1584.7678353999945,m,0.5020126000017626,1588.0000467000064,1588.0000467000064,73,2.663,,,,,sub-050,35,55,700,bloc_loop.csv,2023-09-20_13h50.47.440,PainUncertainty,2022.2.5,144.25122795396308,
aigu,moderee,stimuli/660Hz,stimuli/moderee,bloc_7,prob80hthp_12trials.xlsx,2,24,80,20,1,,,,,0,6,6,6,1,5,17,11,,,,,,,,4.7,1588.0000467000064,1592.6995791000081,1592.6997114700018,0.3007521999970777,1593.144696400006,1593.144696400006,n,0.46473920000426006,1595.7197816999978,1595.7197816999978,19,2.043,,,,,sub-050,35,55,700,bloc_loop.csv,2023-09-20_13h50.47.440,PainUncertainty,2022.2.5,144.25122795396308,
aigu,forte,stimuli/660Hz,stimuli/forte,bloc_7,prob80hthp_12trials.xlsx,2,24,80,20,1,,,,,0,6,6,6,1,6,18,7,,,,,,,,3.2,1595.7197816999978,1598.9225641000085,1598.9227426700047,0.30503119999775663,1599.367134,1599.367134,m,0.6556579000025522,1601.2306708999968,1601.2306708999968,72,1.15,,,,,sub-050,35,55,700,bloc_loop.csv,2023-09-20_13h50.47.440,PainUncertainty,2022.2.5,144.25122795396308,
grave,moderee,stimuli/330Hz,stimuli/moderee,bloc_7,prob80hthp_12trials.xlsx,2,24,80,20,1,,,,,0,6,6,6,1,7,19,1,,,,,,,,3.5,1601.2306708999968,1604.7360558000073,1604.7357729699972,0.30513530000462197,1605.179916699999,1605.179916699999,n,0.4592365999997128,1608.6306252000068,1608.6306252000068,22,2.931,,,,,sub-050,35,55,700,bloc_loop.csv,2023-09-20_13h50.47.440,PainUncertainty,2022.2.5,144.25122795396308,
grave,forte,stimuli/330Hz,stimuli/forte,bloc_7,prob80hthp_12trials.xlsx,2,24,80,20,1,,,,,0,6,6,6,1,8,20,5,,,,,,,,3.7,1608.6306252000068,1612.3341205000033,1612.3343553700063,0.30559019999054726,1612.7831394999957,1612.7831394999957,m,0.89132690000406,1615.0084449999995,1615.0084449999995,70,1.273,,,,,sub-050,35,55,700,bloc_loop.csv,2023-09-20_13h50.47.440,PainUncertainty,2022.2.5,144.25122795396308,
grave,moderee,stimuli/330Hz,stimuli/moderee,bloc_7,prob80hthp_12trials.xlsx,2,24,80,20,1,,,,,0,6,6,6,1,9,21,0,,,,,,,,3.1,1615.0084449999995,1618.1122632000042,1618.1123789700025,0.3051679999916814,1618.55674,1618.55674,n,0.4547984000091674,1622.4061610000063,1622.4061610000063,38,3.33,,,,,sub-050,35,55,700,bloc_loop.csv,2023-09-20_13h50.47.440,PainUncertainty,2022.2.5,144.25122795396308,
grave,moderee,stimuli/330Hz,stimuli/moderee,bloc_7,prob80hthp_12trials.xlsx,2,24,80,20,1,,,,,0,6,6,6,1,10,22,3,,,,,,,,3.4,1622.4061610000063,1625.8077067999984,1625.8079285700035,0.3046332999947481,1626.251913900007,1626.251913900007,n,0.41964700000244193,1628.4791363999975,1628.4791363999975,22,1.738,,,,,sub-050,35,55,700,bloc_loop.csv,2023-09-20_13h50.47.440,PainUncertainty,2022.2.5,144.25122795396308,
aigu,forte,stimuli/660Hz,stimuli/forte,bloc_7,prob80hthp_12trials.xlsx,2,24,80,20,1,,,,,0,6,6,6,1,11,23,8,,,,,,,,4.9,1628.4791363999975,1633.3848618000047,1633.3850144700075,0.3052964999951655,1633.829157900007,1633.829157900007,m,0.452638200004003,1638.4155108999985,1638.4155108999985,70,2.1,,,,,sub-050,35,55,700,bloc_loop.csv,2023-09-20_13h50.47.440,PainUncertainty,2022.2.5,144.25122795396308,
,,,,bloc_7,prob80hthp_12trials.xlsx,2,24,80,20,1,,,,,0,6,6,6,,,,,0,0,0,0,,,,,,,,,,,,,,,,,,,1638.4155108999985,1654.3666329999978,sub-050,35,55,700,bloc_loop.csv,2023-09-20_13h50.47.440,PainUncertainty,2022.2.5,144.25122795396308,
grave,moderee,stimuli/330Hz,stimuli/moderee,bloc_8,prob50_50_4trials.xlsx,3,12,50,50,0,,,,,0,7,7,7,0,0,0,0,,,,,,,,3.3,1655.5492215999984,1658.853265400001,1658.8534284699956,0.304974000013317,1659.300042200004,1659.300042200004,n,0.5200504999957047,1661.8436029000004,1661.8436029000004,14,1.955,,,,,sub-050,35,55,700,bloc_loop.csv,2023-09-20_13h50.47.440,PainUncertainty,2022.2.5,144.25122795396308,
grave,forte,stimuli/330Hz,stimuli/forte,bloc_8,prob50_50_4trials.xlsx,3,12,50,50,0,,,,,0,7,7,7,0,1,1,1,,,,,,,,4.9,1661.8436029000004,1666.7433474999998,1666.743303770006,0.3050346999953035,1667.1871348999994,1667.1871348999994,m,0.6984306999947876,1669.5309372000047,1669.5309372000047,66,1.581,,,,,sub-050,35,55,700,bloc_loop.csv,2023-09-20_13h50.47.440,PainUncertainty,2022.2.5,144.25122795396308,
aigu,moderee,stimuli/660Hz,stimuli/moderee,bloc_8,prob50_50_4trials.xlsx,3,12,50,50,0,,,,,0,7,7,7,0,2,2,2,,,,,,,,3.6,1669.5309372000047,1673.1326179000025,1673.1327057700066,0.306897200003732,1673.584508,1673.584508,n,0.44107490000897087,1674.9317731000046,1674.9317731000046,21,0.851,,,,,sub-050,35,55,700,bloc_loop.csv,2023-09-20_13h50.47.440,PainUncertainty,2022.2.5,144.25122795396308,
aigu,forte,stimuli/660Hz,stimuli/forte,bloc_8,prob50_50_4trials.xlsx,3,12,50,50,0,,,,,0,7,7,7,0,3,3,3,,,,,,,,4.6,1674.9317731000046,1679.5363635999965,1679.5363444700008,0.30492389999562874,1679.9804334000073,1679.9804334000073,m,0.7630463000095915,1682.1217150000011,1682.1217150000011,73,1.33,,,,,sub-050,35,55,700,bloc_loop.csv,2023-09-20_13h50.47.440,PainUncertainty,2022.2.5,144.25122795396308,
grave,moderee,stimuli/330Hz,stimuli/moderee,bloc_8,prob50_50_4trials.xlsx,3,12,50,50,0,,,,,0,7,7,7,1,0,4,0,,,,,,,,4.6,1682.1217150000011,1686.7249099000037,1686.7249188700036,0.30497599999944214,1687.1732373999985,1687.1732373999985,n,0.4174293999967631,1689.1702659000002,1689.1702659000002,12,1.517,,,,,sub-050,35,55,700,bloc_loop.csv,2023-09-20_13h50.47.440,PainUncertainty,2022.2.5,144.25122795396308,
aigu,moderee,stimuli/660Hz,stimuli/moderee,bloc_8,prob50_50_4trials.xlsx,3,12,50,50,0,,,,,0,7,7,7,1,1,5,2,,,,,,,,4.8,1689.1702659000002,1693.9754097999976,1693.975611469995,0.30536460000439547,1694.4247486999957,1694.4247486999957,n,0.48257929999090265,1696.7276237000042,1696.7276237000042,21,1.768,,,,,sub-050,35,55,700,bloc_loop.csv,2023-09-20_13h50.47.440,PainUncertainty,2022.2.5,144.25122795396308,
grave,forte,stimuli/330Hz,stimuli/forte,bloc_8,prob50_50_4trials.xlsx,3,12,50,50,0,,,,,0,7,7,7,1,2,6,1,,,,,,,,4.3,1696.7276237000042,1701.0317439000064,1701.0320537699984,0.3052058000030229,1701.480404700007,1701.480404700007,m,1.2900822999945376,1704.4795537000027,1704.4795537000027,61,1.65,,,,,sub-050,35,55,700,bloc_loop.csv,2023-09-20_13h50.47.440,PainUncertainty,2022.2.5,144.25122795396308,
aigu,forte,stimuli/660Hz,stimuli/forte,bloc_8,prob50_50_4trials.xlsx,3,12,50,50,0,,,,,0,7,7,7,1,3,7,3,,,,,,,,4.4,1704.4795537000027,1708.8800340000016,1708.880098970006,0.30502030000207014,1709.3243385999958,1709.3243385999958,m,1.455594300001394,1713.0477351000009,1713.0477351000009,68,2.198,,,,,sub-050,35,55,700,bloc_loop.csv,2023-09-20_13h50.47.440,PainUncertainty,2022.2.5,144.25122795396308,
grave,forte,stimuli/330Hz,stimuli/forte,bloc_8,prob50_50_4trials.xlsx,3,12,50,50,0,,,,,0,7,7,7,2,0,8,1,,,,,,,,4.3,1713.0477351000009,1717.3532062000013,1717.353250669995,0.3050308999954723,1717.797575500008,1717.797575500008,m,1.1167726000130642,1720.4921742000006,1720.4921742000006,65,1.524,,,,,sub-050,35,55,700,bloc_loop.csv,2023-09-20_13h50.47.440,PainUncertainty,2022.2.5,144.25122795396308,
aigu,forte,stimuli/660Hz,stimuli/forte,bloc_8,prob50_50_4trials.xlsx,3,12,50,50,0,,,,,0,7,7,7,2,1,9,3,,,,,,,,4.9,1720.4921742000006,1725.3957649000076,1725.395858069994,0.3050063999980921,1725.8403430000035,1725.8403430000035,m,0.9383162000012817,1729.2652729999973,1729.2652729999973,62,2.422,,,,,sub-050,35,55,700,bloc_loop.csv,2023-09-20_13h50.47.440,PainUncertainty,2022.2.5,144.25122795396308,
aigu,moderee,stimuli/660Hz,stimuli/moderee,bloc_8,prob50_50_4trials.xlsx,3,12,50,50,0,,,,,0,7,7,7,2,2,10,2,,,,,,,,4.8,1729.2652729999973,1734.070380300007,1734.0705242700017,0.3047621000005165,1734.5145768000075,1734.5145768000075,n,0.4475682000047527,1735.914572900001,1735.914572900001,14,0.885,,,,,sub-050,35,55,700,bloc_loop.csv,2023-09-20_13h50.47.440,PainUncertainty,2022.2.5,144.25122795396308,
grave,moderee,stimuli/330Hz,stimuli/moderee,bloc_8,prob50_50_4trials.xlsx,3,12,50,50,0,,,,,0,7,7,7,2,3,11,0,,,,,,,,3.3,1735.914572900001,1739.2172169999976,1739.218562270001,0.3037569000007352,1739.661119299999,1739.661119299999,n,0.7629746000020532,1742.8812732000079,1742.8812732000079,24,2.393,,,,,sub-050,35,55,700,bloc_loop.csv,2023-09-20_13h50.47.440,PainUncertainty,2022.2.5,144.25122795396308,
aigu,moderee,stimuli/660Hz,stimuli/moderee,bloc_9,prob20hthp_12trials.xlsx,3,36,80,20,0,,,,,0,8,8,8,0,0,0,7,,,,,,,,5,1742.8812732000079,1747.8845889000077,1747.8846441699964,0.3050111000047764,1748.3312720999966,1748.3312720999966,n,0.6612478000024566,1750.2619799999957,1750.2619799999957,29,1.219,,,,,sub-050,35,55,700,bloc_loop.csv,2023-09-20_13h50.47.440,PainUncertainty,2022.2.5,144.25122795396308,
grave,forte,stimuli/330Hz,stimuli/forte,bloc_9,prob20hthp_12trials.xlsx,3,36,80,20,0,,,,,0,8,8,8,0,1,1,2,,,,,,,,3.9,1750.2619799999957,1754.1634767000069,1754.1635160700055,0.3048811000044225,1754.6074995999952,1754.6074995999952,m,0.4986395000014454,1756.2074551999976,1756.2074551999976,75,1.038,,,,,sub-050,35,55,700,bloc_loop.csv,2023-09-20_13h50.47.440,PainUncertainty,2022.2.5,144.25122795396308,
aigu,moderee,stimuli/660Hz,stimuli/moderee,bloc_9,prob20hthp_12trials.xlsx,3,36,80,20,0,,,,,0,8,8,8,0,2,2,9,,,,,,,,3.4,1756.2074551999976,1759.6086008999991,1759.6084369700068,0.30126120000204537,1760.052423000001,1760.052423000001,n,0.5337489999947138,1762.6646572000027,1762.6646572000027,31,2.023,,,,,sub-050,35,55,700,bloc_loop.csv,2023-09-20_13h50.47.440,PainUncertainty,2022.2.5,144.25122795396308,
aigu,moderee,stimuli/660Hz,stimuli/moderee,bloc_9,prob20hthp_12trials.xlsx,3,36,80,20,0,,,,,0,8,8,8,0,3,3,10,,,,,,,,4.8,1762.6646572000027,1767.4701219999988,1767.4702132699997,0.3050234999973327,1767.9143010999978,1767.9143010999978,n,0.5210961999982828,1769.2789597999945,1769.2789597999945,23,0.788,,,,,sub-050,35,55,700,bloc_loop.csv,2023-09-20_13h50.47.440,PainUncertainty,2022.2.5,144.25122795396308,
grave,moderee,stimuli/330Hz,stimuli/moderee,bloc_9,prob20hthp_12trials.xlsx,3,36,80,20,0,,,,,0,8,8,8,0,4,4,5,,,,,,,,4.6,1769.2789597999945,1773.8808610999986,1773.8806191699944,0.3057018999970751,1774.328203500001,1774.328203500001,n,0.9301855999947293,1777.4945019000006,1777.4945019000006,38,2.17,,,,,sub-050,35,55,700,bloc_loop.csv,2023-09-20_13h50.47.440,PainUncertainty,2022.2.5,144.25122795396308,
aigu,forte,stimuli/660Hz,stimuli/forte,bloc_9,prob20hthp_12trials.xlsx,3,36,80,20,0,,,,,0,8,8,8,0,5,5,11,,,,,,,,4.6,1777.4945019000006,1782.097229100007,1782.0973566699934,0.2991563999967184,1782.5379991000082,1782.5379991000082,m,0.5738220000057481,1784.1256188999978,1784.1256188999978,71,0.955,,,,,sub-050,35,55,700,bloc_loop.csv,2023-09-20_13h50.47.440,PainUncertainty,2022.2.5,144.25122795396308,
grave,forte,stimuli/330Hz,stimuli/forte,bloc_9,prob20hthp_12trials.xlsx,3,36,80,20,0,,,,,0,8,8,8,0,6,6,0,,,,,,,,4.6,1784.1256188999978,1788.7299242000008,1788.7299918699966,0.3003040999901714,1789.1739639000007,1789.1739639000007,m,1.0077178999927128,1791.6837685000064,1791.6837685000064,68,1.435,,,,,sub-050,35,55,700,bloc_loop.csv,2023-09-20_13h50.47.440,PainUncertainty,2022.2.5,144.25122795396308,
aigu,moderee,stimuli/660Hz,stimuli/moderee,bloc_9,prob20hthp_12trials.xlsx,3,36,80,20,0,,,,,0,8,8,8,0,7,7,6,,,,,,,,4.4,1791.6837685000064,1796.0848253000004,1796.0848689700026,0.30495580000570044,1796.5315105000045,1796.5315105000045,n,0.5725011999893468,1797.9959495000076,1797.9959495000076,13,0.836,,,,,sub-050,35,55,700,bloc_loop.csv,2023-09-20_13h50.47.440,PainUncertainty,2022.2.5,144.25122795396308,
grave,forte,stimuli/330Hz,stimuli/forte,bloc_9,prob20hthp_12trials.xlsx,3,36,80,20,0,,,,,0,8,8,8,0,8,8,4,,,,,,,,3.3,1797.9959495000076,1801.3006836999994,1801.3008649700016,0.30483240001194645,1801.744745300006,1801.744745300006,m,0.5062796999991406,1804.163752499997,1804.163752499997,83,1.865,,,,,sub-050,35,55,700,bloc_loop.csv,2023-09-20_13h50.47.440,PainUncertainty,2022.2.5,144.25122795396308,
grave,forte,stimuli/330Hz,stimuli/forte,bloc_9,prob20hthp_12trials.xlsx,3,36,80,20,0,,,,,0,8,8,8,0,9,9,3,,,,,,,,4.2,1804.163752499997,1808.3639303999953,1808.3639826700048,0.3050649000069825,1808.8118974999961,1808.8118974999961,m,0.9268669000011869,1812.2185599000077,1812.2185599000077,75,2.417,,,,,sub-050,35,55,700,bloc_loop.csv,2023-09-20_13h50.47.440,PainUncertainty,2022.2.5,144.25122795396308,
aigu,moderee,stimuli/660Hz,stimuli/moderee,bloc_9,prob20hthp_12trials.xlsx,3,36,80,20,0,,,,,0,8,8,8,0,10,10,8,,,,,,,,3.4,1812.2185599000077,1815.622272499997,1815.6222486699946,0.3049725999881048,1816.0683661000076,1816.0683661000076,n,0.4643133000063244,1817.922781900008,1817.922781900008,11,1.335,,,,,sub-050,35,55,700,bloc_loop.csv,2023-09-20_13h50.47.440,PainUncertainty,2022.2.5,144.25122795396308,
grave,forte,stimuli/330Hz,stimuli/forte,bloc_9,prob20hthp_12trials.xlsx,3,36,80,20,0,,,,,0,8,8,8,0,11,11,1,,,,,,,,4.8,1817.922781900008,1822.7269324999943,1822.7267013699995,0.3052682999987155,1823.1709799999953,1823.1709799999953,m,0.410227100001066,1825.0505393000058,1825.0505393000058,79,1.414,,,,,sub-050,35,55,700,bloc_loop.csv,2023-09-20_13h50.47.440,PainUncertainty,2022.2.5,144.25122795396308,
grave,forte,stimuli/330Hz,stimuli/forte,bloc_9,prob20hthp_12trials.xlsx,3,36,80,20,0,,,,,0,8,8,8,1,0,12,4,,,,,,,,4.8,1825.0505393000058,1829.8525464999984,1829.8526799700005,0.30489590000070166,1830.2969439000008,1830.2969439000008,m,0.5368467000080273,1832.273672700001,1832.273672700001,79,1.386,,,,,sub-050,35,55,700,bloc_loop.csv,2023-09-20_13h50.47.440,PainUncertainty,2022.2.5,144.25122795396308,
aigu,moderee,stimuli/660Hz,stimuli/moderee,bloc_9,prob20hthp_12trials.xlsx,3,36,80,20,0,,,,,0,8,8,8,1,1,13,6,,,,,,,,3.7,1832.273672700001,1835.9783064000076,1835.9782845700058,0.3050653000100283,1836.4264421999978,1836.4264421999978,n,0.49204529999406077,1837.9941509000055,1837.9941509000055,15,1.025,,,,,sub-050,35,55,700,bloc_loop.csv,2023-09-20_13h50.47.440,PainUncertainty,2022.2.5,144.25122795396308,
aigu,moderee,stimuli/660Hz,stimuli/moderee,bloc_9,prob20hthp_12trials.xlsx,3,36,80,20,0,,,,,0,8,8,8,1,2,14,7,,,,,,,,3.3,1837.9941509000055,1841.298575000008,1841.29872817,0.3048482000012882,1841.7424570000003,1841.7424570000003,n,0.6370668000017758,1843.6862811000028,1843.6862811000028,23,1.247,,,,,sub-050,35,55,700,bloc_loop.csv,2023-09-20_13h50.47.440,PainUncertainty,2022.2.5,144.25122795396308,
grave,forte,stimuli/330Hz,stimuli/forte,bloc_9,prob20hthp_12trials.xlsx,3,36,80,20,0,,,,,0,8,8,8,1,3,15,0,,,,,,,,3.2,1843.6862811000028,1846.8892458000046,1846.8892160700009,0.30530710000311956,1847.3340683999995,1847.3340683999995,m,0.41494740000052843,1849.7720958999998,1849.7720958999998,76,1.968,,,,,sub-050,35,55,700,bloc_loop.csv,2023-09-20_13h50.47.440,PainUncertainty,2022.2.5,144.25122795396308,
aigu,moderee,stimuli/660Hz,stimuli/moderee,bloc_9,prob20hthp_12trials.xlsx,3,36,80,20,0,,,,,0,8,8,8,1,4,16,8,,,,,,,,3.4,1849.7720958999998,1853.175063200004,1853.1747315700006,0.3051173999992898,1853.6212555999955,1853.6212555999955,n,0.3861289000051329,1856.5963939000067,1856.5963939000067,15,2.523,,,,,sub-050,35,55,700,bloc_loop.csv,2023-09-20_13h50.47.440,PainUncertainty,2022.2.5,144.25122795396308,
aigu,moderee,stimuli/660Hz,stimuli/moderee,bloc_9,prob20hthp_12trials.xlsx,3,36,80,20,0,,,,,0,8,8,8,1,5,17,10,,,,,,,,4.7,1856.5963939000067,1861.3012461000035,1861.301227469997,0.30502010000054725,1861.7474459000077,1861.7474459000077,n,0.47057390000554733,1863.5309293000028,1863.5309293000028,13,1.255,,,,,sub-050,35,55,700,bloc_loop.csv,2023-09-20_13h50.47.440,PainUncertainty,2022.2.5,144.25122795396308,
grave,forte,stimuli/330Hz,stimuli/forte,bloc_9,prob20hthp_12trials.xlsx,3,36,80,20,0,,,,,0,8,8,8,1,6,18,1,,,,,,,,4.1,1863.5309293000028,1867.6347493000067,1867.6349001699957,0.2991370999952778,1868.073358900001,1868.073358900001,m,0.42199669999536127,1869.5560439999972,1869.5560439999972,66,1.002,,,,,sub-050,35,55,700,bloc_loop.csv,2023-09-20_13h50.47.440,PainUncertainty,2022.2.5,144.25122795396308,
aigu,forte,stimuli/660Hz,stimuli/forte,bloc_9,prob20hthp_12trials.xlsx,3,36,80,20,0,,,,,0,8,8,8,1,7,19,11,,,,,,,,4.1,1869.5560439999972,1873.656280299998,1873.65646347,0.3050290999963181,1874.100805199996,1874.100805199996,m,1.0623985999991419,1876.1719658000075,1876.1719658000075,82,0.946,,,,,sub-050,35,55,700,bloc_loop.csv,2023-09-20_13h50.47.440,PainUncertainty,2022.2.5,144.25122795396308,
grave,forte,stimuli/330Hz,stimuli/forte,bloc_9,prob20hthp_12trials.xlsx,3,36,80,20,0,,,,,0,8,8,8,1,8,20,2,,,,,,,,4.3,1876.1719658000075,1880.476622400005,1880.4766394699939,0.3047126000019489,1880.9210457000008,1880.9210457000008,m,0.5684367999929236,1883.7956319000077,1883.7956319000077,72,2.253,,,,,sub-050,35,55,700,bloc_loop.csv,2023-09-20_13h50.47.440,PainUncertainty,2022.2.5,144.25122795396308,
grave,forte,stimuli/330Hz,stimuli/forte,bloc_9,prob20hthp_12trials.xlsx,3,36,80,20,0,,,,,0,8,8,8,1,9,21,3,,,,,,,,3.4,1883.7956319000077,1887.199571300007,1887.199620869996,0.29945109999971464,1887.6403728000005,1887.6403728000005,m,0.7017341000027955,1891.9446368000063,1891.9446368000063,72,3.536,,,,,sub-050,35,55,700,bloc_loop.csv,2023-09-20_13h50.47.440,PainUncertainty,2022.2.5,144.25122795396308,
aigu,moderee,stimuli/660Hz,stimuli/moderee,bloc_9,prob20hthp_12trials.xlsx,3,36,80,20,0,,,,,0,8,8,8,1,10,22,9,,,,,,,,3,1891.9446368000063,1894.9504010999954,1894.9507004699947,0.3047030000016093,1895.3947054000018,1895.3947054000018,n,0.6675044000003254,1897.2652348999982,1897.2652348999982,32,1.156,,,,,sub-050,35,55,700,bloc_loop.csv,2023-09-20_13h50.47.440,PainUncertainty,2022.2.5,144.25122795396308,
grave,moderee,stimuli/330Hz,stimuli/moderee,bloc_9,prob20hthp_12trials.xlsx,3,36,80,20,0,,,,,0,8,8,8,1,11,23,5,,,,,,,,3.4,1897.2652348999982,1900.6665539999958,1900.66664187,0.3048705999972299,1901.111120200003,1901.111120200003,n,0.6280051999929128,1904.712350700007,1904.712350700007,15,2.915,,,,,sub-050,35,55,700,bloc_loop.csv,2023-09-20_13h50.47.440,PainUncertainty,2022.2.5,144.25122795396308,
grave,forte,stimuli/330Hz,stimuli/forte,bloc_9,prob20hthp_12trials.xlsx,3,36,80,20,0,,,,,0,8,8,8,2,0,24,4,,,,,,,,5,1904.712350700007,1909.7160711000033,1909.7161293700003,0.305228299999726,1910.1605275000038,1910.1605275000038,m,0.895501899998635,1913.1498973999987,1913.1498973999987,69,2.038,,,,,sub-050,35,55,700,bloc_loop.csv,2023-09-20_13h50.47.440,PainUncertainty,2022.2.5,144.25122795396308,
grave,forte,stimuli/330Hz,stimuli/forte,bloc_9,prob20hthp_12trials.xlsx,3,36,80,20,0,,,,,0,8,8,8,2,1,25,0,,,,,,,,4.1,1913.1498973999987,1917.2517841999943,1917.2516878700073,0.3054876999958651,1917.6964605999965,1917.6964605999965,m,1.012308999997913,1921.0443739000038,1921.0443739000038,71,2.282,,,,,sub-050,35,55,700,bloc_loop.csv,2023-09-20_13h50.47.440,PainUncertainty,2022.2.5,144.25122795396308,
grave,forte,stimuli/330Hz,stimuli/forte,bloc_9,prob20hthp_12trials.xlsx,3,36,80,20,0,,,,,0,8,8,8,2,2,26,3,,,,,,,,3.2,1921.0443739000038,1924.245601600007,1924.2456694700043,0.30520919999980833,1924.6898575999949,1924.6898575999949,m,0.5655157000001054,1926.0803088999965,1926.0803088999965,76,0.769,,,,,sub-050,35,55,700,bloc_loop.csv,2023-09-20_13h50.47.440,PainUncertainty,2022.2.5,144.25122795396308,
aigu,moderee,stimuli/660Hz,stimuli/moderee,bloc_9,prob20hthp_12trials.xlsx,3,36,80,20,0,,,,,0,8,8,8,2,3,27,10,,,,,,,,3.2,1926.0803088999965,1929.2816678999952,1929.281561070001,0.30495790000713896,1929.7298616000044,1929.7298616000044,n,0.44369410000217613,1931.623270199998,1931.623270199998,33,1.386,,,,,sub-050,35,55,700,bloc_loop.csv,2023-09-20_13h50.47.440,PainUncertainty,2022.2.5,144.25122795396308,
aigu,moderee,stimuli/660Hz,stimuli/moderee,bloc_9,prob20hthp_12trials.xlsx,3,36,80,20,0,,,,,0,8,8,8,2,4,28,7,,,,,,,,4.4,1931.623270199998,1936.024814599994,1936.024945170003,0.3048475999967195,1936.4714225000062,1936.4714225000062,n,0.6498093000118388,1939.2298412999953,1939.2298412999953,24,2.059,,,,,sub-050,35,55,700,bloc_loop.csv,2023-09-20_13h50.47.440,PainUncertainty,2022.2.5,144.25122795396308,
grave,moderee,stimuli/330Hz,stimuli/moderee,bloc_9,prob20hthp_12trials.xlsx,3,36,80,20,0,,,,,0,8,8,8,2,5,29,5,,,,,,,,4.5,1939.2298412999953,1943.7341087999957,1943.7341731699955,0.30511980000301264,1944.1786223999952,1944.1786223999952,n,0.904220800002804,1947.5880281999998,1947.5880281999998,12,2.447,,,,,sub-050,35,55,700,bloc_loop.csv,2023-09-20_13h50.47.440,PainUncertainty,2022.2.5,144.25122795396308,
aigu,moderee,stimuli/660Hz,stimuli/moderee,bloc_9,prob20hthp_12trials.xlsx,3,36,80,20,0,,,,,0,8,8,8,2,6,30,9,,,,,,,,3.8,1947.5880281999998,1951.3877127000014,1951.3878740699977,0.3015677999937907,1951.833085300008,1951.833085300008,n,0.47391659999266267,1953.2942545999977,1953.2942545999977,16,0.875,,,,,sub-050,35,55,700,bloc_loop.csv,2023-09-20_13h50.47.440,PainUncertainty,2022.2.5,144.25122795396308,
aigu,moderee,stimuli/660Hz,stimuli/moderee,bloc_9,prob20hthp_12trials.xlsx,3,36,80,20,0,,,,,0,8,8,8,2,7,31,8,,,,,,,,3.3,1953.2942545999977,1956.5966502999945,1956.5966456700073,0.3052607999998145,1957.0480318000045,1957.0480318000045,n,1.2585166999924695,1960.6756651000032,1960.6756651000032,18,2.315,,,,,sub-050,35,55,700,bloc_loop.csv,2023-09-20_13h50.47.440,PainUncertainty,2022.2.5,144.25122795396308,
aigu,forte,stimuli/660Hz,stimuli/forte,bloc_9,prob20hthp_12trials.xlsx,3,36,80,20,0,,,,,0,8,8,8,2,8,32,11,,,,,,,,4.8,1960.6756651000032,1965.4799334999989,1965.4801300700012,0.30048570000508334,1965.9244116000045,1965.9244116000045,m,0.49505610001506284,1968.3321214000025,1968.3321214000025,71,1.844,,,,,sub-050,35,55,700,bloc_loop.csv,2023-09-20_13h50.47.440,PainUncertainty,2022.2.5,144.25122795396308,
grave,forte,stimuli/330Hz,stimuli/forte,bloc_9,prob20hthp_12trials.xlsx,3,36,80,20,0,,,,,0,8,8,8,2,9,33,1,,,,,,,,3.5,1968.3321214000025,1971.8346080000047,1971.8345940700049,0.30636190000222996,1972.2844957000052,1972.2844957000052,m,1.02905969999847,1974.483685900006,1974.483685900006,73,1.108,,,,,sub-050,35,55,700,bloc_loop.csv,2023-09-20_13h50.47.440,PainUncertainty,2022.2.5,144.25122795396308,
grave,forte,stimuli/330Hz,stimuli/forte,bloc_9,prob20hthp_12trials.xlsx,3,36,80,20,0,,,,,0,8,8,8,2,10,34,2,,,,,,,,3.1,1974.483685900006,1977.5850837000035,1977.5852492700026,0.30551950000517536,1978.0295384000055,1978.0295384000055,m,0.5272431000048527,1980.0278478999971,1980.0278478999971,68,1.421,,,,,sub-050,35,55,700,bloc_loop.csv,2023-09-20_13h50.47.440,PainUncertainty,2022.2.5,144.25122795396308,
aigu,moderee,stimuli/660Hz,stimuli/moderee,bloc_9,prob20hthp_12trials.xlsx,3,36,80,20,0,,,,,0,8,8,8,2,11,35,6,,,,,,,,4.4,1980.0278478999971,1984.433234600001,1984.4333085700011,0.30497539999487344,1984.8775804000034,1984.8775804000034,n,0.5344304000027478,1986.4892834000057,1986.4892834000057,22,1.05,,,,,sub-050,35,55,700,bloc_loop.csv,2023-09-20_13h50.47.440,PainUncertainty,2022.2.5,144.25122795396308,
