cue_,stimulus_,cue_fichier,stimulus_fichier,block_name,block_trials_file,block_n_reps,block_ntrials,block_prob_highP_highT,block_prob_highP_lowT,block_pause_after,Bloc_essai.thisRepN,Bloc_essai.thisTrialN,Bloc_essai.thisN,Bloc_essai.thisIndex,blocks.thisRepN,blocks.thisTrialN,blocks.thisN,blocks.thisIndex,trials.thisRepN,trials.thisTrialN,trials.thisN,trials.thisIndex,pause_loop.thisRepN,pause_loop.thisTrialN,pause_loop.thisN,pause_loop.thisIndex,key_resp_5.started,start_calib.started,key_resp_2.started,ISI_duration,pause.started,pause.stopped,cue.started,ISI.started,choice_pain.started,Choice.started,choice_pain.keys,choice_pain.rt,main_text.started,confirm_text.started,ratingScale.response,ratingScale.rt,key_resp_3.started,key_resp_6.started,choice_pain.stopped,Choice.stopped,participant,low_ma,high_ma,failsafe_ma,block_file,date,expName,psychopyVersion,frameRate,
aigu,forte,stimuli/660Hz,stimuli/forte,,,,,,,,0,0,0,3,,,,,,,,,,,,,32.603634000000966,182.58513360000143,252.64916380000068,5,257.9744330000012,262.9779302000006,262.9837428800008,0.3052205000003596,263.42101170000024,263.42101170000024,m,1.3446112999990874,269.2235202000011,269.2235202000011,60,4.386,,,,,sub-062,45,85,700,bloc_loop.csv,2023-10-25_15h52.34.797,PainUncertainty,2022.2.5,143.1419954253813,
grave,forte,stimuli/330Hz,stimuli/forte,,,,,,,,0,1,1,1,,,,,,,,,,,,,,,,3,269.2235202000011,272.22790239999995,272.22785879000037,0.3049671999997372,272.67201730000124,272.67201730000124,m,1.036473099997238,277.0435036000017,277.0435036000017,68,3.268,,,,,sub-062,45,85,700,bloc_loop.csv,2023-10-25_15h52.34.797,PainUncertainty,2022.2.5,143.1419954253813,
aigu,moderee,stimuli/660Hz,stimuli/moderee,,,,,,,,0,2,2,2,,,,,,,,,,,,,,,,4.5,277.0435036000017,281.54896630000076,281.54886638999994,0.2993831000003411,281.99158310000166,281.99158310000166,n,1.3138714999968215,286.96902730000147,286.96902730000147,34,3.607,,,,,sub-062,45,85,700,bloc_loop.csv,2023-10-25_15h52.34.797,PainUncertainty,2022.2.5,143.1419954253813,
grave,moderee,stimuli/330Hz,stimuli/moderee,,,,,,,,0,3,3,0,,,,,,,,,,,,,,,,4,286.96902730000147,290.973103100001,290.97333448999996,0.30487039999934495,291.4245155000008,291.4245155000008,n,1.1483019999977842,295.3470023000009,295.3470023000009,25,2.747,,,,,sub-062,45,85,700,bloc_loop.csv,2023-10-25_15h52.34.797,PainUncertainty,2022.2.5,143.1419954253813,
grave,forte,stimuli/330Hz,stimuli/forte,bloc_1,prob20hthp_12trials.xlsx,4,48,20,80,0,,,,,0,0,0,0,0,0,0,0,,,,,,,,3.5,363.6615550000006,367.1629257000004,367.1629883900008,0.305497600000308,367.6099602000013,367.6099602000013,m,0.9269786999975622,371.74964250000085,371.74964250000085,62,3.15,,,,,sub-062,45,85,700,bloc_loop.csv,2023-10-25_15h52.34.797,PainUncertainty,2022.2.5,143.1419954253813,
aigu,moderee,stimuli/660Hz,stimuli/moderee,bloc_1,prob20hthp_12trials.xlsx,4,48,20,80,0,,,,,0,0,0,0,0,1,1,10,,,,,,,,4.9,371.74964250000085,376.65050730000075,376.65049459,0.30526499999905354,377.0981464000015,377.0981464000015,n,0.9774059999981546,381.07174360000135,381.07174360000135,26,2.928,,,,,sub-062,45,85,700,bloc_loop.csv,2023-10-25_15h52.34.797,PainUncertainty,2022.2.5,143.1419954253813,
grave,forte,stimuli/330Hz,stimuli/forte,bloc_1,prob20hthp_12trials.xlsx,4,48,20,80,0,,,,,0,0,0,0,0,2,2,2,,,,,,,,3.9,381.07174360000135,384.9709696000009,384.9709990900013,0.30497290000130306,385.41482240000005,385.41482240000005,m,1.0622503999984474,389.6071728000006,389.6071728000006,65,3.08,,,,,sub-062,45,85,700,bloc_loop.csv,2023-10-25_15h52.34.797,PainUncertainty,2022.2.5,143.1419954253813,
aigu,moderee,stimuli/660Hz,stimuli/moderee,bloc_1,prob20hthp_12trials.xlsx,4,48,20,80,0,,,,,0,0,0,0,0,3,3,6,,,,,,,,3.6,389.6071728000006,393.20787250000103,393.2078022900008,0.30501510000067356,393.65194070000143,393.65194070000143,n,1.0494833999982802,398.2724664000016,398.2724664000016,31,3.511,,,,,sub-062,45,85,700,bloc_loop.csv,2023-10-25_15h52.34.797,PainUncertainty,2022.2.5,143.1419954253813,
aigu,forte,stimuli/660Hz,stimuli/forte,bloc_1,prob20hthp_12trials.xlsx,4,48,20,80,0,,,,,0,0,0,0,0,4,4,11,,,,,,,,4.2,398.2724664000016,402.4730797000011,402.47340939000094,0.30491500000061933,402.91943490000085,402.91943490000085,m,1.50708769999801,407.27343180000025,407.27343180000025,64,2.783,,,,,sub-062,45,85,700,bloc_loop.csv,2023-10-25_15h52.34.797,PainUncertainty,2022.2.5,143.1419954253813,
aigu,moderee,stimuli/660Hz,stimuli/moderee,bloc_1,prob20hthp_12trials.xlsx,4,48,20,80,0,,,,,0,0,0,0,0,5,5,9,,,,,,,,4.7,407.27343180000025,411.9739608,411.97397729000147,0.30001269999957003,412.4182914000012,412.4182914000012,n,1.036496899998383,417.6504567000011,417.6504567000011,22,4.13,,,,,sub-062,45,85,700,bloc_loop.csv,2023-10-25_15h52.34.797,PainUncertainty,2022.2.5,143.1419954253813,
aigu,moderee,stimuli/660Hz,stimuli/moderee,bloc_1,prob20hthp_12trials.xlsx,4,48,20,80,0,,,,,0,0,0,0,0,6,6,8,,,,,,,,4.1,417.6504567000011,421.75284140000076,421.75295119000145,0.3050762999992003,422.20092410000143,422.20092410000143,n,0.9698307999969984,425.8670763000009,425.8670763000009,16,2.63,,,,,sub-062,45,85,700,bloc_loop.csv,2023-10-25_15h52.34.797,PainUncertainty,2022.2.5,143.1419954253813,
grave,forte,stimuli/330Hz,stimuli/forte,bloc_1,prob20hthp_12trials.xlsx,4,48,20,80,0,,,,,0,0,0,0,0,7,7,4,,,,,,,,4.5,425.8670763000009,430.3720107000008,430.3721353900004,0.30499240000062855,430.8202300000012,430.8202300000012,m,1.0504640999970434,434.54753580000033,434.54753580000033,65,2.615,,,,,sub-062,45,85,700,bloc_loop.csv,2023-10-25_15h52.34.797,PainUncertainty,2022.2.5,143.1419954253813,
aigu,moderee,stimuli/660Hz,stimuli/moderee,bloc_1,prob20hthp_12trials.xlsx,4,48,20,80,0,,,,,0,0,0,0,0,8,8,7,,,,,,,,3.5,434.54753580000033,438.046548100001,438.0465757900005,0.30480329999954847,438.49065470000096,438.49065470000096,n,1.1730012999978499,443.16578990000016,443.16578990000016,17,3.447,,,,,sub-062,45,85,700,bloc_loop.csv,2023-10-25_15h52.34.797,PainUncertainty,2022.2.5,143.1419954253813,
grave,forte,stimuli/330Hz,stimuli/forte,bloc_1,prob20hthp_12trials.xlsx,4,48,20,80,0,,,,,0,0,0,0,0,9,9,3,,,,,,,,4.8,443.16578990000016,447.9712872,447.97141929000134,0.3050951000004716,448.4155858000013,448.4155858000013,m,1.0227152999996179,451.07970940000087,451.07970940000087,70,1.571,,,,,sub-062,45,85,700,bloc_loop.csv,2023-10-25_15h52.34.797,PainUncertainty,2022.2.5,143.1419954253813,
grave,moderee,stimuli/330Hz,stimuli/moderee,bloc_1,prob20hthp_12trials.xlsx,4,48,20,80,0,,,,,0,0,0,0,0,10,10,5,,,,,,,,3,451.07970940000087,454.08327050000116,454.0832896900014,0.30499539999982517,454.5277291000002,454.5277291000002,n,1.3346531999977742,458.8636733000003,458.8636733000003,14,2.934,,,,,sub-062,45,85,700,bloc_loop.csv,2023-10-25_15h52.34.797,PainUncertainty,2022.2.5,143.1419954253813,
grave,forte,stimuli/330Hz,stimuli/forte,bloc_1,prob20hthp_12trials.xlsx,4,48,20,80,0,,,,,0,0,0,0,0,11,11,1,,,,,,,,3,458.8636733000003,461.8696314000008,461.8692744900003,0.3054467999991175,462.3178475000004,462.3178475000004,m,1.3940994999975374,466.8735120000001,466.8735120000001,69,3.092,,,,,sub-062,45,85,700,bloc_loop.csv,2023-10-25_15h52.34.797,PainUncertainty,2022.2.5,143.1419954253813,
aigu,forte,stimuli/660Hz,stimuli/forte,bloc_1,prob20hthp_12trials.xlsx,4,48,20,80,0,,,,,0,0,0,0,1,0,12,11,,,,,,,,4,466.8735120000001,470.8776056000006,470.87753769000153,0.3004168999996182,471.32112250000137,471.32112250000137,m,1.2282162999981665,475.28411400000005,475.28411400000005,70,2.68,,,,,sub-062,45,85,700,bloc_loop.csv,2023-10-25_15h52.34.797,PainUncertainty,2022.2.5,143.1419954253813,
grave,forte,stimuli/330Hz,stimuli/forte,bloc_1,prob20hthp_12trials.xlsx,4,48,20,80,0,,,,,0,0,0,0,1,1,13,3,,,,,,,,4.7,475.28411400000005,479.98928180000075,479.98929949000046,0.3049326000000292,480.43329170000106,480.43329170000106,m,1.0856494999989081,484.7639298000013,484.7639298000013,68,3.178,,,,,sub-062,45,85,700,bloc_loop.csv,2023-10-25_15h52.34.797,PainUncertainty,2022.2.5,143.1419954253813,
aigu,moderee,stimuli/660Hz,stimuli/moderee,bloc_1,prob20hthp_12trials.xlsx,4,48,20,80,0,,,,,0,0,0,0,1,2,14,9,,,,,,,,4.2,484.7639298000013,488.96294410000155,488.96302119000063,0.3048844000004465,489.41097270000137,489.41097270000137,n,1.1804093999980978,493.78148690000125,493.78148690000125,16,3.126,,,,,sub-062,45,85,700,bloc_loop.csv,2023-10-25_15h52.34.797,PainUncertainty,2022.2.5,143.1419954253813,
grave,forte,stimuli/330Hz,stimuli/forte,bloc_1,prob20hthp_12trials.xlsx,4,48,20,80,0,,,,,0,0,0,0,1,3,15,4,,,,,,,,4.8,493.78148690000125,498.5815483000006,498.58165379000127,0.3049955000005866,499.02605399999993,499.02605399999993,m,0.9879568999967887,501.98313130000133,501.98313130000133,70,1.907,,,,,sub-062,45,85,700,bloc_loop.csv,2023-10-25_15h52.34.797,PainUncertainty,2022.2.5,143.1419954253813,
grave,moderee,stimuli/330Hz,stimuli/moderee,bloc_1,prob20hthp_12trials.xlsx,4,48,20,80,0,,,,,0,0,0,0,1,4,16,5,,,,,,,,3.7,501.98313130000133,505.68682440000157,505.686923990001,0.304807599999549,506.1310981000006,506.1310981000006,n,0.9933852999984083,510.3435453000002,510.3435453000002,11,3.163,,,,,sub-062,45,85,700,bloc_loop.csv,2023-10-25_15h52.34.797,PainUncertainty,2022.2.5,143.1419954253813,
aigu,moderee,stimuli/660Hz,stimuli/moderee,bloc_1,prob20hthp_12trials.xlsx,4,48,20,80,0,,,,,0,0,0,0,1,5,17,8,,,,,,,,4.6,510.3435453000002,514.9447112000016,514.94472179,0.30003559999931895,515.3897253000014,515.3897253000014,n,1.0653720999980578,520.2236354000015,520.2236354000015,12,3.712,,,,,sub-062,45,85,700,bloc_loop.csv,2023-10-25_15h52.34.797,PainUncertainty,2022.2.5,143.1419954253813,
aigu,moderee,stimuli/660Hz,stimuli/moderee,bloc_1,prob20hthp_12trials.xlsx,4,48,20,80,0,,,,,0,0,0,0,1,6,18,7,,,,,,,,3.8,520.2236354000015,524.0292400000017,524.0292170900015,0.3051491000005626,524.4737625000016,524.4737625000016,n,0.970684899999469,528.1049018000012,528.1049018000012,12,2.609,,,,,sub-062,45,85,700,bloc_loop.csv,2023-10-25_15h52.34.797,PainUncertainty,2022.2.5,143.1419954253813,
aigu,moderee,stimuli/660Hz,stimuli/moderee,bloc_1,prob20hthp_12trials.xlsx,4,48,20,80,0,,,,,0,0,0,0,1,7,19,10,,,,,,,,3.3,528.1049018000012,531.4050593000011,531.4050855900008,0.30561149999994086,531.8518613000015,531.8518613000015,n,0.8820570999978372,536.1956352000016,536.1956352000016,14,3.401,,,,,sub-062,45,85,700,bloc_loop.csv,2023-10-25_15h52.34.797,PainUncertainty,2022.2.5,143.1419954253813,
grave,forte,stimuli/330Hz,stimuli/forte,bloc_1,prob20hthp_12trials.xlsx,4,48,20,80,0,,,,,0,0,0,0,1,8,20,1,,,,,,,,4.9,536.1956352000016,541.1010037000015,541.1010524900015,0.3046809999996185,541.5448574000002,541.5448574000002,m,0.8598451999987446,546.6504258000004,546.6504258000004,79,3.171,,,,,sub-062,45,85,700,bloc_loop.csv,2023-10-25_15h52.34.797,PainUncertainty,2022.2.5,143.1419954253813,
aigu,moderee,stimuli/660Hz,stimuli/moderee,bloc_1,prob20hthp_12trials.xlsx,4,48,20,80,0,,,,,0,0,0,0,1,9,21,6,,,,,,,,3,546.6504258000004,549.6503663000003,549.6504212900003,0.3050991999989492,550.0984907000002,550.0984907000002,n,0.969346099998802,553.6215201000014,553.6215201000014,13,2.466,,,,,sub-062,45,85,700,bloc_loop.csv,2023-10-25_15h52.34.797,PainUncertainty,2022.2.5,143.1419954253813,
grave,forte,stimuli/330Hz,stimuli/forte,bloc_1,prob20hthp_12trials.xlsx,4,48,20,80,0,,,,,0,0,0,0,1,10,22,2,,,,,,,,3.4,553.6215201000014,557.0262594000014,557.0262909900015,0.30110229999991134,557.4710967999999,557.4710967999999,m,0.9399718999975448,561.5027314000017,561.5027314000017,76,3.025,,,,,sub-062,45,85,700,bloc_loop.csv,2023-10-25_15h52.34.797,PainUncertainty,2022.2.5,143.1419954253813,
grave,forte,stimuli/330Hz,stimuli/forte,bloc_1,prob20hthp_12trials.xlsx,4,48,20,80,0,,,,,0,0,0,0,1,11,23,0,,,,,,,,3.6,561.5027314000017,565.1040999000015,565.1041319899999,0.30504300000029616,565.5503836000007,565.5503836000007,m,0.8646710999983043,569.3356833000016,569.3356833000016,77,2.865,,,,,sub-062,45,85,700,bloc_loop.csv,2023-10-25_15h52.34.797,PainUncertainty,2022.2.5,143.1419954253813,
grave,forte,stimuli/330Hz,stimuli/forte,bloc_1,prob20hthp_12trials.xlsx,4,48,20,80,0,,,,,0,0,0,0,2,0,24,3,,,,,,,,4.6,569.3356833000016,573.939435100001,573.9384397900016,0.30495320000045467,574.3822175000005,574.3822175000005,m,1.215678399999888,579.1195754,579.1195754,74,3.469,,,,,sub-062,45,85,700,bloc_loop.csv,2023-10-25_15h52.34.797,PainUncertainty,2022.2.5,143.1419954253813,
aigu,moderee,stimuli/660Hz,stimuli/moderee,bloc_1,prob20hthp_12trials.xlsx,4,48,20,80,0,,,,,0,0,0,0,2,1,25,6,,,,,,,,3.4,579.1195754,582.5224206000003,582.5225314900002,0.304979500000627,582.9666038000014,582.9666038000014,n,0.8368335999984993,587.3532569000017,587.3532569000017,10,3.482,,,,,sub-062,45,85,700,bloc_loop.csv,2023-10-25_15h52.34.797,PainUncertainty,2022.2.5,143.1419954253813,
grave,forte,stimuli/330Hz,stimuli/forte,bloc_1,prob20hthp_12trials.xlsx,4,48,20,80,0,,,,,0,0,0,0,2,2,26,4,,,,,,,,4,587.3532569000017,591.3574145000002,591.3574872900011,0.301111700000547,591.8016209000016,591.8016209000016,m,0.8917749999982334,595.4424550000003,595.4424550000003,75,2.683,,,,,sub-062,45,85,700,bloc_loop.csv,2023-10-25_15h52.34.797,PainUncertainty,2022.2.5,143.1419954253813,
aigu,moderee,stimuli/660Hz,stimuli/moderee,bloc_1,prob20hthp_12trials.xlsx,4,48,20,80,0,,,,,0,0,0,0,2,3,27,9,,,,,,,,3.1,595.4424550000003,598.5454406000008,598.5453352900007,0.30505280000033963,598.9895524000003,598.9895524000003,n,0.9017262999986997,603.8198693000013,603.8198693000013,11,3.88,,,,,sub-062,45,85,700,bloc_loop.csv,2023-10-25_15h52.34.797,PainUncertainty,2022.2.5,143.1419954253813,
grave,forte,stimuli/330Hz,stimuli/forte,bloc_1,prob20hthp_12trials.xlsx,4,48,20,80,0,,,,,0,0,0,0,2,4,28,2,,,,,,,,4.5,603.8198693000013,608.3247691000015,608.3247559900013,0.30471460000080697,608.7684813000014,608.7684813000014,m,0.787157799999477,612.4710153000015,612.4710153000015,78,2.86,,,,,sub-062,45,85,700,bloc_loop.csv,2023-10-25_15h52.34.797,PainUncertainty,2022.2.5,143.1419954253813,
grave,forte,stimuli/330Hz,stimuli/forte,bloc_1,prob20hthp_12trials.xlsx,4,48,20,80,0,,,,,0,0,0,0,2,5,29,0,,,,,,,,3.5,612.4710153000015,615.971096700001,615.9712617900008,0.3047701999985293,616.4155540000011,616.4155540000011,m,0.7861203999982536,621.1827066000005,621.1827066000005,78,3.914,,,,,sub-062,45,85,700,bloc_loop.csv,2023-10-25_15h52.34.797,PainUncertainty,2022.2.5,143.1419954253813,
aigu,moderee,stimuli/660Hz,stimuli/moderee,bloc_1,prob20hthp_12trials.xlsx,4,48,20,80,0,,,,,0,0,0,0,2,6,30,10,,,,,,,,4.2,621.1827066000005,625.3818139000014,625.3819260900003,0.30511310000110825,625.826177500001,625.826177500001,n,0.7547954999972717,630.1999043000014,630.1999043000014,11,3.559,,,,,sub-062,45,85,700,bloc_loop.csv,2023-10-25_15h52.34.797,PainUncertainty,2022.2.5,143.1419954253813,
aigu,moderee,stimuli/660Hz,stimuli/moderee,bloc_1,prob20hthp_12trials.xlsx,4,48,20,80,0,,,,,0,0,0,0,2,7,31,8,,,,,,,,4.2,630.1999043000014,634.4040908000006,634.4043002900002,0.3048815000001923,634.8520046000012,634.8520046000012,n,1.045048299998598,638.3843719000015,638.3843719000015,12,2.431,,,,,sub-062,45,85,700,bloc_loop.csv,2023-10-25_15h52.34.797,PainUncertainty,2022.2.5,143.1419954253813,
aigu,forte,stimuli/660Hz,stimuli/forte,bloc_1,prob20hthp_12trials.xlsx,4,48,20,80,0,,,,,0,0,0,0,2,8,32,11,,,,,,,,3.5,638.3843719000015,641.8838285000002,641.8840968900007,0.3054386000003433,642.3330297000011,642.3330297000011,m,1.3660257999981695,646.844360000001,646.844360000001,78,3.088,,,,,sub-062,45,85,700,bloc_loop.csv,2023-10-25_15h52.34.797,PainUncertainty,2022.2.5,143.1419954253813,
grave,forte,stimuli/330Hz,stimuli/forte,bloc_1,prob20hthp_12trials.xlsx,4,48,20,80,0,,,,,0,0,0,0,2,9,33,1,,,,,,,,3.1,646.844360000001,649.947273400001,649.9474828900005,0.3003558000000339,650.3933254000003,650.3933254000003,m,0.8619553999997152,654.4366180000015,654.4366180000015,80,3.124,,,,,sub-062,45,85,700,bloc_loop.csv,2023-10-25_15h52.34.797,PainUncertainty,2022.2.5,143.1419954253813,
aigu,moderee,stimuli/660Hz,stimuli/moderee,bloc_1,prob20hthp_12trials.xlsx,4,48,20,80,0,,,,,0,0,0,0,2,10,34,7,,,,,,,,3.9,654.4366180000015,658.3376522000017,658.3378209900005,0.3048362999998062,658.7815251000011,658.7815251000011,n,0.971804399998291,663.9824818000016,663.9824818000016,6,3.143,,,,,sub-062,45,85,700,bloc_loop.csv,2023-10-25_15h52.34.797,PainUncertainty,2022.2.5,143.1419954253813,
grave,moderee,stimuli/330Hz,stimuli/moderee,bloc_1,prob20hthp_12trials.xlsx,4,48,20,80,0,,,,,0,0,0,0,2,11,35,5,,,,,,,,5,663.9824818000016,668.9847994000011,668.9849307900007,0.30533660000037344,669.4331977000002,669.4331977000002,n,0.9293666999983543,673.4471558000005,673.4471558000005,11,3.025,,,,,sub-062,45,85,700,bloc_loop.csv,2023-10-25_15h52.34.797,PainUncertainty,2022.2.5,143.1419954253813,
aigu,moderee,stimuli/660Hz,stimuli/moderee,bloc_1,prob20hthp_12trials.xlsx,4,48,20,80,0,,,,,0,0,0,0,3,0,36,8,,,,,,,,4.4,673.4471558000005,677.8466094000014,677.8465796900003,0.30522340000061376,678.2906917,678.2906917,n,0.6999160999985179,682.0486241000017,682.0486241000017,15,2.998,,,,,sub-062,45,85,700,bloc_loop.csv,2023-10-25_15h52.34.797,PainUncertainty,2022.2.5,143.1419954253813,
grave,moderee,stimuli/330Hz,stimuli/moderee,bloc_1,prob20hthp_12trials.xlsx,4,48,20,80,0,,,,,0,0,0,0,3,1,37,5,,,,,,,,4.5,682.0486241000017,686.5489755000017,686.5490084900015,0.3051867000012862,686.993599200001,686.993599200001,n,1.0360660999976972,690.2816062000002,690.2816062000002,14,2.184,,,,,sub-062,45,85,700,bloc_loop.csv,2023-10-25_15h52.34.797,PainUncertainty,2022.2.5,143.1419954253813,
aigu,moderee,stimuli/660Hz,stimuli/moderee,bloc_1,prob20hthp_12trials.xlsx,4,48,20,80,0,,,,,0,0,0,0,3,2,38,9,,,,,,,,4.2,690.2816062000002,694.4809909000014,694.4809935900015,0.3048538999992161,694.9250000000011,694.9250000000011,n,0.9066661999986536,699.0257076000016,699.0257076000016,16,3.13,,,,,sub-062,45,85,700,bloc_loop.csv,2023-10-25_15h52.34.797,PainUncertainty,2022.2.5,143.1419954253813,
grave,forte,stimuli/330Hz,stimuli/forte,bloc_1,prob20hthp_12trials.xlsx,4,48,20,80,0,,,,,0,0,0,0,3,3,39,3,,,,,,,,3.7,699.0257076000016,702.7245800000001,702.7247620900001,0.30481030000009923,703.1688254000001,703.1688254000001,m,0.780778399997871,706.0437540000003,706.0437540000003,80,2.039,,,,,sub-062,45,85,700,bloc_loop.csv,2023-10-25_15h52.34.797,PainUncertainty,2022.2.5,143.1419954253813,
grave,forte,stimuli/330Hz,stimuli/forte,bloc_1,prob20hthp_12trials.xlsx,4,48,20,80,0,,,,,0,0,0,0,3,4,40,0,,,,,,,,4.1,706.0437540000003,710.1492233000008,710.1493214900005,0.3048849999995582,710.5935044000016,710.5935044000016,m,0.7999880999977904,714.7583732000003,714.7583732000003,84,3.295,,,,,sub-062,45,85,700,bloc_loop.csv,2023-10-25_15h52.34.797,PainUncertainty,2022.2.5,143.1419954253813,
aigu,forte,stimuli/660Hz,stimuli/forte,bloc_1,prob20hthp_12trials.xlsx,4,48,20,80,0,,,,,0,0,0,0,3,5,41,11,,,,,,,,4.2,714.7583732000003,718.9653113000004,718.9632029900007,0.3048215999988315,719.4087655000003,719.4087655000003,m,1.0306904999979452,723.0542679000009,723.0542679000009,80,2.559,,,,,sub-062,45,85,700,bloc_loop.csv,2023-10-25_15h52.34.797,PainUncertainty,2022.2.5,143.1419954253813,
grave,forte,stimuli/330Hz,stimuli/forte,bloc_1,prob20hthp_12trials.xlsx,4,48,20,80,0,,,,,0,0,0,0,3,6,42,4,,,,,,,,3.6,723.0542679000009,726.6580455000003,726.6581216900016,0.3002073999996355,727.1030568000006,727.1030568000006,m,1.624567399998341,730.8894910000017,730.8894910000017,80,2.101,,,,,sub-062,45,85,700,bloc_loop.csv,2023-10-25_15h52.34.797,PainUncertainty,2022.2.5,143.1419954253813,
aigu,moderee,stimuli/660Hz,stimuli/moderee,bloc_1,prob20hthp_12trials.xlsx,4,48,20,80,0,,,,,0,0,0,0,3,7,43,7,,,,,,,,3.8,730.8894910000017,734.6941471000009,734.6945959900007,0.3048722999992606,735.1422295000011,735.1422295000011,n,0.5699390999980096,738.4670337000007,738.4670337000007,11,2.693,,,,,sub-062,45,85,700,bloc_loop.csv,2023-10-25_15h52.34.797,PainUncertainty,2022.2.5,143.1419954253813,
grave,forte,stimuli/330Hz,stimuli/forte,bloc_1,prob20hthp_12trials.xlsx,4,48,20,80,0,,,,,0,0,0,0,3,8,44,1,,,,,,,,4.9,738.4670337000007,743.3685050000004,743.368541690001,0.30506719999903,743.8125435000002,743.8125435000002,m,0.8586518999982218,747.7714466000016,747.7714466000016,79,3.038,,,,,sub-062,45,85,700,bloc_loop.csv,2023-10-25_15h52.34.797,PainUncertainty,2022.2.5,143.1419954253813,
aigu,moderee,stimuli/660Hz,stimuli/moderee,bloc_1,prob20hthp_12trials.xlsx,4,48,20,80,0,,,,,0,0,0,0,3,9,45,10,,,,,,,,3.3,747.7714466000016,751.0711678000007,751.0712546900016,0.3051286000008986,751.5186928000003,751.5186928000003,n,0.9832971999985602,755.4292159000015,755.4292159000015,8,2.872,,,,,sub-062,45,85,700,bloc_loop.csv,2023-10-25_15h52.34.797,PainUncertainty,2022.2.5,143.1419954253813,
grave,forte,stimuli/330Hz,stimuli/forte,bloc_1,prob20hthp_12trials.xlsx,4,48,20,80,0,,,,,0,0,0,0,3,10,46,2,,,,,,,,4.1,755.4292159000015,759.5301491000009,759.5302158900016,0.30502420000084385,759.9743877000001,759.9743877000001,m,0.8761400999992475,763.3589198000009,763.3589198000009,82,2.454,,,,,sub-062,45,85,700,bloc_loop.csv,2023-10-25_15h52.34.797,PainUncertainty,2022.2.5,143.1419954253813,
aigu,moderee,stimuli/660Hz,stimuli/moderee,bloc_1,prob20hthp_12trials.xlsx,4,48,20,80,0,,,,,0,0,0,0,3,11,47,6,,,,,,,,3,763.3589198000009,766.3578061000007,766.3581217900013,0.30445460000009916,766.8018730000003,766.8018730000003,n,0.902249099999608,770.075176100001,770.075176100001,8,2.31,,,,,sub-062,45,85,700,bloc_loop.csv,2023-10-25_15h52.34.797,PainUncertainty,2022.2.5,143.1419954253813,
aigu,forte,stimuli/660Hz,stimuli/forte,bloc_2,prob50_50_4trials.xlsx,2,8,50,50,1,,,,,0,1,1,1,0,0,0,3,,,,,,,,3,770.075176100001,773.0803982000016,773.0809518900008,0.30481329999929585,773.5247541000008,773.5247541000008,m,0.9894415999988269,777.6672499000015,777.6672499000015,83,3.101,,,,,sub-062,45,85,700,bloc_loop.csv,2023-10-25_15h52.34.797,PainUncertainty,2022.2.5,143.1419954253813,
aigu,moderee,stimuli/660Hz,stimuli/moderee,bloc_2,prob50_50_4trials.xlsx,2,8,50,50,1,,,,,0,1,1,1,0,1,1,2,,,,,,,,4.9,777.6672499000015,782.5676680000015,782.5677173900007,0.3050153999993199,783.0118016000015,783.0118016000015,n,1.1412493999978324,787.6276155000014,787.6276155000014,6,3.418,,,,,sub-062,45,85,700,bloc_loop.csv,2023-10-25_15h52.34.797,PainUncertainty,2022.2.5,143.1419954253813,
grave,moderee,stimuli/330Hz,stimuli/moderee,bloc_2,prob50_50_4trials.xlsx,2,8,50,50,1,,,,,0,1,1,1,0,2,2,0,,,,,,,,3.7,787.6276155000014,791.3326411000016,791.332746890001,0.30526259999896865,791.7805088000005,791.7805088000005,n,1.3894535999988875,795.2530899000012,795.2530899000012,7,2.032,,,,,sub-062,45,85,700,bloc_loop.csv,2023-10-25_15h52.34.797,PainUncertainty,2022.2.5,143.1419954253813,
grave,forte,stimuli/330Hz,stimuli/forte,bloc_2,prob50_50_4trials.xlsx,2,8,50,50,1,,,,,0,1,1,1,0,3,3,1,,,,,,,,3,795.2530899000012,798.2571549000004,798.257192290001,0.30503309999949124,798.7015744,798.7015744,m,0.8033970999986195,803.4559942000014,803.4559942000014,85,3.886,,,,,sub-062,45,85,700,bloc_loop.csv,2023-10-25_15h52.34.797,PainUncertainty,2022.2.5,143.1419954253813,
grave,moderee,stimuli/330Hz,stimuli/moderee,bloc_2,prob50_50_4trials.xlsx,2,8,50,50,1,,,,,0,1,1,1,1,0,4,0,,,,,,,,4,803.4559942000014,807.4595959000017,807.4597648900002,0.30485700000099314,807.9037881000004,807.9037881000004,n,0.9736881999979232,811.7686798000013,811.7686798000013,4,2.83,,,,,sub-062,45,85,700,bloc_loop.csv,2023-10-25_15h52.34.797,PainUncertainty,2022.2.5,143.1419954253813,
grave,forte,stimuli/330Hz,stimuli/forte,bloc_2,prob50_50_4trials.xlsx,2,8,50,50,1,,,,,0,1,1,1,1,1,5,1,,,,,,,,4.4,811.7686798000013,816.1689988000016,816.1690184900002,0.29985410000153934,816.6115093000008,816.6115093000008,m,0.93160849999731,821.200633800001,821.200633800001,82,3.608,,,,,sub-062,45,85,700,bloc_loop.csv,2023-10-25_15h52.34.797,PainUncertainty,2022.2.5,143.1419954253813,
aigu,moderee,stimuli/660Hz,stimuli/moderee,bloc_2,prob50_50_4trials.xlsx,2,8,50,50,1,,,,,0,1,1,1,1,2,6,2,,,,,,,,4.3,821.200633800001,825.5034620000006,825.5035075899999,0.3051431000003504,825.9516703000008,825.9516703000008,n,1.0515125999991142,830.2974669000014,830.2974669000014,10,3.24,,,,,sub-062,45,85,700,bloc_loop.csv,2023-10-25_15h52.34.797,PainUncertainty,2022.2.5,143.1419954253813,
aigu,forte,stimuli/660Hz,stimuli/forte,bloc_2,prob50_50_4trials.xlsx,2,8,50,50,1,,,,,0,1,1,1,1,3,7,3,,,,,,,,4,830.2974669000014,834.2970101999999,834.2968421900008,0.30090890000064974,834.7410278000007,834.7410278000007,m,1.077949599999556,840.2439339000011,840.2439339000011,80,2.393,,,,,sub-062,45,85,700,bloc_loop.csv,2023-10-25_15h52.34.797,PainUncertainty,2022.2.5,143.1419954253813,
,,,,bloc_2,prob50_50_4trials.xlsx,2,8,50,50,1,,,,,0,1,1,1,,,,,0,0,0,0,,,,,,,,,,,,,,,,,840.2439339000011,930.738487300001,,,sub-062,45,85,700,bloc_loop.csv,2023-10-25_15h52.34.797,PainUncertainty,2022.2.5,143.1419954253813,
aigu,moderee,stimuli/660Hz,stimuli/moderee,bloc_3,prob80hthp_12trials.xlsx,2,24,80,20,0,,,,,0,2,2,2,0,0,0,11,,,,,,,,4.7,932.8581360000007,937.5589016000013,937.5588505899999,0.3049644000002445,938.002934600001,938.002934600001,n,1.0839728999981162,942.2888036000004,942.2888036000004,9,3.15,,,,,sub-062,45,85,700,bloc_loop.csv,2023-10-25_15h52.34.797,PainUncertainty,2022.2.5,143.1419954253813,
aigu,forte,stimuli/660Hz,stimuli/forte,bloc_3,prob80hthp_12trials.xlsx,2,24,80,20,0,,,,,0,2,2,2,0,1,1,9,,,,,,,,3.7,942.2888036000004,945.9904401000003,945.9905698900005,0.3047225999998773,946.4385311000005,946.4385311000005,m,0.9892266999977437,950.282875500001,950.282875500001,76,2.796,,,,,sub-062,45,85,700,bloc_loop.csv,2023-10-25_15h52.34.797,PainUncertainty,2022.2.5,143.1419954253813,
aigu,forte,stimuli/660Hz,stimuli/forte,bloc_3,prob80hthp_12trials.xlsx,2,24,80,20,0,,,,,0,2,2,2,0,2,2,6,,,,,,,,3.2,950.282875500001,953.4842998000004,953.4843676900003,0.30511200000000827,953.9285189000002,953.9285189000002,m,0.9372194999978092,957.7503026000013,957.7503026000013,84,2.816,,,,,sub-062,45,85,700,bloc_loop.csv,2023-10-25_15h52.34.797,PainUncertainty,2022.2.5,143.1419954253813,
grave,moderee,stimuli/330Hz,stimuli/moderee,bloc_3,prob80hthp_12trials.xlsx,2,24,80,20,0,,,,,0,2,2,2,0,3,3,1,,,,,,,,3,957.7503026000013,960.7497325000004,960.7498050900016,0.30491600000095787,961.1958727000001,961.1958727000001,n,1.0357588999977452,965.4381509000013,965.4381509000013,6,3.15,,,,,sub-062,45,85,700,bloc_loop.csv,2023-10-25_15h52.34.797,PainUncertainty,2022.2.5,143.1419954253813,
grave,moderee,stimuli/330Hz,stimuli/moderee,bloc_3,prob80hthp_12trials.xlsx,2,24,80,20,0,,,,,0,2,2,2,0,4,4,3,,,,,,,,4,965.4381509000013,969.4377171000015,969.4377658900015,0.3050220999994053,969.8818851000015,969.8818851000015,n,0.9367345999980898,974.776533100001,974.776533100001,6,3.893,,,,,sub-062,45,85,700,bloc_loop.csv,2023-10-25_15h52.34.797,PainUncertainty,2022.2.5,143.1419954253813,
grave,moderee,stimuli/330Hz,stimuli/moderee,bloc_3,prob80hthp_12trials.xlsx,2,24,80,20,0,,,,,0,2,2,2,0,5,5,2,,,,,,,,3.7,974.776533100001,978.4805380000016,978.4805565900009,0.3049555999987206,978.9289894000012,978.9289894000012,n,1.0822632999988855,982.5282255000002,982.5282255000002,7,2.462,,,,,sub-062,45,85,700,bloc_loop.csv,2023-10-25_15h52.34.797,PainUncertainty,2022.2.5,143.1419954253813,
aigu,forte,stimuli/660Hz,stimuli/forte,bloc_3,prob80hthp_12trials.xlsx,2,24,80,20,0,,,,,0,2,2,2,0,6,6,10,,,,,,,,4,982.5282255000002,986.529924800001,986.5300515900002,0.3054659999997966,986.9791689000012,986.9791689000012,m,0.8865117999994254,990.4100816000009,990.4100816000009,89,2.488,,,,,sub-062,45,85,700,bloc_loop.csv,2023-10-25_15h52.34.797,PainUncertainty,2022.2.5,143.1419954253813,
grave,moderee,stimuli/330Hz,stimuli/moderee,bloc_3,prob80hthp_12trials.xlsx,2,24,80,20,0,,,,,0,2,2,2,0,7,7,4,,,,,,,,3,990.4100816000009,993.4157986000009,993.4133795900001,0.3050732000010612,993.8619082000005,993.8619082000005,n,0.9995240999996895,998.5005946000001,998.5005946000001,6,3.588,,,,,sub-062,45,85,700,bloc_loop.csv,2023-10-25_15h52.34.797,PainUncertainty,2022.2.5,143.1419954253813,
aigu,forte,stimuli/660Hz,stimuli/forte,bloc_3,prob80hthp_12trials.xlsx,2,24,80,20,0,,,,,0,2,2,2,0,8,8,8,,,,,,,,5,998.5005946000001,1003.5043670000014,1003.5044042900012,0.3049879999998666,1003.9484137,1003.9484137,m,1.0623627999975724,1008.668891700001,1008.668891700001,84,3.594,,,,,sub-062,45,85,700,bloc_loop.csv,2023-10-25_15h52.34.797,PainUncertainty,2022.2.5,143.1419954253813,
grave,moderee,stimuli/330Hz,stimuli/moderee,bloc_3,prob80hthp_12trials.xlsx,2,24,80,20,0,,,,,0,2,2,2,0,9,9,0,,,,,,,,3,1008.668891700001,1011.6725026000004,1011.6722473900012,0.30483879999883357,1012.1163594000009,1012.1163594000009,n,0.9740274999985559,1017.0449533999999,1017.0449533999999,6,3.893,,,,,sub-062,45,85,700,bloc_loop.csv,2023-10-25_15h52.34.797,PainUncertainty,2022.2.5,143.1419954253813,
grave,forte,stimuli/330Hz,stimuli/forte,bloc_3,prob80hthp_12trials.xlsx,2,24,80,20,0,,,,,0,2,2,2,0,10,10,5,,,,,,,,4.2,1017.0449533999999,1021.2495569000002,1021.2496074900013,0.3054775000000518,1021.6983067000001,1021.6983067000001,m,1.2924177999975655,1025.43779,1025.43779,83,2.393,,,,,sub-062,45,85,700,bloc_loop.csv,2023-10-25_15h52.34.797,PainUncertainty,2022.2.5,143.1419954253813,
aigu,forte,stimuli/660Hz,stimuli/forte,bloc_3,prob80hthp_12trials.xlsx,2,24,80,20,0,,,,,0,2,2,2,0,11,11,7,,,,,,,,3.4,1025.43779,1028.8406465000007,1028.8406297900005,0.305349500000375,1029.2851115000012,1029.2851115000012,m,1.06588759999795,1032.584168200001,1032.584168200001,89,2.178,,,,,sub-062,45,85,700,bloc_loop.csv,2023-10-25_15h52.34.797,PainUncertainty,2022.2.5,143.1419954253813,
aigu,forte,stimuli/660Hz,stimuli/forte,bloc_3,prob80hthp_12trials.xlsx,2,24,80,20,0,,,,,0,2,2,2,1,0,12,7,,,,,,,,3.3,1032.584168200001,1035.8832085000013,1035.8833903900018,0.30502119999982824,1036.3314266000016,1036.3314266000016,m,1.1688343999994686,1039.1391674000006,1039.1391674000006,90,1.586,,,,,sub-062,45,85,700,bloc_loop.csv,2023-10-25_15h52.34.797,PainUncertainty,2022.2.5,143.1419954253813,
aigu,forte,stimuli/660Hz,stimuli/forte,bloc_3,prob80hthp_12trials.xlsx,2,24,80,20,0,,,,,0,2,2,2,1,1,13,6,,,,,,,,3.7,1039.1391674000006,1042.8423168000008,1042.8423817900007,0.30494269999871904,1043.2864863000013,1043.2864863000013,m,0.8226516999984597,1046.173608000001,1046.173608000001,90,2.004,,,,,sub-062,45,85,700,bloc_loop.csv,2023-10-25_15h52.34.797,PainUncertainty,2022.2.5,143.1419954253813,
aigu,forte,stimuli/660Hz,stimuli/forte,bloc_3,prob80hthp_12trials.xlsx,2,24,80,20,0,,,,,0,2,2,2,1,2,14,10,,,,,,,,3.5,1046.173608000001,1049.676582600001,1049.6766021900007,0.30500000000029104,1050.1207379000007,1050.1207379000007,m,0.9120919999986654,1053.4654374000002,1053.4654374000002,89,2.373,,,,,sub-062,45,85,700,bloc_loop.csv,2023-10-25_15h52.34.797,PainUncertainty,2022.2.5,143.1419954253813,
aigu,moderee,stimuli/660Hz,stimuli/moderee,bloc_3,prob80hthp_12trials.xlsx,2,24,80,20,0,,,,,0,2,2,2,1,3,15,11,,,,,,,,3.9,1053.4654374000002,1057.3650091,1057.3650000900002,0.305368899998939,1057.8113302000002,1057.8113302000002,n,1.0593129999997473,1061.5698078000005,1061.5698078000005,8,2.635,,,,,sub-062,45,85,700,bloc_loop.csv,2023-10-25_15h52.34.797,PainUncertainty,2022.2.5,143.1419954253813,
grave,moderee,stimuli/330Hz,stimuli/moderee,bloc_3,prob80hthp_12trials.xlsx,2,24,80,20,0,,,,,0,2,2,2,1,4,16,4,,,,,,,,4.5,1061.5698078000005,1066.0742658,1066.0742736900015,0.3052231000001484,1066.5185108000005,1066.5185108000005,n,1.2313987999987148,1071.8819428000006,1071.8819428000006,7,4.072,,,,,sub-062,45,85,700,bloc_loop.csv,2023-10-25_15h52.34.797,PainUncertainty,2022.2.5,143.1419954253813,
grave,moderee,stimuli/330Hz,stimuli/moderee,bloc_3,prob80hthp_12trials.xlsx,2,24,80,20,0,,,,,0,2,2,2,1,5,17,0,,,,,,,,3.6,1071.8819428000006,1075.4852702000007,1075.4854115900002,0.3048278999995091,1075.9296705000015,1075.9296705000015,n,2.0010624999977153,1079.5234406,1079.5234406,10,1.538,,,,,sub-062,45,85,700,bloc_loop.csv,2023-10-25_15h52.34.797,PainUncertainty,2022.2.5,143.1419954253813,
aigu,forte,stimuli/660Hz,stimuli/forte,bloc_3,prob80hthp_12trials.xlsx,2,24,80,20,0,,,,,0,2,2,2,1,6,18,8,,,,,,,,3.5,1079.5234406,1083.0281012000014,1083.0280351900005,0.3009029000004375,1083.4724549000002,1083.4724549000002,m,0.7891857999984495,1086.5099797000003,1086.5099797000003,87,2.198,,,,,sub-062,45,85,700,bloc_loop.csv,2023-10-25_15h52.34.797,PainUncertainty,2022.2.5,143.1419954253813,
grave,moderee,stimuli/330Hz,stimuli/moderee,bloc_3,prob80hthp_12trials.xlsx,2,24,80,20,0,,,,,0,2,2,2,1,7,19,1,,,,,,,,4.8,1086.5099797000003,1091.3134245,1091.3134312900006,0.3053311000003305,1091.7575570000008,1091.7575570000008,n,0.772101599999587,1095.847791600001,1095.847791600001,9,3.255,,,,,sub-062,45,85,700,bloc_loop.csv,2023-10-25_15h52.34.797,PainUncertainty,2022.2.5,143.1419954253813,
aigu,forte,stimuli/660Hz,stimuli/forte,bloc_3,prob80hthp_12trials.xlsx,2,24,80,20,0,,,,,0,2,2,2,1,8,20,9,,,,,,,,3.7,1095.847791600001,1099.5505524,1099.5506808900013,0.30501769999864337,1099.9972072,1099.9972072,m,0.9456533999982639,1103.4416915000002,1103.4416915000002,86,2.433,,,,,sub-062,45,85,700,bloc_loop.csv,2023-10-25_15h52.34.797,PainUncertainty,2022.2.5,143.1419954253813,
grave,moderee,stimuli/330Hz,stimuli/moderee,bloc_3,prob80hthp_12trials.xlsx,2,24,80,20,0,,,,,0,2,2,2,1,9,21,3,,,,,,,,3.1,1103.4416915000002,1106.5444171,1106.5446504900015,0.30032050000045274,1106.9893238000004,1106.9893238000004,n,0.7829791999993176,1111.3872456000008,1111.3872456000008,6,3.56,,,,,sub-062,45,85,700,bloc_loop.csv,2023-10-25_15h52.34.797,PainUncertainty,2022.2.5,143.1419954253813,
grave,forte,stimuli/330Hz,stimuli/forte,bloc_3,prob80hthp_12trials.xlsx,2,24,80,20,0,,,,,0,2,2,2,1,10,22,5,,,,,,,,3.9,1111.3872456000008,1115.2885011000017,1115.2885514900013,0.30510599999979604,1115.7327130000012,1115.7327130000012,m,0.8966333999978815,1118.9812196000003,1118.9812196000003,87,2.289,,,,,sub-062,45,85,700,bloc_loop.csv,2023-10-25_15h52.34.797,PainUncertainty,2022.2.5,143.1419954253813,
grave,moderee,stimuli/330Hz,stimuli/moderee,bloc_3,prob80hthp_12trials.xlsx,2,24,80,20,0,,,,,0,2,2,2,1,11,23,2,,,,,,,,3,1118.9812196000003,1121.9837832000012,1121.983822390001,0.30512180000005173,1122.4279911000012,1122.4279911000012,n,0.963027099998726,1126.4961067000004,1126.4961067000004,12,3.048,,,,,sub-062,45,85,700,bloc_loop.csv,2023-10-25_15h52.34.797,PainUncertainty,2022.2.5,143.1419954253813,
grave,moderee,stimuli/330Hz,stimuli/moderee,bloc_4,prob50_50_4trials.xlsx,2,8,50,50,1,,,,,0,3,3,3,0,0,0,0,,,,,,,,3,1126.4961067000004,1129.4984984000002,1129.498528390001,0.3010394000011729,1129.9432171000008,1129.9432171000008,n,0.945030199998655,1132.2023894000013,1132.2023894000013,10,1.253,,,,,sub-062,45,85,700,bloc_loop.csv,2023-10-25_15h52.34.797,PainUncertainty,2022.2.5,143.1419954253813,
aigu,forte,stimuli/660Hz,stimuli/forte,bloc_4,prob50_50_4trials.xlsx,2,8,50,50,1,,,,,0,3,3,3,0,1,1,3,,,,,,,,4.2,1132.2023894000013,1136.4025511,1136.402711790001,0.30493810000007215,1136.8487804000015,1136.8487804000015,m,0.798760299998321,1140.324993100001,1140.324993100001,86,2.623,,,,,sub-062,45,85,700,bloc_loop.csv,2023-10-25_15h52.34.797,PainUncertainty,2022.2.5,143.1419954253813,
aigu,moderee,stimuli/660Hz,stimuli/moderee,bloc_4,prob50_50_4trials.xlsx,2,8,50,50,1,,,,,0,3,3,3,0,2,2,2,,,,,,,,3.1,1140.324993100001,1143.4240530000006,1143.4241126900001,0.30497099999956845,1143.8680351000003,1143.8680351000003,n,0.755378899999414,1148.0778549000006,1148.0778549000006,9,3.4,,,,,sub-062,45,85,700,bloc_loop.csv,2023-10-25_15h52.34.797,PainUncertainty,2022.2.5,143.1419954253813,
grave,forte,stimuli/330Hz,stimuli/forte,bloc_4,prob50_50_4trials.xlsx,2,8,50,50,1,,,,,0,3,3,3,0,3,3,1,,,,,,,,3.1,1148.0778549000006,1151.1822603,1151.1819799900009,0.3048826000012923,1151.625801100001,1151.625801100001,m,1.0986046999987593,1155.9442553000008,1155.9442553000008,85,3.164,,,,,sub-062,45,85,700,bloc_loop.csv,2023-10-25_15h52.34.797,PainUncertainty,2022.2.5,143.1419954253813,
grave,forte,stimuli/330Hz,stimuli/forte,bloc_4,prob50_50_4trials.xlsx,2,8,50,50,1,,,,,0,3,3,3,1,0,4,1,,,,,,,,4.2,1155.9442553000008,1160.1479155000015,1160.1480993900009,0.3048825999994733,1160.5920935000013,1160.5920935000013,m,1.0277568999972573,1166.095316500001,1166.095316500001,89,4.422,,,,,sub-062,45,85,700,bloc_loop.csv,2023-10-25_15h52.34.797,PainUncertainty,2022.2.5,143.1419954253813,
aigu,forte,stimuli/660Hz,stimuli/forte,bloc_4,prob50_50_4trials.xlsx,2,8,50,50,1,,,,,0,3,3,3,1,1,5,3,,,,,,,,3.6,1166.095316500001,1169.6981695000013,1169.6981337900002,0.3047829000006459,1170.1423425000012,1170.1423425000012,m,0.8288445999987744,1174.7923244000012,1174.7923244000012,88,3.761,,,,,sub-062,45,85,700,bloc_loop.csv,2023-10-25_15h52.34.797,PainUncertainty,2022.2.5,143.1419954253813,
aigu,moderee,stimuli/660Hz,stimuli/moderee,bloc_4,prob50_50_4trials.xlsx,2,8,50,50,1,,,,,0,3,3,3,1,2,6,2,,,,,,,,4.6,1174.7923244000012,1179.3936911,1179.393940890001,0.3050327000000834,1179.8401809000006,1179.8401809000006,n,1.0547633999995014,1184.3687370000007,1184.3687370000007,4,3.413,,,,,sub-062,45,85,700,bloc_loop.csv,2023-10-25_15h52.34.797,PainUncertainty,2022.2.5,143.1419954253813,
grave,moderee,stimuli/330Hz,stimuli/moderee,bloc_4,prob50_50_4trials.xlsx,2,8,50,50,1,,,,,0,3,3,3,1,3,7,0,,,,,,,,4.7,1184.3687370000007,1189.068067100001,1189.068198290001,0.30518599999959406,1189.5123401,1189.5123401,n,1.1503997999989224,1194.8857552000009,1194.8857552000009,7,2.192,,,,,sub-062,45,85,700,bloc_loop.csv,2023-10-25_15h52.34.797,PainUncertainty,2022.2.5,143.1419954253813,
,,,,bloc_4,prob50_50_4trials.xlsx,2,8,50,50,1,,,,,0,3,3,3,,,,,0,0,0,0,,,,,,,,,,,,,,,,,1194.8857552000009,1420.8598869000016,,,sub-062,45,85,700,bloc_loop.csv,2023-10-25_15h52.34.797,PainUncertainty,2022.2.5,143.1419954253813,
grave,forte,stimuli/330Hz,stimuli/forte,bloc_5,prob20hthp_12trials.xlsx,2,24,20,80,0,,,,,0,4,4,4,0,0,0,0,,,,,,,,4.1,1422.4356883,1426.5423075000017,1426.5412648900005,0.30489529999977094,1426.9852380000011,1426.9852380000011,m,1.0376834999988205,1430.2369342000002,1430.2369342000002,84,2.156,,,,,sub-062,45,85,700,bloc_loop.csv,2023-10-25_15h52.34.797,PainUncertainty,2022.2.5,143.1419954253813,
aigu,moderee,stimuli/660Hz,stimuli/moderee,bloc_5,prob20hthp_12trials.xlsx,2,24,20,80,0,,,,,0,4,4,4,0,1,1,6,,,,,,,,4.5,1430.2369342000002,1434.7364987,1434.7369956900006,0.30100149999998393,1435.180988,1435.180988,n,0.8738504999982979,1439.3812048,1439.3812048,11,3.268,,,,,sub-062,45,85,700,bloc_loop.csv,2023-10-25_15h52.34.797,PainUncertainty,2022.2.5,143.1419954253813,
grave,forte,stimuli/330Hz,stimuli/forte,bloc_5,prob20hthp_12trials.xlsx,2,24,20,80,0,,,,,0,4,4,4,0,2,2,4,,,,,,,,4.4,1439.3812048,1443.7858291000011,1443.7858640900017,0.30520660000001953,1444.2301553000016,1444.2301553000016,m,0.8483680999997887,1447.3430900000003,1447.3430900000003,83,2.194,,,,,sub-062,45,85,700,bloc_loop.csv,2023-10-25_15h52.34.797,PainUncertainty,2022.2.5,143.1419954253813,
grave,forte,stimuli/330Hz,stimuli/forte,bloc_5,prob20hthp_12trials.xlsx,2,24,20,80,0,,,,,0,4,4,4,0,3,3,1,,,,,,,,3.2,1447.3430900000003,1450.5437194000006,1450.543729290001,0.30490780000036466,1450.9915557000004,1450.9915557000004,m,1.0049858999991557,1455.2081159000008,1455.2081159000008,82,3.15,,,,,sub-062,45,85,700,bloc_loop.csv,2023-10-25_15h52.34.797,PainUncertainty,2022.2.5,143.1419954253813,
grave,forte,stimuli/330Hz,stimuli/forte,bloc_5,prob20hthp_12trials.xlsx,2,24,20,80,0,,,,,0,4,4,4,0,4,4,3,,,,,,,,3.6,1455.2081159000008,1458.8084704000012,1458.8084944900006,0.30505429999902844,1459.2574038000002,1459.2574038000002,m,1.1592369999980292,1464.2083479000012,1464.2083479000012,86,3.733,,,,,sub-062,45,85,700,bloc_loop.csv,2023-10-25_15h52.34.797,PainUncertainty,2022.2.5,143.1419954253813,
aigu,moderee,stimuli/660Hz,stimuli/moderee,bloc_5,prob20hthp_12trials.xlsx,2,24,20,80,0,,,,,0,4,4,4,0,5,5,7,,,,,,,,4.5,1464.2083479000012,1468.7124907000016,1468.7125053900004,0.30510250000043015,1469.1567320000013,1469.1567320000013,n,0.8707219999978406,1472.3621774000003,1472.3621774000003,5,2.275,,,,,sub-062,45,85,700,bloc_loop.csv,2023-10-25_15h52.34.797,PainUncertainty,2022.2.5,143.1419954253813,
aigu,forte,stimuli/660Hz,stimuli/forte,bloc_5,prob20hthp_12trials.xlsx,2,24,20,80,0,,,,,0,4,4,4,0,6,6,11,,,,,,,,4.9,1472.3621774000003,1477.262095,1477.2621276900013,0.30520199999955366,1477.7062601000016,1477.7062601000016,m,1.0421098999977403,1481.3636571000006,1481.3636571000006,86,2.552,,,,,sub-062,45,85,700,bloc_loop.csv,2023-10-25_15h52.34.797,PainUncertainty,2022.2.5,143.1419954253813,
aigu,moderee,stimuli/660Hz,stimuli/moderee,bloc_5,prob20hthp_12trials.xlsx,2,24,20,80,0,,,,,0,4,4,4,0,7,7,8,,,,,,,,4.8,1481.3636571000006,1486.165868,1486.1659520900016,0.30516910000005737,1486.6100639000015,1486.6100639000015,n,0.9321833999983937,1489.8357177000016,1489.8357177000016,8,2.178,,,,,sub-062,45,85,700,bloc_loop.csv,2023-10-25_15h52.34.797,PainUncertainty,2022.2.5,143.1419954253813,
aigu,moderee,stimuli/660Hz,stimuli/moderee,bloc_5,prob20hthp_12trials.xlsx,2,24,20,80,0,,,,,0,4,4,4,0,8,8,10,,,,,,,,3.1,1489.8357177000016,1492.9375736000002,1492.93769569,0.3047425000004296,1493.381749100001,1493.381749100001,n,0.782642099997247,1497.2698659000016,1497.2698659000016,7,3.052,,,,,sub-062,45,85,700,bloc_loop.csv,2023-10-25_15h52.34.797,PainUncertainty,2022.2.5,143.1419954253813,
aigu,moderee,stimuli/660Hz,stimuli/moderee,bloc_5,prob20hthp_12trials.xlsx,2,24,20,80,0,,,,,0,4,4,4,0,9,9,9,,,,,,,,3.8,1497.2698659000016,1501.0705126000012,1501.0705692900015,0.30506729999979143,1501.5151947000013,1501.5151947000013,n,1.0870955999980652,1506.3359328000006,1506.3359328000006,6,3.679,,,,,sub-062,45,85,700,bloc_loop.csv,2023-10-25_15h52.34.797,PainUncertainty,2022.2.5,143.1419954253813,
grave,forte,stimuli/330Hz,stimuli/forte,bloc_5,prob20hthp_12trials.xlsx,2,24,20,80,0,,,,,0,4,4,4,0,10,10,2,,,,,,,,4.1,1506.3359328000006,1510.4399436000003,1510.4400880900016,0.29963859999952547,1510.8845315000017,1510.8845315000017,m,0.9107726999973238,1515.5431434000002,1515.5431434000002,82,3.692,,,,,sub-062,45,85,700,bloc_loop.csv,2023-10-25_15h52.34.797,PainUncertainty,2022.2.5,143.1419954253813,
grave,moderee,stimuli/330Hz,stimuli/moderee,bloc_5,prob20hthp_12trials.xlsx,2,24,20,80,0,,,,,0,4,4,4,0,11,11,5,,,,,,,,4.7,1515.5431434000002,1520.2467007000014,1520.2486921900004,0.29920769999989716,1520.6907026000008,1520.6907026000008,n,0.8951575999999477,1524.576150500001,1524.576150500001,7,2.934,,,,,sub-062,45,85,700,bloc_loop.csv,2023-10-25_15h52.34.797,PainUncertainty,2022.2.5,143.1419954253813,
aigu,forte,stimuli/660Hz,stimuli/forte,bloc_5,prob20hthp_12trials.xlsx,2,24,20,80,0,,,,,0,4,4,4,1,0,12,11,,,,,,,,3.7,1524.576150500001,1528.2755065000001,1528.2756705900015,0.30495520000113174,1528.7217091000002,1528.7217091000002,m,0.9023705999989033,1532.6339055000008,1532.6339055000008,90,2.949,,,,,sub-062,45,85,700,bloc_loop.csv,2023-10-25_15h52.34.797,PainUncertainty,2022.2.5,143.1419954253813,
aigu,moderee,stimuli/660Hz,stimuli/moderee,bloc_5,prob20hthp_12trials.xlsx,2,24,20,80,0,,,,,0,4,4,4,1,1,13,8,,,,,,,,3,1532.6339055000008,1535.6370279000002,1535.6370714900008,0.30511680000017805,1536.0812209000014,1536.0812209000014,n,0.9446352999984811,1539.4788225000011,1539.4788225000011,11,2.392,,,,,sub-062,45,85,700,bloc_loop.csv,2023-10-25_15h52.34.797,PainUncertainty,2022.2.5,143.1419954253813,
grave,forte,stimuli/330Hz,stimuli/forte,bloc_5,prob20hthp_12trials.xlsx,2,24,20,80,0,,,,,0,4,4,4,1,2,14,2,,,,,,,,4.9,1539.4788225000011,1544.3814899000008,1544.3815949900004,0.30511920000026294,1544.829276800001,1544.829276800001,m,1.0315420999995695,1548.3649165000006,1548.3649165000006,89,2.455,,,,,sub-062,45,85,700,bloc_loop.csv,2023-10-25_15h52.34.797,PainUncertainty,2022.2.5,143.1419954253813,
grave,forte,stimuli/330Hz,stimuli/forte,bloc_5,prob20hthp_12trials.xlsx,2,24,20,80,0,,,,,0,4,4,4,1,3,15,1,,,,,,,,3.6,1548.3649165000006,1551.9655571000003,1551.9655001900014,0.3055292000008194,1552.414540400001,1552.414540400001,m,1.002152399998522,1556.7108285000013,1556.7108285000013,88,3.24,,,,,sub-062,45,85,700,bloc_loop.csv,2023-10-25_15h52.34.797,PainUncertainty,2022.2.5,143.1419954253813,
aigu,moderee,stimuli/660Hz,stimuli/moderee,bloc_5,prob20hthp_12trials.xlsx,2,24,20,80,0,,,,,0,4,4,4,1,4,16,9,,,,,,,,3.3,1556.7108285000013,1560.015092900001,1560.015217390001,0.3049537999995664,1560.459904200001,1560.459904200001,n,1.0285878999984561,1563.920484100001,1563.920484100001,6,2.376,,,,,sub-062,45,85,700,bloc_loop.csv,2023-10-25_15h52.34.797,PainUncertainty,2022.2.5,143.1419954253813,
aigu,moderee,stimuli/660Hz,stimuli/moderee,bloc_5,prob20hthp_12trials.xlsx,2,24,20,80,0,,,,,0,4,4,4,1,5,17,10,,,,,,,,4.6,1563.920484100001,1568.5234183000011,1568.523629490001,0.3045533999993495,1568.967379900001,1568.967379900001,n,0.8473916999973881,1573.0334093000001,1573.0334093000001,11,3.163,,,,,sub-062,45,85,700,bloc_loop.csv,2023-10-25_15h52.34.797,PainUncertainty,2022.2.5,143.1419954253813,
grave,moderee,stimuli/330Hz,stimuli/moderee,bloc_5,prob20hthp_12trials.xlsx,2,24,20,80,0,,,,,0,4,4,4,1,6,18,5,,,,,,,,3.4,1573.0334093000001,1576.4337069000012,1576.4336943900003,0.3044934999998077,1576.8776736,1576.8776736,n,1.2163569999975152,1581.6045299000016,1581.6045299000016,13,3.442,,,,,sub-062,45,85,700,bloc_loop.csv,2023-10-25_15h52.34.797,PainUncertainty,2022.2.5,143.1419954253813,
grave,forte,stimuli/330Hz,stimuli/forte,bloc_5,prob20hthp_12trials.xlsx,2,24,20,80,0,,,,,0,4,4,4,1,7,19,3,,,,,,,,4.1,1581.6045299000016,1585.705483400001,1585.7054780900003,0.3052766000000702,1586.1496393000016,1586.1496393000016,m,0.7840797999979259,1589.2127259000008,1589.2127259000008,87,2.217,,,,,sub-062,45,85,700,bloc_loop.csv,2023-10-25_15h52.34.797,PainUncertainty,2022.2.5,143.1419954253813,
aigu,moderee,stimuli/660Hz,stimuli/moderee,bloc_5,prob20hthp_12trials.xlsx,2,24,20,80,0,,,,,0,4,4,4,1,8,20,7,,,,,,,,4.7,1589.2127259000008,1593.914884400001,1593.9149360900014,0.3049479000001156,1594.3590126,1594.3590126,n,0.9566713999975036,1598.2778573000014,1598.2778573000014,11,2.907,,,,,sub-062,45,85,700,bloc_loop.csv,2023-10-25_15h52.34.797,PainUncertainty,2022.2.5,143.1419954253813,
grave,forte,stimuli/330Hz,stimuli/forte,bloc_5,prob20hthp_12trials.xlsx,2,24,20,80,0,,,,,0,4,4,4,1,9,21,0,,,,,,,,5,1598.2778573000014,1603.2770164000012,1603.2769550900016,0.3053663000009692,1603.7215125000002,1603.7215125000002,m,0.9839204999989306,1608.0469765000016,1608.0469765000016,86,3.289,,,,,sub-062,45,85,700,bloc_loop.csv,2023-10-25_15h52.34.797,PainUncertainty,2022.2.5,143.1419954253813,
aigu,moderee,stimuli/660Hz,stimuli/moderee,bloc_5,prob20hthp_12trials.xlsx,2,24,20,80,0,,,,,0,4,4,4,1,10,22,6,,,,,,,,3.4,1608.0469765000016,1611.451721200001,1611.4516464900012,0.30519770000137214,1611.8957887000015,1611.8957887000015,n,0.9664628999980778,1616.3776205000013,1616.3776205000013,9,3.428,,,,,sub-062,45,85,700,bloc_loop.csv,2023-10-25_15h52.34.797,PainUncertainty,2022.2.5,143.1419954253813,
grave,forte,stimuli/330Hz,stimuli/forte,bloc_5,prob20hthp_12trials.xlsx,2,24,20,80,0,,,,,0,4,4,4,1,11,23,4,,,,,,,,4.8,1616.3776205000013,1621.1823927000005,1621.182400690001,0.3048861000006582,1621.6263326000008,1621.6263326000008,m,1.0111527999979444,1624.4487506000005,1624.4487506000005,87,1.755,,,,,sub-062,45,85,700,bloc_loop.csv,2023-10-25_15h52.34.797,PainUncertainty,2022.2.5,143.1419954253813,
grave,forte,stimuli/330Hz,stimuli/forte,bloc_6,prob50_50_4trials.xlsx,2,8,50,50,0,,,,,0,5,5,5,0,0,0,1,,,,,,,,4.6,1624.4487506000005,1629.0513175000015,1629.0521110900013,0.30452279999917664,1629.4977044000007,1629.4977044000007,m,0.8029068999985611,1633.8017907000012,1633.8017907000012,86,3.441,,,,,sub-062,45,85,700,bloc_loop.csv,2023-10-25_15h52.34.797,PainUncertainty,2022.2.5,143.1419954253813,
aigu,moderee,stimuli/660Hz,stimuli/moderee,bloc_6,prob50_50_4trials.xlsx,2,8,50,50,0,,,,,0,5,5,5,0,1,1,2,,,,,,,,3.5,1633.8017907000012,1637.3018703000016,1637.3020838900015,0.30534799999986717,1637.7504976,1637.7504976,n,0.9921327999982168,1641.6514442000007,1641.6514442000007,8,2.851,,,,,sub-062,45,85,700,bloc_loop.csv,2023-10-25_15h52.34.797,PainUncertainty,2022.2.5,143.1419954253813,
grave,moderee,stimuli/330Hz,stimuli/moderee,bloc_6,prob50_50_4trials.xlsx,2,8,50,50,0,,,,,0,5,5,5,0,2,2,0,,,,,,,,4.1,1641.6514442000007,1645.7549458000012,1645.7546658900014,0.3046085000005405,1646.1985931,1646.1985931,n,1.1904684999990423,1649.7422066,1649.7422066,9,2.296,,,,,sub-062,45,85,700,bloc_loop.csv,2023-10-25_15h52.34.797,PainUncertainty,2022.2.5,143.1419954253813,
aigu,forte,stimuli/660Hz,stimuli/forte,bloc_6,prob50_50_4trials.xlsx,2,8,50,50,0,,,,,0,5,5,5,0,3,3,3,,,,,,,,3.5,1649.7422066,1653.2413588,1653.2414178900003,0.3048001999995904,1653.6902424,1653.6902424,m,0.9407221999990725,1657.3028177000015,1657.3028177000015,83,2.609,,,,,sub-062,45,85,700,bloc_loop.csv,2023-10-25_15h52.34.797,PainUncertainty,2022.2.5,143.1419954253813,
grave,moderee,stimuli/330Hz,stimuli/moderee,bloc_6,prob50_50_4trials.xlsx,2,8,50,50,0,,,,,0,5,5,5,1,0,4,0,,,,,,,,3.4,1657.3028177000015,1660.7009443000006,1660.702515290001,0.30370659999971394,1661.1487229000013,1661.1487229000013,n,0.8703867999993236,1665.0561874000014,1665.0561874000014,18,2.982,,,,,sub-062,45,85,700,bloc_loop.csv,2023-10-25_15h52.34.797,PainUncertainty,2022.2.5,143.1419954253813,
aigu,forte,stimuli/660Hz,stimuli/forte,bloc_6,prob50_50_4trials.xlsx,2,8,50,50,0,,,,,0,5,5,5,1,1,5,3,,,,,,,,4.4,1665.0561874000014,1669.458701200001,1669.4588593900012,0.30487209999955667,1669.9068218000011,1669.9068218000011,m,0.9787980999990396,1675.1620648000007,1675.1620648000007,88,4.22,,,,,sub-062,45,85,700,bloc_loop.csv,2023-10-25_15h52.34.797,PainUncertainty,2022.2.5,143.1419954253813,
aigu,moderee,stimuli/660Hz,stimuli/moderee,bloc_6,prob50_50_4trials.xlsx,2,8,50,50,0,,,,,0,5,5,5,1,2,6,2,,,,,,,,4.5,1675.1620648000007,1679.6611276000003,1679.6611750900015,0.3052287000009528,1680.1053810000012,1680.1053810000012,n,1.2242261999981565,1684.0975961000004,1684.0975961000004,5,2.712,,,,,sub-062,45,85,700,bloc_loop.csv,2023-10-25_15h52.34.797,PainUncertainty,2022.2.5,143.1419954253813,
grave,forte,stimuli/330Hz,stimuli/forte,bloc_6,prob50_50_4trials.xlsx,2,8,50,50,0,,,,,0,5,5,5,1,3,7,1,,,,,,,,5,1684.0975961000004,1689.099828800001,1689.0997819900008,0.30057960000158346,1689.544256000001,1689.544256000001,m,1.826175799997145,1694.2170695000004,1694.2170695000004,83,2.793,,,,,sub-062,45,85,700,bloc_loop.csv,2023-10-25_15h52.34.797,PainUncertainty,2022.2.5,143.1419954253813,
grave,forte,stimuli/330Hz,stimuli/forte,bloc_7,prob80hthp_12trials.xlsx,2,24,80,20,1,,,,,0,6,6,6,0,0,0,5,,,,,,,,4.7,1694.2170695000004,1698.9206430000013,1698.920662590001,0.30471870000110357,1699.3645889,1699.3645889,m,0.9736223999989306,1703.3300868000006,1703.3300868000006,91,2.936,,,,,sub-062,45,85,700,bloc_loop.csv,2023-10-25_15h52.34.797,PainUncertainty,2022.2.5,143.1419954253813,
grave,moderee,stimuli/330Hz,stimuli/moderee,bloc_7,prob80hthp_12trials.xlsx,2,24,80,20,1,,,,,0,6,6,6,0,1,1,0,,,,,,,,3,1703.3300868000006,1706.3328705000004,1706.3314653900002,0.3047955000001821,1706.7824395000007,1706.7824395000007,n,0.8940906999978324,1711.0204711000006,1711.0204711000006,14,3.278,,,,,sub-062,45,85,700,bloc_loop.csv,2023-10-25_15h52.34.797,PainUncertainty,2022.2.5,143.1419954253813,
grave,moderee,stimuli/330Hz,stimuli/moderee,bloc_7,prob80hthp_12trials.xlsx,2,24,80,20,1,,,,,0,6,6,6,0,2,2,3,,,,,,,,3.1,1711.0204711000006,1714.1235924000011,1714.123648090001,0.30507609999949636,1714.5677330000017,1714.5677330000017,n,0.8933123999977397,1718.6315464,1718.6315464,12,3.117,,,,,sub-062,45,85,700,bloc_loop.csv,2023-10-25_15h52.34.797,PainUncertainty,2022.2.5,143.1419954253813,
aigu,forte,stimuli/660Hz,stimuli/forte,bloc_7,prob80hthp_12trials.xlsx,2,24,80,20,1,,,,,0,6,6,6,0,3,3,9,,,,,,,,3.8,1718.6315464,1722.4371631000013,1722.43708319,0.30507849999958125,1722.881771100001,1722.881771100001,m,0.9004013999983727,1727.312877100001,1727.312877100001,88,3.469,,,,,sub-062,45,85,700,bloc_loop.csv,2023-10-25_15h52.34.797,PainUncertainty,2022.2.5,143.1419954253813,
aigu,forte,stimuli/660Hz,stimuli/forte,bloc_7,prob80hthp_12trials.xlsx,2,24,80,20,1,,,,,0,6,6,6,0,4,4,8,,,,,,,,3.1,1727.312877100001,1730.4173322000006,1730.4172386900013,0.30504839999957767,1730.8614218000002,1730.8614218000002,m,0.752044199998636,1734.5056568,1734.5056568,88,2.837,,,,,sub-062,45,85,700,bloc_loop.csv,2023-10-25_15h52.34.797,PainUncertainty,2022.2.5,143.1419954253813,
grave,moderee,stimuli/330Hz,stimuli/moderee,bloc_7,prob80hthp_12trials.xlsx,2,24,80,20,1,,,,,0,6,6,6,0,5,5,1,,,,,,,,3.2,1734.5056568,1737.7101513000016,1737.71006799,0.29941880000114907,1738.1525825000008,1738.1525825000008,n,1.3861318999970536,1741.8596085000008,1741.8596085000008,9,2.267,,,,,sub-062,45,85,700,bloc_loop.csv,2023-10-25_15h52.34.797,PainUncertainty,2022.2.5,143.1419954253813,
grave,moderee,stimuli/330Hz,stimuli/moderee,bloc_7,prob80hthp_12trials.xlsx,2,24,80,20,1,,,,,0,6,6,6,0,6,6,4,,,,,,,,3,1741.8596085000008,1744.8633697000005,1744.86335009,0.3050309999998717,1745.3075042,1745.3075042,n,0.773102299997845,1749.0861995000014,1749.0861995000014,11,2.951,,,,,sub-062,45,85,700,bloc_loop.csv,2023-10-25_15h52.34.797,PainUncertainty,2022.2.5,143.1419954253813,
aigu,moderee,stimuli/660Hz,stimuli/moderee,bloc_7,prob80hthp_12trials.xlsx,2,24,80,20,1,,,,,0,6,6,6,0,7,7,11,,,,,,,,4.3,1749.0861995000014,1753.3855317000016,1753.3855581900011,0.30527989999973215,1753.8330271000013,1753.8330271000013,n,1.0625705999973434,1758.3747441000014,1758.3747441000014,8,3.414,,,,,sub-062,45,85,700,bloc_loop.csv,2023-10-25_15h52.34.797,PainUncertainty,2022.2.5,143.1419954253813,
aigu,forte,stimuli/660Hz,stimuli/forte,bloc_7,prob80hthp_12trials.xlsx,2,24,80,20,1,,,,,0,6,6,6,0,8,8,10,,,,,,,,3.2,1758.3747441000014,1761.5739623000009,1761.5742190900005,0.3046357999992324,1762.0177507000008,1762.0177507000008,m,0.9864743999987695,1767.0234097000011,1767.0234097000011,80,3.962,,,,,sub-062,45,85,700,bloc_loop.csv,2023-10-25_15h52.34.797,PainUncertainty,2022.2.5,143.1419954253813,
grave,moderee,stimuli/330Hz,stimuli/moderee,bloc_7,prob80hthp_12trials.xlsx,2,24,80,20,1,,,,,0,6,6,6,0,9,9,2,,,,,,,,3.3,1767.0234097000011,1770.3246627000008,1770.32463589,0.3051550000000134,1770.7732657000015,1770.7732657000015,n,0.9499543999991147,1774.3137838000002,1774.3137838000002,16,2.532,,,,,sub-062,45,85,700,bloc_loop.csv,2023-10-25_15h52.34.797,PainUncertainty,2022.2.5,143.1419954253813,
aigu,forte,stimuli/660Hz,stimuli/forte,bloc_7,prob80hthp_12trials.xlsx,2,24,80,20,1,,,,,0,6,6,6,0,10,10,7,,,,,,,,4.3,1774.3137838000002,1778.6176318000016,1778.617616690001,0.30152429999907326,1779.0619936000003,1779.0619936000003,m,0.8211286999976437,1782.867950400001,1782.867950400001,87,2.921,,,,,sub-062,45,85,700,bloc_loop.csv,2023-10-25_15h52.34.797,PainUncertainty,2022.2.5,143.1419954253813,
aigu,forte,stimuli/660Hz,stimuli/forte,bloc_7,prob80hthp_12trials.xlsx,2,24,80,20,1,,,,,0,6,6,6,0,11,11,6,,,,,,,,4.5,1782.867950400001,1787.3685928000014,1787.3686705900004,0.2997438999991573,1787.8132229000003,1787.8132229000003,m,0.942790099999911,1790.5891620000002,1790.5891620000002,90,1.775,,,,,sub-062,45,85,700,bloc_loop.csv,2023-10-25_15h52.34.797,PainUncertainty,2022.2.5,143.1419954253813,
grave,moderee,stimuli/330Hz,stimuli/moderee,bloc_7,prob80hthp_12trials.xlsx,2,24,80,20,1,,,,,0,6,6,6,1,0,12,1,,,,,,,,3.1,1790.5891620000002,1793.6886965000012,1793.6885559900006,0.3051672999990842,1794.1368742000013,1794.1368742000013,n,0.830107699997825,1798.4232398000004,1798.4232398000004,14,3.392,,,,,sub-062,45,85,700,bloc_loop.csv,2023-10-25_15h52.34.797,PainUncertainty,2022.2.5,143.1419954253813,
aigu,forte,stimuli/660Hz,stimuli/forte,bloc_7,prob80hthp_12trials.xlsx,2,24,80,20,1,,,,,0,6,6,6,1,1,13,9,,,,,,,,3.8,1798.4232398000004,1802.2242540000007,1802.2244692900008,0.3051964999995107,1802.6733913000007,1802.6733913000007,m,0.9606398999985686,1805.6172274,1805.6172274,89,1.921,,,,,sub-062,45,85,700,bloc_loop.csv,2023-10-25_15h52.34.797,PainUncertainty,2022.2.5,143.1419954253813,
grave,forte,stimuli/330Hz,stimuli/forte,bloc_7,prob80hthp_12trials.xlsx,2,24,80,20,1,,,,,0,6,6,6,1,2,14,5,,,,,,,,4.8,1805.6172274,1810.4199418000007,1810.420032890001,0.3051522000005207,1810.867847900001,1810.867847900001,m,1.0258812999982183,1816.1531001000003,1816.1531001000003,78,4.206,,,,,sub-062,45,85,700,bloc_loop.csv,2023-10-25_15h52.34.797,PainUncertainty,2022.2.5,143.1419954253813,
aigu,forte,stimuli/660Hz,stimuli/forte,bloc_7,prob80hthp_12trials.xlsx,2,24,80,20,1,,,,,0,6,6,6,1,3,15,6,,,,,,,,3.9,1816.1531001000003,1820.0527693000004,1820.0527746900011,0.30516780000107246,1820.497214000001,1820.497214000001,m,0.7624175999990257,1825.6807194000012,1825.6807194000012,88,4.365,,,,,sub-062,45,85,700,bloc_loop.csv,2023-10-25_15h52.34.797,PainUncertainty,2022.2.5,143.1419954253813,
grave,moderee,stimuli/330Hz,stimuli/moderee,bloc_7,prob80hthp_12trials.xlsx,2,24,80,20,1,,,,,0,6,6,6,1,4,16,3,,,,,,,,3.4,1825.6807194000012,1829.0816108000017,1829.0818021900018,0.30471530000068014,1829.5260439000012,1829.5260439000012,n,0.9842433999983768,1834.5379002000009,1834.5379002000009,8,3.976,,,,,sub-062,45,85,700,bloc_loop.csv,2023-10-25_15h52.34.797,PainUncertainty,2022.2.5,143.1419954253813,
aigu,moderee,stimuli/660Hz,stimuli/moderee,bloc_7,prob80hthp_12trials.xlsx,2,24,80,20,1,,,,,0,6,6,6,1,5,17,11,,,,,,,,4.9,1834.5379002000009,1839.4370693,1839.437005190001,0.30102350000015576,1839.8817231000012,1839.8817231000012,n,1.1680802999981097,1844.098935600001,1844.098935600001,18,2.984,,,,,sub-062,45,85,700,bloc_loop.csv,2023-10-25_15h52.34.797,PainUncertainty,2022.2.5,143.1419954253813,
grave,moderee,stimuli/330Hz,stimuli/moderee,bloc_7,prob80hthp_12trials.xlsx,2,24,80,20,1,,,,,0,6,6,6,1,6,18,4,,,,,,,,3.8,1844.098935600001,1847.9037081000006,1847.9037365900008,0.30514749999929336,1848.3518128000014,1848.3518128000014,n,1.5895839999975578,1852.8448883,1852.8448883,12,2.837,,,,,sub-062,45,85,700,bloc_loop.csv,2023-10-25_15h52.34.797,PainUncertainty,2022.2.5,143.1419954253813,
aigu,forte,stimuli/660Hz,stimuli/forte,bloc_7,prob80hthp_12trials.xlsx,2,24,80,20,1,,,,,0,6,6,6,1,7,19,8,,,,,,,,3.4,1852.8448883,1856.2445426000013,1856.2446000900004,0.2995068000000174,1856.6833149000013,1856.6833149000013,m,0.7600724999974773,1860.6935966,1860.6935966,88,3.198,,,,,sub-062,45,85,700,bloc_loop.csv,2023-10-25_15h52.34.797,PainUncertainty,2022.2.5,143.1419954253813,
aigu,forte,stimuli/660Hz,stimuli/forte,bloc_7,prob80hthp_12trials.xlsx,2,24,80,20,1,,,,,0,6,6,6,1,8,20,7,,,,,,,,3.5,1860.6935966,1864.1968124000014,1864.1969527900005,0.3050053000006301,1864.6410263000016,1864.6410263000016,m,0.8290413999984594,1867.1694063000014,1867.1694063000014,90,1.642,,,,,sub-062,45,85,700,bloc_loop.csv,2023-10-25_15h52.34.797,PainUncertainty,2022.2.5,143.1419954253813,
aigu,forte,stimuli/660Hz,stimuli/forte,bloc_7,prob80hthp_12trials.xlsx,2,24,80,20,1,,,,,0,6,6,6,1,9,21,10,,,,,,,,4.5,1867.1694063000014,1871.6700588000003,1871.67007529,0.30495710000104737,1872.1147246,1872.1147246,m,0.7225112999967678,1876.6177398,1876.6177398,89,3.711,,,,,sub-062,45,85,700,bloc_loop.csv,2023-10-25_15h52.34.797,PainUncertainty,2022.2.5,143.1419954253813,
grave,moderee,stimuli/330Hz,stimuli/moderee,bloc_7,prob80hthp_12trials.xlsx,2,24,80,20,1,,,,,0,6,6,6,1,10,22,2,,,,,,,,3.1,1876.6177398,1879.719534400001,1879.7196492900007,0.3049381999990146,1880.1637875000015,1880.1637875000015,n,0.9203412999977445,1883.3805786000012,1883.3805786000012,6,2.232,,,,,sub-062,45,85,700,bloc_loop.csv,2023-10-25_15h52.34.797,PainUncertainty,2022.2.5,143.1419954253813,
grave,moderee,stimuli/330Hz,stimuli/moderee,bloc_7,prob80hthp_12trials.xlsx,2,24,80,20,1,,,,,0,6,6,6,1,11,23,0,,,,,,,,3.2,1883.3805786000012,1886.5814389000006,1886.581566790001,0.3050653999998758,1887.0257122000003,1887.0257122000003,n,0.9581494999983988,1893.3101306000008,1893.3101306000008,8,3.294,,,,,sub-062,45,85,700,bloc_loop.csv,2023-10-25_15h52.34.797,PainUncertainty,2022.2.5,143.1419954253813,
,,,,bloc_7,prob80hthp_12trials.xlsx,2,24,80,20,1,,,,,0,6,6,6,,,,,0,0,0,0,,,,,,,,,,,,,,,,,1893.3101306000008,2033.1336920000012,,,sub-062,45,85,700,bloc_loop.csv,2023-10-25_15h52.34.797,PainUncertainty,2022.2.5,143.1419954253813,
aigu,forte,stimuli/660Hz,stimuli/forte,bloc_8,prob50_50_4trials.xlsx,3,12,50,50,0,,,,,0,7,7,7,0,0,0,3,,,,,,,,5,2034.4939050000012,2039.4962901000017,2039.4962747900013,0.29939869999907387,2039.940615200001,2039.940615200001,m,0.9278487999981735,2044.3740388000006,2044.3740388000006,88,3.449,,,,,sub-062,45,85,700,bloc_loop.csv,2023-10-25_15h52.34.797,PainUncertainty,2022.2.5,143.1419954253813,
grave,forte,stimuli/330Hz,stimuli/forte,bloc_8,prob50_50_4trials.xlsx,3,12,50,50,0,,,,,0,7,7,7,0,1,1,1,,,,,,,,3,2044.3740388000006,2047.3784660000001,2047.378478090001,0.30515180000111286,2047.8226523000012,2047.8226523000012,m,1.0730764999971143,2052.431587000001,2052.431587000001,88,3.455,,,,,sub-062,45,85,700,bloc_loop.csv,2023-10-25_15h52.34.797,PainUncertainty,2022.2.5,143.1419954253813,
grave,moderee,stimuli/330Hz,stimuli/moderee,bloc_8,prob50_50_4trials.xlsx,3,12,50,50,0,,,,,0,7,7,7,0,2,2,0,,,,,,,,3.9,2052.431587000001,2056.3314187000014,2056.3317236900007,0.304584800000157,2056.778577700001,2056.778577700001,n,0.8488794999993843,2060.1039091000002,2060.1039091000002,5,2.412,,,,,sub-062,45,85,700,bloc_loop.csv,2023-10-25_15h52.34.797,PainUncertainty,2022.2.5,143.1419954253813,
aigu,moderee,stimuli/660Hz,stimuli/moderee,bloc_8,prob50_50_4trials.xlsx,3,12,50,50,0,,,,,0,7,7,7,0,3,3,2,,,,,,,,3.5,2060.1039091000002,2063.6094342000015,2063.6095185900017,0.30570020000050135,2064.0565195,2064.0565195,n,1.2602615999985574,2068.6736813000007,2068.6736813000007,11,3.296,,,,,sub-062,45,85,700,bloc_loop.csv,2023-10-25_15h52.34.797,PainUncertainty,2022.2.5,143.1419954253813,
grave,forte,stimuli/330Hz,stimuli/forte,bloc_8,prob50_50_4trials.xlsx,3,12,50,50,0,,,,,0,7,7,7,1,0,4,1,,,,,,,,3.4,2068.6736813000007,2072.0756817,2072.075773590001,0.3052103999998508,2072.5200638000006,2072.5200638000006,m,0.8766698999988876,2076.9068043000007,2076.9068043000007,87,3.441,,,,,sub-062,45,85,700,bloc_loop.csv,2023-10-25_15h52.34.797,PainUncertainty,2022.2.5,143.1419954253813,
grave,moderee,stimuli/330Hz,stimuli/moderee,bloc_8,prob50_50_4trials.xlsx,3,12,50,50,0,,,,,0,7,7,7,1,1,5,0,,,,,,,,3,2076.9068043000007,2079.909966000001,2079.91018259,0.3047761999987415,2080.3542205000012,2080.3542205000012,n,1.799528099998497,2085.637199300001,2085.637199300001,7,3.42,,,,,sub-062,45,85,700,bloc_loop.csv,2023-10-25_15h52.34.797,PainUncertainty,2022.2.5,143.1419954253813,
aigu,moderee,stimuli/660Hz,stimuli/moderee,bloc_8,prob50_50_4trials.xlsx,3,12,50,50,0,,,,,0,7,7,7,1,2,6,2,,,,,,,,4.5,2085.637199300001,2090.1404107000017,2090.1404110900007,0.30499090000012075,2090.584493600001,2090.584493600001,n,1.2897629999988567,2095.645416200001,2095.645416200001,9,3.713,,,,,sub-062,45,85,700,bloc_loop.csv,2023-10-25_15h52.34.797,PainUncertainty,2022.2.5,143.1419954253813,
aigu,forte,stimuli/660Hz,stimuli/forte,bloc_8,prob50_50_4trials.xlsx,3,12,50,50,0,,,,,0,7,7,7,1,3,7,3,,,,,,,,3.7,2095.645416200001,2099.3506053,2099.3502742900005,0.2990267000004678,2099.7911248,2099.7911248,m,1.2562921999979153,2104.485166100001,2104.485166100001,86,3.386,,,,,sub-062,45,85,700,bloc_loop.csv,2023-10-25_15h52.34.797,PainUncertainty,2022.2.5,143.1419954253813,
grave,forte,stimuli/330Hz,stimuli/forte,bloc_8,prob50_50_4trials.xlsx,3,12,50,50,0,,,,,0,7,7,7,2,0,8,1,,,,,,,,4,2104.485166100001,2108.4898366000016,2108.4898757900014,0.3051601000006485,2108.9375511000017,2108.9375511000017,m,1.0568562999978894,2112.2881657000016,2112.2881657000016,87,2.234,,,,,sub-062,45,85,700,bloc_loop.csv,2023-10-25_15h52.34.797,PainUncertainty,2022.2.5,143.1419954253813,
grave,moderee,stimuli/330Hz,stimuli/moderee,bloc_8,prob50_50_4trials.xlsx,3,12,50,50,0,,,,,0,7,7,7,2,1,9,0,,,,,,,,3.5,2112.2881657000016,2115.7893460000014,2115.7893211900014,0.3003002999994351,2116.2342032000015,2116.2342032000015,None,,2121.3675042000013,2121.3675042000013,11,2.629,,,2118.7018965000007,2118.7018965000007,sub-062,45,85,700,bloc_loop.csv,2023-10-25_15h52.34.797,PainUncertainty,2022.2.5,143.1419954253813,
aigu,moderee,stimuli/660Hz,stimuli/moderee,bloc_8,prob50_50_4trials.xlsx,3,12,50,50,0,,,,,0,7,7,7,2,2,10,2,,,,,,,,3.9,2121.3675042000013,2125.2695452000007,2125.269544090001,0.30507359999865,2125.713863500001,2125.713863500001,n,0.6650354999983392,2129.6498749,2129.6498749,10,3.205,,,,,sub-062,45,85,700,bloc_loop.csv,2023-10-25_15h52.34.797,PainUncertainty,2022.2.5,143.1419954253813,
aigu,forte,stimuli/660Hz,stimuli/forte,bloc_8,prob50_50_4trials.xlsx,3,12,50,50,0,,,,,0,7,7,7,2,3,11,3,,,,,,,,3.4,2129.6498749,2133.055569100001,2133.055597790001,0.3050946000003023,2133.501857200001,2133.501857200001,m,0.8020410999997694,2136.2217961000006,2136.2217961000006,80,1.859,,,,,sub-062,45,85,700,bloc_loop.csv,2023-10-25_15h52.34.797,PainUncertainty,2022.2.5,143.1419954253813,
aigu,moderee,stimuli/660Hz,stimuli/moderee,bloc_9,prob20hthp_12trials.xlsx,3,36,80,20,0,,,,,0,8,8,8,0,0,0,7,,,,,,,,4.4,2136.2217961000006,2140.6257803000008,2140.62610609,0.30478389999916544,2141.0697879,2141.0697879,n,0.9124452999985806,2144.7086415000012,2144.7086415000012,6,2.67,,,,,sub-062,45,85,700,bloc_loop.csv,2023-10-25_15h52.34.797,PainUncertainty,2022.2.5,143.1419954253813,
aigu,moderee,stimuli/660Hz,stimuli/moderee,bloc_9,prob20hthp_12trials.xlsx,3,36,80,20,0,,,,,0,8,8,8,0,1,1,8,,,,,,,,3.2,2144.7086415000012,2147.9111397000015,2147.9111818900005,0.30511070000102336,2148.3555285,2148.3555285,n,0.6382622000000993,2151.2633886000003,2151.2633886000003,7,2.211,,,,,sub-062,45,85,700,bloc_loop.csv,2023-10-25_15h52.34.797,PainUncertainty,2022.2.5,143.1419954253813,
grave,forte,stimuli/330Hz,stimuli/forte,bloc_9,prob20hthp_12trials.xlsx,3,36,80,20,0,,,,,0,8,8,8,0,2,2,2,,,,,,,,3,2151.2633886000003,2154.265921800001,2154.26598169,0.3052988999988884,2154.710381500001,2154.710381500001,m,0.6155078999981924,2158.714798500001,2158.714798500001,88,3.336,,,,,sub-062,45,85,700,bloc_loop.csv,2023-10-25_15h52.34.797,PainUncertainty,2022.2.5,143.1419954253813,
aigu,forte,stimuli/660Hz,stimuli/forte,bloc_9,prob20hthp_12trials.xlsx,3,36,80,20,0,,,,,0,8,8,8,0,3,3,11,,,,,,,,4.5,2158.714798500001,2163.2187256000016,2163.2188096900013,0.304968699998426,2163.6626306000016,2163.6626306000016,m,0.9353176999993593,2167.779306300001,2167.779306300001,89,3.114,,,,,sub-062,45,85,700,bloc_loop.csv,2023-10-25_15h52.34.797,PainUncertainty,2022.2.5,143.1419954253813,
aigu,moderee,stimuli/660Hz,stimuli/moderee,bloc_9,prob20hthp_12trials.xlsx,3,36,80,20,0,,,,,0,8,8,8,0,4,4,6,,,,,,,,4.1,2167.779306300001,2171.8791770000007,2171.879089190001,0.30526319999989937,2172.3234639,2172.3234639,n,0.8433901999978843,2176.7166449000015,2176.7166449000015,15,3.496,,,,,sub-062,45,85,700,bloc_loop.csv,2023-10-25_15h52.34.797,PainUncertainty,2022.2.5,143.1419954253813,
grave,forte,stimuli/330Hz,stimuli/forte,bloc_9,prob20hthp_12trials.xlsx,3,36,80,20,0,,,,,0,8,8,8,0,5,5,3,,,,,,,,4.1,2176.7166449000015,2180.8177199,2180.817820590001,0.30576839999957883,2181.262711200001,2181.262711200001,m,0.8443710999981704,2185.045289900001,2185.045289900001,83,2.883,,,,,sub-062,45,85,700,bloc_loop.csv,2023-10-25_15h52.34.797,PainUncertainty,2022.2.5,143.1419954253813,
aigu,moderee,stimuli/660Hz,stimuli/moderee,bloc_9,prob20hthp_12trials.xlsx,3,36,80,20,0,,,,,0,8,8,8,0,6,6,9,,,,,,,,3,2185.045289900001,2188.048171300001,2188.04820659,0.3008793000008154,2188.4924149000017,2188.4924149000017,n,1.3034311999981583,2192.0308938000016,2192.0308938000016,14,2.177,,,,,sub-062,45,85,700,bloc_loop.csv,2023-10-25_15h52.34.797,PainUncertainty,2022.2.5,143.1419954253813,
grave,forte,stimuli/330Hz,stimuli/forte,bloc_9,prob20hthp_12trials.xlsx,3,36,80,20,0,,,,,0,8,8,8,0,7,7,4,,,,,,,,3.7,2192.0308938000016,2195.736191,2195.7362555900004,0.3055741999996826,2196.1844623000015,2196.1844623000015,m,0.8881840999983979,2199.7540120000012,2199.7540120000012,86,2.615,,,,,sub-062,45,85,700,bloc_loop.csv,2023-10-25_15h52.34.797,PainUncertainty,2022.2.5,143.1419954253813,
grave,moderee,stimuli/330Hz,stimuli/moderee,bloc_9,prob20hthp_12trials.xlsx,3,36,80,20,0,,,,,0,8,8,8,0,8,8,5,,,,,,,,3.9,2199.7540120000012,2203.6537838000004,2203.6538079900006,0.2996069999990141,2204.0923838000017,2204.0923838000017,n,1.1527657999977237,2208.0020862,2208.0020862,13,2.697,,,,,sub-062,45,85,700,bloc_loop.csv,2023-10-25_15h52.34.797,PainUncertainty,2022.2.5,143.1419954253813,
grave,forte,stimuli/330Hz,stimuli/forte,bloc_9,prob20hthp_12trials.xlsx,3,36,80,20,0,,,,,0,8,8,8,0,9,9,1,,,,,,,,3.9,2208.0020862,2211.905096800001,2211.905157290001,0.3050859000013588,2212.349268,2212.349268,m,0.9717048999973485,2216.0773847,2216.0773847,84,2.699,,,,,sub-062,45,85,700,bloc_loop.csv,2023-10-25_15h52.34.797,PainUncertainty,2022.2.5,143.1419954253813,
grave,forte,stimuli/330Hz,stimuli/forte,bloc_9,prob20hthp_12trials.xlsx,3,36,80,20,0,,,,,0,8,8,8,0,10,10,0,,,,,,,,4.8,2216.0773847,2220.8781340000005,2220.8782056900004,0.3048562000003585,2221.3225030000012,2221.3225030000012,m,1.0078216999991128,2225.7010814000005,2225.7010814000005,86,3.301,,,,,sub-062,45,85,700,bloc_loop.csv,2023-10-25_15h52.34.797,PainUncertainty,2022.2.5,143.1419954253813,
aigu,moderee,stimuli/660Hz,stimuli/moderee,bloc_9,prob20hthp_12trials.xlsx,3,36,80,20,0,,,,,0,8,8,8,0,11,11,10,,,,,,,,3.9,2225.7010814000005,2229.6017925000015,2229.601790090001,0.3049281000003248,2230.050338000001,2230.050338000001,n,1.34730639999907,2234.0615351000015,2234.0615351000015,14,2.61,,,,,sub-062,45,85,700,bloc_loop.csv,2023-10-25_15h52.34.797,PainUncertainty,2022.2.5,143.1419954253813,
grave,forte,stimuli/330Hz,stimuli/forte,bloc_9,prob20hthp_12trials.xlsx,3,36,80,20,0,,,,,0,8,8,8,1,0,12,0,,,,,,,,4.8,2234.0615351000015,2238.8663058,2238.8661844900003,0.30588710000120045,2239.310883,2239.310883,m,0.9267879999988509,2243.9740850000017,2243.9740850000017,81,3.67,,,,,sub-062,45,85,700,bloc_loop.csv,2023-10-25_15h52.34.797,PainUncertainty,2022.2.5,143.1419954253813,
grave,forte,stimuli/330Hz,stimuli/forte,bloc_9,prob20hthp_12trials.xlsx,3,36,80,20,0,,,,,0,8,8,8,1,1,13,3,,,,,,,,3.2,2243.9740850000017,2247.179810400001,2247.1798932900006,0.30572009999923466,2247.628232500001,2247.628232500001,m,0.72206179999921,2251.7431526,2251.7431526,87,3.337,,,,,sub-062,45,85,700,bloc_loop.csv,2023-10-25_15h52.34.797,PainUncertainty,2022.2.5,143.1419954253813,
aigu,moderee,stimuli/660Hz,stimuli/moderee,bloc_9,prob20hthp_12trials.xlsx,3,36,80,20,0,,,,,0,8,8,8,1,2,14,8,,,,,,,,3.5,2251.7431526,2255.2432723,2255.2433687900016,0.3051041999988229,2255.6915899000014,2255.6915899000014,n,1.0185419999979786,2260.4888530000007,2260.4888530000007,13,3.713,,,,,sub-062,45,85,700,bloc_loop.csv,2023-10-25_15h52.34.797,PainUncertainty,2022.2.5,143.1419954253813,
aigu,moderee,stimuli/660Hz,stimuli/moderee,bloc_9,prob20hthp_12trials.xlsx,3,36,80,20,0,,,,,0,8,8,8,1,3,15,9,,,,,,,,3.4,2260.4888530000007,2263.8900995000004,2263.8901698900013,0.2999171999999817,2264.335090800001,2264.335090800001,n,1.106136599999445,2268.945854900001,2268.945854900001,5,3.439,,,,,sub-062,45,85,700,bloc_loop.csv,2023-10-25_15h52.34.797,PainUncertainty,2022.2.5,143.1419954253813,
aigu,moderee,stimuli/660Hz,stimuli/moderee,bloc_9,prob20hthp_12trials.xlsx,3,36,80,20,0,,,,,0,8,8,8,1,4,16,10,,,,,,,,4.9,2268.945854900001,2273.8497039000013,2273.8497735900005,0.3050333999999566,2274.2939836000005,2274.2939836000005,n,0.7983244999977614,2278.8739932000008,2278.8739932000008,14,3.732,,,,,sub-062,45,85,700,bloc_loop.csv,2023-10-25_15h52.34.797,PainUncertainty,2022.2.5,143.1419954253813,
grave,forte,stimuli/330Hz,stimuli/forte,bloc_9,prob20hthp_12trials.xlsx,3,36,80,20,0,,,,,0,8,8,8,1,5,17,2,,,,,,,,3.5,2278.8739932000008,2282.378540900001,2282.3786436900014,0.30478949999996985,2282.8269086,2282.8269086,m,0.69947559999855,2287.4753138000015,2287.4753138000015,86,3.885,,,,,sub-062,45,85,700,bloc_loop.csv,2023-10-25_15h52.34.797,PainUncertainty,2022.2.5,143.1419954253813,
grave,forte,stimuli/330Hz,stimuli/forte,bloc_9,prob20hthp_12trials.xlsx,3,36,80,20,0,,,,,0,8,8,8,1,6,18,4,,,,,,,,3.7,2287.4753138000015,2291.1781928,2291.17844869,0.30493179999939457,2291.6223268000012,2291.6223268000012,m,0.754231399998389,2295.086532200001,2295.086532200001,89,2.656,,,,,sub-062,45,85,700,bloc_loop.csv,2023-10-25_15h52.34.797,PainUncertainty,2022.2.5,143.1419954253813,
grave,moderee,stimuli/330Hz,stimuli/moderee,bloc_9,prob20hthp_12trials.xlsx,3,36,80,20,0,,,,,0,8,8,8,1,7,19,5,,,,,,,,3.3,2295.086532200001,2298.3878025000013,2298.3876122900006,0.30046500000025844,2298.8318562000004,2298.8318562000004,n,1.4300361999976303,2302.5844564000017,2302.5844564000017,16,2.261,,,,,sub-062,45,85,700,bloc_loop.csv,2023-10-25_15h52.34.797,PainUncertainty,2022.2.5,143.1419954253813,
aigu,moderee,stimuli/660Hz,stimuli/moderee,bloc_9,prob20hthp_12trials.xlsx,3,36,80,20,0,,,,,0,8,8,8,1,8,20,7,,,,,,,,4.3,2302.5844564000017,2306.8887454000014,2306.8891425900006,0.30421109999952023,2307.3325442000005,2307.3325442000005,n,1.297519799998554,2312.0955114000008,2312.0955114000008,22,3.406,,,,,sub-062,45,85,700,bloc_loop.csv,2023-10-25_15h52.34.797,PainUncertainty,2022.2.5,143.1419954253813,
aigu,forte,stimuli/660Hz,stimuli/forte,bloc_9,prob20hthp_12trials.xlsx,3,36,80,20,0,,,,,0,8,8,8,1,9,21,11,,,,,,,,4.1,2312.0955114000008,2316.195331000001,2316.1954149900016,0.30637670000032813,2316.6447119000004,2316.6447119000004,m,1.0561843999985285,2320.5048898000005,2320.5048898000005,86,2.747,,,,,sub-062,45,85,700,bloc_loop.csv,2023-10-25_15h52.34.797,PainUncertainty,2022.2.5,143.1419954253813,
aigu,moderee,stimuli/660Hz,stimuli/moderee,bloc_9,prob20hthp_12trials.xlsx,3,36,80,20,0,,,,,0,8,8,8,1,10,22,6,,,,,,,,4.1,2320.5048898000005,2324.6060006000007,2324.6059680900003,0.30511810000098194,2325.0539498000016,2325.0539498000016,n,1.1869228999985353,2328.5147475000012,2328.5147475000012,14,2.213,,,,,sub-062,45,85,700,bloc_loop.csv,2023-10-25_15h52.34.797,PainUncertainty,2022.2.5,143.1419954253813,
grave,forte,stimuli/330Hz,stimuli/forte,bloc_9,prob20hthp_12trials.xlsx,3,36,80,20,0,,,,,0,8,8,8,1,11,23,1,,,,,,,,3.9,2328.5147475000012,2332.419202700001,2332.4192831900004,0.30500539999957255,2332.8678427000013,2332.8678427000013,m,1.3666560999972717,2337.9644121,2337.9644121,88,3.67,,,,,sub-062,45,85,700,bloc_loop.csv,2023-10-25_15h52.34.797,PainUncertainty,2022.2.5,143.1419954253813,
grave,forte,stimuli/330Hz,stimuli/forte,bloc_9,prob20hthp_12trials.xlsx,3,36,80,20,0,,,,,0,8,8,8,2,0,24,1,,,,,,,,4.7,2337.9644121,2342.6633786,2342.6634499900015,0.3048367999999755,2343.1075382000017,2343.1075382000017,m,1.4775729999983014,2347.3795128,2347.3795128,88,2.741,,,,,sub-062,45,85,700,bloc_loop.csv,2023-10-25_15h52.34.797,PainUncertainty,2022.2.5,143.1419954253813,
aigu,moderee,stimuli/660Hz,stimuli/moderee,bloc_9,prob20hthp_12trials.xlsx,3,36,80,20,0,,,,,0,8,8,8,2,1,25,7,,,,,,,,3.4,2347.3795128,2350.7828264,2350.782899690001,0.3051403000008577,2351.228974400001,2351.228974400001,n,0.8305373999992298,2354.2542381000003,2354.2542381000003,5,2.144,,,,,sub-062,45,85,700,bloc_loop.csv,2023-10-25_15h52.34.797,PainUncertainty,2022.2.5,143.1419954253813,
aigu,moderee,stimuli/660Hz,stimuli/moderee,bloc_9,prob20hthp_12trials.xlsx,3,36,80,20,0,,,,,0,8,8,8,2,2,26,6,,,,,,,,4.6,2354.2542381000003,2358.8597161000016,2358.8597947900003,0.3049957000002905,2359.3038989000015,2359.3038989000015,n,1.0553646999997,2363.7835686000017,2363.7835686000017,15,3.372,,,,,sub-062,45,85,700,bloc_loop.csv,2023-10-25_15h52.34.797,PainUncertainty,2022.2.5,143.1419954253813,
aigu,moderee,stimuli/660Hz,stimuli/moderee,bloc_9,prob20hthp_12trials.xlsx,3,36,80,20,0,,,,,0,8,8,8,2,3,27,8,,,,,,,,5,2363.7835686000017,2368.784527400001,2368.7845439900016,0.30484940000133065,2369.2289649000013,2369.2289649000013,n,1.087699399997291,2373.7600613000013,2373.7600613000013,9,3.328,,,,,sub-062,45,85,700,bloc_loop.csv,2023-10-25_15h52.34.797,PainUncertainty,2022.2.5,143.1419954253813,
grave,forte,stimuli/330Hz,stimuli/forte,bloc_9,prob20hthp_12trials.xlsx,3,36,80,20,0,,,,,0,8,8,8,2,4,28,0,,,,,,,,3,2373.7600613000013,2376.7650157000007,2376.7660278900007,0.2994995999997627,2377.2092497000012,2377.2092497000012,m,0.766244699998424,2379.6276142000006,2379.6276142000006,89,1.593,,,,,sub-062,45,85,700,bloc_loop.csv,2023-10-25_15h52.34.797,PainUncertainty,2022.2.5,143.1419954253813,
grave,forte,stimuli/330Hz,stimuli/forte,bloc_9,prob20hthp_12trials.xlsx,3,36,80,20,0,,,,,0,8,8,8,2,5,29,4,,,,,,,,3.6,2379.6276142000006,2383.2307095000015,2383.2307774900005,0.3050930999997945,2383.6773295000003,2383.6773295000003,m,0.7096619999974791,2387.6522385000007,2387.6522385000007,88,3.206,,,,,sub-062,45,85,700,bloc_loop.csv,2023-10-25_15h52.34.797,PainUncertainty,2022.2.5,143.1419954253813,
grave,forte,stimuli/330Hz,stimuli/forte,bloc_9,prob20hthp_12trials.xlsx,3,36,80,20,0,,,,,0,8,8,8,2,6,30,3,,,,,,,,3,2387.6522385000007,2390.6558645000005,2390.6560847900005,0.30470559999957914,2391.1040756,2391.1040756,m,0.9033248999967327,2394.4167645000016,2394.4167645000016,89,2.344,,,,,sub-062,45,85,700,bloc_loop.csv,2023-10-25_15h52.34.797,PainUncertainty,2022.2.5,143.1419954253813,
aigu,moderee,stimuli/660Hz,stimuli/moderee,bloc_9,prob20hthp_12trials.xlsx,3,36,80,20,0,,,,,0,8,8,8,2,7,31,10,,,,,,,,4.7,2394.4167645000016,2399.1215615,2399.121591490001,0.30514279999988503,2399.566144800001,2399.566144800001,n,1.146231099997749,2403.048671800001,2403.048671800001,20,2.281,,,,,sub-062,45,85,700,bloc_loop.csv,2023-10-25_15h52.34.797,PainUncertainty,2022.2.5,143.1419954253813,
aigu,forte,stimuli/660Hz,stimuli/forte,bloc_9,prob20hthp_12trials.xlsx,3,36,80,20,0,,,,,0,8,8,8,2,8,32,11,,,,,,,,4,2403.048671800001,2407.053094500001,2407.053131590001,0.3051417999995465,2407.4971876,2407.4971876,m,1.3075594999991154,2411.777954500001,2411.777954500001,76,2.914,,,,,sub-062,45,85,700,bloc_loop.csv,2023-10-25_15h52.34.797,PainUncertainty,2022.2.5,143.1419954253813,
aigu,moderee,stimuli/660Hz,stimuli/moderee,bloc_9,prob20hthp_12trials.xlsx,3,36,80,20,0,,,,,0,8,8,8,2,9,33,9,,,,,,,,3.4,2411.777954500001,2415.1790244000003,2415.1790043900005,0.3052168000012898,2415.6232568000014,2415.6232568000014,n,1.1532932999980403,2420.0430089,2420.0430089,6,3.206,,,,,sub-062,45,85,700,bloc_loop.csv,2023-10-25_15h52.34.797,PainUncertainty,2022.2.5,143.1419954253813,
grave,forte,stimuli/330Hz,stimuli/forte,bloc_9,prob20hthp_12trials.xlsx,3,36,80,20,0,,,,,0,8,8,8,2,10,34,2,,,,,,,,3.3,2420.0430089,2423.3469840000016,2423.3469936900005,0.30129979999946954,2423.791223600001,2423.791223600001,m,1.1071012999982486,2427.5722931,2427.5722931,85,2.614,,,,,sub-062,45,85,700,bloc_loop.csv,2023-10-25_15h52.34.797,PainUncertainty,2022.2.5,143.1419954253813,
grave,moderee,stimuli/330Hz,stimuli/moderee,bloc_9,prob20hthp_12trials.xlsx,3,36,80,20,0,,,,,0,8,8,8,2,11,35,5,,,,,,,,4,2427.5722931,2431.5771299000007,2431.577223390001,0.3003398999990168,2432.021894700001,2432.021894700001,n,1.1247441999967123,2435.6380783000004,2435.6380783000004,24,2.469,,,,,sub-062,45,85,700,bloc_loop.csv,2023-10-25_15h52.34.797,PainUncertainty,2022.2.5,143.1419954253813,
