cue_,stimulus_,cue_fichier,stimulus_fichier,block_name,block_trials_file,block_n_reps,block_ntrials,block_prob_highP_highT,block_prob_highP_lowT,block_pause_after,Bloc_essai.thisRepN,Bloc_essai.thisTrialN,Bloc_essai.thisN,Bloc_essai.thisIndex,blocks.thisRepN,blocks.thisTrialN,blocks.thisN,blocks.thisIndex,trials.thisRepN,trials.thisTrialN,trials.thisN,trials.thisIndex,pause_loop.thisRepN,pause_loop.thisTrialN,pause_loop.thisN,pause_loop.thisIndex,key_resp_5.started,start_calib.started,key_resp_2.started,ISI_duration,pause.started,pause.stopped,cue.started,ISI.started,choice_pain.started,Choice.started,choice_pain.keys,choice_pain.rt,main_text.started,confirm_text.started,ratingScale.response,ratingScale.rt,choice_pain.stopped,Choice.stopped,key_resp_3.started,key_resp_6.started,participant,low_ma,high_ma,failsafe_ma,block_file,date,expName,psychopyVersion,frameRate,
grave,moderee,stimuli/330Hz,stimuli/moderee,,,,,,,,0,0,0,0,,,,,,,,,,,,,24.88587550000011,26.992728499999885,31.625893800000085,4.6,34.57161330000008,39.17632360000016,39.175442760000166,0.30498320000015156,39.619695800000045,39.619695800000045,n,0.8659079999993082,44.04341000000022,44.04341000000022,29,3.488,,,,,sub-030,20,60,700,bloc_loop.csv,2023-06-28_08h09.20.572,PainUncertainty,2022.2.5,142.91410433569465,
aigu,moderee,stimuli/660Hz,stimuli/moderee,,,,,,,,0,1,1,2,,,,,,,,,,,,,,,,3.5,44.04341000000022,47.54605390000006,47.544644460000015,0.30468199999995704,47.988584600000195,47.988584600000195,None,,52.800936699999966,52.800936699999966,5,2.315,50.45750530000032,50.45750530000032,,,sub-030,20,60,700,bloc_loop.csv,2023-06-28_08h09.20.572,PainUncertainty,2022.2.5,142.91410433569465,
grave,forte,stimuli/330Hz,stimuli/forte,,,,,,,,0,2,2,1,,,,,,,,,,,,,,,,4.3,52.800936699999966,57.100796300000184,57.10089746000021,0.3050791999999092,57.54499710000027,57.54499710000027,m,1.2501840999998421,61.22529740000027,61.22529740000027,65,2.371,,,,,sub-030,20,60,700,bloc_loop.csv,2023-06-28_08h09.20.572,PainUncertainty,2022.2.5,142.91410433569465,
aigu,forte,stimuli/660Hz,stimuli/forte,,,,,,,,0,3,3,3,,,,,,,,,,,,,,,,3.6,61.22529740000027,64.82438410000032,64.82449316000002,0.3045922999999675,65.26844170000004,65.26844170000004,m,1.1817927999995845,67.7321222999999,67.7321222999999,67,1.254,,,,,sub-030,20,60,700,bloc_loop.csv,2023-06-28_08h09.20.572,PainUncertainty,2022.2.5,142.91410433569465,
grave,forte,stimuli/330Hz,stimuli/forte,bloc_1,prob20hthp_12trials.xlsx,4,48,20,80,0,,,,,0,0,0,0,0,0,0,0,,,,,,,,3.8,86.40099120000013,90.20215460000009,90.20210156000012,0.3018062999999529,90.6474677000001,90.6474677000001,m,0.9212981999999101,94.1683436000003,94.1683436000003,70,2.545,,,,,sub-030,20,60,700,bloc_loop.csv,2023-06-28_08h09.20.572,PainUncertainty,2022.2.5,142.91410433569465,
grave,moderee,stimuli/330Hz,stimuli/moderee,bloc_1,prob20hthp_12trials.xlsx,4,48,20,80,0,,,,,0,0,0,0,0,1,1,5,,,,,,,,4.4,94.1683436000003,98.57142180000028,98.5713512600003,0.30527150000034453,99.01867799999991,99.01867799999991,n,0.7456663999996636,102.14316370000006,102.14316370000006,10,2.322,,,,,sub-030,20,60,700,bloc_loop.csv,2023-06-28_08h09.20.572,PainUncertainty,2022.2.5,142.91410433569465,
aigu,forte,stimuli/660Hz,stimuli/forte,bloc_1,prob20hthp_12trials.xlsx,4,48,20,80,0,,,,,0,0,0,0,0,2,2,11,,,,,,,,3,102.14316370000006,105.14906440000004,105.14883786,0.30527269999993223,105.59744940000019,105.59744940000019,m,0.8092233999996097,109.03302140000005,109.03302140000005,78,2.559,,,,,sub-030,20,60,700,bloc_loop.csv,2023-06-28_08h09.20.572,PainUncertainty,2022.2.5,142.91410433569465,
grave,forte,stimuli/330Hz,stimuli/forte,bloc_1,prob20hthp_12trials.xlsx,4,48,20,80,0,,,,,0,0,0,0,0,3,3,1,,,,,,,,3.2,109.03302140000005,112.23291250000011,112.23292456000017,0.30495429999973567,112.68383380000023,112.68383380000023,m,1.55318299999999,115.4250076000003,115.4250076000003,66,1.135,,,,,sub-030,20,60,700,bloc_loop.csv,2023-06-28_08h09.20.572,PainUncertainty,2022.2.5,142.91410433569465,
aigu,moderee,stimuli/660Hz,stimuli/moderee,bloc_1,prob20hthp_12trials.xlsx,4,48,20,80,0,,,,,0,0,0,0,0,4,4,8,,,,,,,,3.9,115.4250076000003,119.3306293999999,119.33075295999997,0.3050546000004033,119.77721490000022,119.77721490000022,n,0.6568523999994795,122.8915506000003,122.8915506000003,11,2.394,,,,,sub-030,20,60,700,bloc_loop.csv,2023-06-28_08h09.20.572,PainUncertainty,2022.2.5,142.91410433569465,
aigu,moderee,stimuli/660Hz,stimuli/moderee,bloc_1,prob20hthp_12trials.xlsx,4,48,20,80,0,,,,,0,0,0,0,0,5,5,7,,,,,,,,3.2,122.8915506000003,126.09588320000012,126.09571766000026,0.30501109999977416,126.54324350000024,126.54324350000024,n,0.6570741999998972,130.7073336000003,130.7073336000003,7,3.442,,,,,sub-030,20,60,700,bloc_loop.csv,2023-06-28_08h09.20.572,PainUncertainty,2022.2.5,142.91410433569465,
grave,forte,stimuli/330Hz,stimuli/forte,bloc_1,prob20hthp_12trials.xlsx,4,48,20,80,0,,,,,0,0,0,0,0,6,6,3,,,,,,,,4.2,130.7073336000003,134.90914550000025,134.90891926000023,0.3051728999998886,135.3529722000003,135.3529722000003,m,0.7661052999997082,137.73864140000023,137.73864140000023,81,1.566,,,,,sub-030,20,60,700,bloc_loop.csv,2023-06-28_08h09.20.572,PainUncertainty,2022.2.5,142.91410433569465,
grave,forte,stimuli/330Hz,stimuli/forte,bloc_1,prob20hthp_12trials.xlsx,4,48,20,80,0,,,,,0,0,0,0,0,7,7,4,,,,,,,,3.2,137.73864140000023,140.94437700000026,140.9442792600001,0.30505360000006476,141.3884361999999,141.3884361999999,m,0.8154763999996248,143.50897220000024,143.50897220000024,76,1.24,,,,,sub-030,20,60,700,bloc_loop.csv,2023-06-28_08h09.20.572,PainUncertainty,2022.2.5,142.91410433569465,
grave,forte,stimuli/330Hz,stimuli/forte,bloc_1,prob20hthp_12trials.xlsx,4,48,20,80,0,,,,,0,0,0,0,0,8,8,2,,,,,,,,3,143.50897220000024,146.5144395000002,146.51441035999989,0.3050873000001957,146.95850240000027,146.95850240000027,m,0.6292006999997284,149.77407119999998,149.77407119999998,79,2.134,,,,,sub-030,20,60,700,bloc_loop.csv,2023-06-28_08h09.20.572,PainUncertainty,2022.2.5,142.91410433569465,
aigu,moderee,stimuli/660Hz,stimuli/moderee,bloc_1,prob20hthp_12trials.xlsx,4,48,20,80,0,,,,,0,0,0,0,0,9,9,6,,,,,,,,4.2,149.77407119999998,153.97367609999992,153.97382546,0.3047685999999885,154.4220696000002,154.4220696000002,n,0.618810499999654,156.7435448000001,156.7435448000001,10,1.645,,,,,sub-030,20,60,700,bloc_loop.csv,2023-06-28_08h09.20.572,PainUncertainty,2022.2.5,142.91410433569465,
aigu,moderee,stimuli/660Hz,stimuli/moderee,bloc_1,prob20hthp_12trials.xlsx,4,48,20,80,0,,,,,0,0,0,0,0,10,10,9,,,,,,,,3.5,156.7435448000001,160.24569060000022,160.24568886000026,0.30484240000032514,160.6898209000001,160.6898209000001,n,0.7049617999996372,162.51315290000002,162.51315290000002,10,1.066,,,,,sub-030,20,60,700,bloc_loop.csv,2023-06-28_08h09.20.572,PainUncertainty,2022.2.5,142.91410433569465,
aigu,moderee,stimuli/660Hz,stimuli/moderee,bloc_1,prob20hthp_12trials.xlsx,4,48,20,80,0,,,,,0,0,0,0,0,11,11,10,,,,,,,,5,162.51315290000002,167.51699400000007,167.5171074600001,0.30504570000039166,167.96161100000018,167.96161100000018,n,0.6218973000000005,169.45190760000014,169.45190760000014,10,0.803,,,,,sub-030,20,60,700,bloc_loop.csv,2023-06-28_08h09.20.572,PainUncertainty,2022.2.5,142.91410433569465,
aigu,moderee,stimuli/660Hz,stimuli/moderee,bloc_1,prob20hthp_12trials.xlsx,4,48,20,80,0,,,,,0,0,0,0,1,0,12,10,,,,,,,,4.4,169.45190760000014,173.85110170000007,173.8511151599999,0.30006460000004154,174.29598310000029,174.29598310000029,n,0.6531310999994275,177.18768450000016,177.18768450000016,15,2.183,,,,,sub-030,20,60,700,bloc_loop.csv,2023-06-28_08h09.20.572,PainUncertainty,2022.2.5,142.91410433569465,
aigu,moderee,stimuli/660Hz,stimuli/moderee,bloc_1,prob20hthp_12trials.xlsx,4,48,20,80,0,,,,,0,0,0,0,1,1,13,7,,,,,,,,3.6,177.18768450000016,180.78973240000005,180.79008916000004,0.30476610000005167,181.23589200000015,181.23589200000015,n,0.6491826999995283,184.3791381000001,184.3791381000001,19,2.434,,,,,sub-030,20,60,700,bloc_loop.csv,2023-06-28_08h09.20.572,PainUncertainty,2022.2.5,142.91410433569465,
grave,forte,stimuli/330Hz,stimuli/forte,bloc_1,prob20hthp_12trials.xlsx,4,48,20,80,0,,,,,0,0,0,0,1,2,14,4,,,,,,,,3.3,184.3791381000001,187.6791902,187.67918205999996,0.3054096999999274,188.13070180000022,188.13070180000022,m,0.6718566999993527,191.82944709999992,191.82944709999992,79,2.964,,,,,sub-030,20,60,700,bloc_loop.csv,2023-06-28_08h09.20.572,PainUncertainty,2022.2.5,142.91410433569465,
grave,forte,stimuli/330Hz,stimuli/forte,bloc_1,prob20hthp_12trials.xlsx,4,48,20,80,0,,,,,0,0,0,0,1,3,15,1,,,,,,,,4.5,191.82944709999992,196.33287100000007,196.33370576,0.30445640000016283,196.77719220000017,196.77719220000017,m,0.6842782999997326,200.66858840000032,200.66858840000032,73,3.142,,,,,sub-030,20,60,700,bloc_loop.csv,2023-06-28_08h09.20.572,PainUncertainty,2022.2.5,142.91410433569465,
grave,forte,stimuli/330Hz,stimuli/forte,bloc_1,prob20hthp_12trials.xlsx,4,48,20,80,0,,,,,0,0,0,0,1,4,16,2,,,,,,,,4.1,200.66858840000032,204.7717021000003,204.77163376000027,0.3050646000001507,205.2158045000001,205.2158045000001,m,1.3246638999994502,208.2455732000003,208.2455732000003,82,1.643,,,,,sub-030,20,60,700,bloc_loop.csv,2023-06-28_08h09.20.572,PainUncertainty,2022.2.5,142.91410433569465,
grave,forte,stimuli/330Hz,stimuli/forte,bloc_1,prob20hthp_12trials.xlsx,4,48,20,80,0,,,,,0,0,0,0,1,5,17,0,,,,,,,,3.1,208.2455732000003,211.3491011000001,211.34909406000025,0.3053117999997994,211.7975524000003,211.7975524000003,m,1.1640059999995174,215.70753550000018,215.70753550000018,76,2.692,,,,,sub-030,20,60,700,bloc_loop.csv,2023-06-28_08h09.20.572,PainUncertainty,2022.2.5,142.91410433569465,
aigu,forte,stimuli/660Hz,stimuli/forte,bloc_1,prob20hthp_12trials.xlsx,4,48,20,80,0,,,,,0,0,0,0,1,6,18,11,,,,,,,,5,215.70753550000018,220.71089540000003,220.7109871599999,0.30585019999989527,221.1581583000002,221.1581583000002,m,1.170137899999645,224.56436620000022,224.56436620000022,77,2.176,,,,,sub-030,20,60,700,bloc_loop.csv,2023-06-28_08h09.20.572,PainUncertainty,2022.2.5,142.91410433569465,
aigu,moderee,stimuli/660Hz,stimuli/moderee,bloc_1,prob20hthp_12trials.xlsx,4,48,20,80,0,,,,,0,0,0,0,1,7,19,8,,,,,,,,3.7,224.56436620000022,228.26743870000018,228.26741266000028,0.30503520000002027,228.7116387000001,228.7116387000001,n,0.6892526999995425,232.73047459999998,232.73047459999998,9,3.274,,,,,sub-030,20,60,700,bloc_loop.csv,2023-06-28_08h09.20.572,PainUncertainty,2022.2.5,142.91410433569465,
aigu,moderee,stimuli/660Hz,stimuli/moderee,bloc_1,prob20hthp_12trials.xlsx,4,48,20,80,0,,,,,0,0,0,0,1,8,20,6,,,,,,,,3.4,232.73047459999998,236.13645910000014,236.13650136000007,0.30499920000011116,236.5806324,236.5806324,n,1.2589893999993365,241.64996689999998,241.64996689999998,9,3.747,,,,,sub-030,20,60,700,bloc_loop.csv,2023-06-28_08h09.20.572,PainUncertainty,2022.2.5,142.91410433569465,
grave,forte,stimuli/330Hz,stimuli/forte,bloc_1,prob20hthp_12trials.xlsx,4,48,20,80,0,,,,,0,0,0,0,1,9,21,3,,,,,,,,4.9,241.64996689999998,246.55431980000003,246.55438926000016,0.3049175000001014,246.99874880000016,246.99874880000016,m,1.5674919999996746,250.55306629999995,250.55306629999995,76,1.928,,,,,sub-030,20,60,700,bloc_loop.csv,2023-06-28_08h09.20.572,PainUncertainty,2022.2.5,142.91410433569465,
grave,moderee,stimuli/330Hz,stimuli/moderee,bloc_1,prob20hthp_12trials.xlsx,4,48,20,80,0,,,,,0,0,0,0,1,10,22,5,,,,,,,,4.6,250.55306629999995,255.15284509999992,255.1526188599999,0.30507170000009864,255.59679750000032,255.59679750000032,n,1.2034075000001394,258.5608884000003,258.5608884000003,8,1.698,,,,,sub-030,20,60,700,bloc_loop.csv,2023-06-28_08h09.20.572,PainUncertainty,2022.2.5,142.91410433569465,
aigu,moderee,stimuli/660Hz,stimuli/moderee,bloc_1,prob20hthp_12trials.xlsx,4,48,20,80,0,,,,,0,0,0,0,1,11,23,9,,,,,,,,3.2,258.5608884000003,261.7644829999999,261.76458016,0.30513829999972586,262.2090897000003,262.2090897000003,n,0.8326060999997935,265.3396665,265.3396665,5,2.241,,,,,sub-030,20,60,700,bloc_loop.csv,2023-06-28_08h09.20.572,PainUncertainty,2022.2.5,142.91410433569465,
grave,forte,stimuli/330Hz,stimuli/forte,bloc_1,prob20hthp_12trials.xlsx,4,48,20,80,0,,,,,0,0,0,0,2,0,24,1,,,,,,,,4.4,265.3396665,269.7446992,269.7447058599999,0.30502089999981763,270.1888914000001,270.1888914000001,m,0.9294009999998707,274.6246200999999,274.6246200999999,86,3.455,,,,,sub-030,20,60,700,bloc_loop.csv,2023-06-28_08h09.20.572,PainUncertainty,2022.2.5,142.91410433569465,
aigu,moderee,stimuli/660Hz,stimuli/moderee,bloc_1,prob20hthp_12trials.xlsx,4,48,20,80,0,,,,,0,0,0,0,2,1,25,6,,,,,,,,4.6,274.6246200999999,279.2254293000001,279.22529835999995,0.3005993000001581,279.6698015000002,279.6698015000002,n,0.7719235999998091,282.2650266999999,282.2650266999999,6,1.76,,,,,sub-030,20,60,700,bloc_loop.csv,2023-06-28_08h09.20.572,PainUncertainty,2022.2.5,142.91410433569465,
aigu,moderee,stimuli/660Hz,stimuli/moderee,bloc_1,prob20hthp_12trials.xlsx,4,48,20,80,0,,,,,0,0,0,0,2,2,26,10,,,,,,,,4.9,282.2650266999999,287.1707452999999,287.17069006,0.30527059999985795,287.61503410000023,287.61503410000023,n,1.2196649999996225,291.9199349999999,291.9199349999999,10,2.992,,,,,sub-030,20,60,700,bloc_loop.csv,2023-06-28_08h09.20.572,PainUncertainty,2022.2.5,142.91410433569465,
aigu,moderee,stimuli/660Hz,stimuli/moderee,bloc_1,prob20hthp_12trials.xlsx,4,48,20,80,0,,,,,0,0,0,0,2,3,27,8,,,,,,,,3.2,291.9199349999999,295.12318630000027,295.1233378600003,0.30456550000008065,295.5670445999999,295.5670445999999,n,1.002396499999577,300.6783359000001,300.6783359000001,8,4.053,,,,,sub-030,20,60,700,bloc_loop.csv,2023-06-28_08h09.20.572,PainUncertainty,2022.2.5,142.91410433569465,
grave,forte,stimuli/330Hz,stimuli/forte,bloc_1,prob20hthp_12trials.xlsx,4,48,20,80,0,,,,,0,0,0,0,2,4,28,3,,,,,,,,4.5,300.6783359000001,305.18164620000016,305.17981936000007,0.3053552999999738,305.6282887000002,305.6282887000002,m,0.7424968000000263,309.4532379000002,309.4532379000002,88,3.029,,,,,sub-030,20,60,700,bloc_loop.csv,2023-06-28_08h09.20.572,PainUncertainty,2022.2.5,142.91410433569465,
grave,forte,stimuli/330Hz,stimuli/forte,bloc_1,prob20hthp_12trials.xlsx,4,48,20,80,0,,,,,0,0,0,0,2,5,29,4,,,,,,,,4.1,309.4532379000002,313.5555835,313.5555481600002,0.30518560000018624,313.999648,313.999648,m,1.6599553999994896,320.6097401000002,320.6097401000002,87,4.893,,,,,sub-030,20,60,700,bloc_loop.csv,2023-06-28_08h09.20.572,PainUncertainty,2022.2.5,142.91410433569465,
grave,forte,stimuli/330Hz,stimuli/forte,bloc_1,prob20hthp_12trials.xlsx,4,48,20,80,0,,,,,0,0,0,0,2,6,30,2,,,,,,,,3.5,320.6097401000002,324.11362610000015,324.1130475600001,0.3007506999997531,324.5571924999999,324.5571924999999,m,1.2915436999996928,328.5232838000002,328.5232838000002,85,2.621,,,,,sub-030,20,60,700,bloc_loop.csv,2023-06-28_08h09.20.572,PainUncertainty,2022.2.5,142.91410433569465,
grave,moderee,stimuli/330Hz,stimuli/moderee,bloc_1,prob20hthp_12trials.xlsx,4,48,20,80,0,,,,,0,0,0,0,2,7,31,5,,,,,,,,3.7,328.5232838000002,332.2249818999999,332.2249680600001,0.30520830000023125,332.6731606000003,332.6731606000003,n,1.2090963999994528,336.1478761000003,336.1478761000003,7,2.205,,,,,sub-030,20,60,700,bloc_loop.csv,2023-06-28_08h09.20.572,PainUncertainty,2022.2.5,142.91410433569465,
grave,forte,stimuli/330Hz,stimuli/forte,bloc_1,prob20hthp_12trials.xlsx,4,48,20,80,0,,,,,0,0,0,0,2,8,32,0,,,,,,,,4.6,336.1478761000003,340.75362970000015,340.7536245600002,0.30240619999995033,341.198977,341.198977,m,0.8270951999998033,343.9797126000003,343.9797126000003,87,1.898,,,,,sub-030,20,60,700,bloc_loop.csv,2023-06-28_08h09.20.572,PainUncertainty,2022.2.5,142.91410433569465,
aigu,moderee,stimuli/660Hz,stimuli/moderee,bloc_1,prob20hthp_12trials.xlsx,4,48,20,80,0,,,,,0,0,0,0,2,9,33,9,,,,,,,,4.5,343.9797126000003,348.48347160000003,348.48351596000003,0.30511169999999765,348.9281077999999,348.9281077999999,n,0.622348499999589,353.5372417000003,353.5372417000003,12,3.932,,,,,sub-030,20,60,700,bloc_loop.csv,2023-06-28_08h09.20.572,PainUncertainty,2022.2.5,142.91410433569465,
aigu,forte,stimuli/660Hz,stimuli/forte,bloc_1,prob20hthp_12trials.xlsx,4,48,20,80,0,,,,,0,0,0,0,2,10,34,11,,,,,,,,4.2,353.5372417000003,357.74193330000026,357.74182686000023,0.3053746999999021,358.1902462000003,358.1902462000003,m,0.7320520999996916,360.7620345999999,360.7620345999999,87,1.788,,,,,sub-030,20,60,700,bloc_loop.csv,2023-06-28_08h09.20.572,PainUncertainty,2022.2.5,142.91410433569465,
aigu,moderee,stimuli/660Hz,stimuli/moderee,bloc_1,prob20hthp_12trials.xlsx,4,48,20,80,0,,,,,0,0,0,0,2,11,35,7,,,,,,,,4.2,360.7620345999999,364.9646244999999,364.9646651599999,0.3049295999999231,365.40871960000004,365.40871960000004,n,0.5793235999994977,369.9852393000001,369.9852393000001,7,3.935,,,,,sub-030,20,60,700,bloc_loop.csv,2023-06-28_08h09.20.572,PainUncertainty,2022.2.5,142.91410433569465,
grave,forte,stimuli/330Hz,stimuli/forte,bloc_1,prob20hthp_12trials.xlsx,4,48,20,80,0,,,,,0,0,0,0,3,0,36,4,,,,,,,,4.5,369.9852393000001,374.4871178000003,374.48701495999995,0.30011300000023766,374.9314072000002,374.9314072000002,m,0.8950941999996758,377.78524990000005,377.78524990000005,89,1.906,,,,,sub-030,20,60,700,bloc_loop.csv,2023-06-28_08h09.20.572,PainUncertainty,2022.2.5,142.91410433569465,
grave,forte,stimuli/330Hz,stimuli/forte,bloc_1,prob20hthp_12trials.xlsx,4,48,20,80,0,,,,,0,0,0,0,3,1,37,1,,,,,,,,3.1,377.78524990000005,380.8901584,380.8902736600001,0.3050692000001618,381.3386209999999,381.3386209999999,m,1.0811619000000974,384.4026318000001,384.4026318000001,88,1.928,,,,,sub-030,20,60,700,bloc_loop.csv,2023-06-28_08h09.20.572,PainUncertainty,2022.2.5,142.91410433569465,
aigu,moderee,stimuli/660Hz,stimuli/moderee,bloc_1,prob20hthp_12trials.xlsx,4,48,20,80,0,,,,,0,0,0,0,3,2,38,8,,,,,,,,3.3,384.4026318000001,387.7034727,387.70352106,0.30509170000004815,388.14762070000006,388.14762070000006,n,0.580447699999695,389.67864710000003,389.67864710000003,7,0.886,,,,,sub-030,20,60,700,bloc_loop.csv,2023-06-28_08h09.20.572,PainUncertainty,2022.2.5,142.91410433569465,
grave,forte,stimuli/330Hz,stimuli/forte,bloc_1,prob20hthp_12trials.xlsx,4,48,20,80,0,,,,,0,0,0,0,3,3,39,2,,,,,,,,5,389.67864710000003,394.6833041,394.68341416000004,0.30523189999985334,395.1279751000002,395.1279751000002,m,0.7865841999996519,399.50822199999993,399.50822199999993,88,3.526,,,,,sub-030,20,60,700,bloc_loop.csv,2023-06-28_08h09.20.572,PainUncertainty,2022.2.5,142.91410433569465,
aigu,moderee,stimuli/660Hz,stimuli/moderee,bloc_1,prob20hthp_12trials.xlsx,4,48,20,80,0,,,,,0,0,0,0,3,4,40,7,,,,,,,,4.7,399.50822199999993,404.2124710000003,404.21244306,0.3054495000001225,404.65726859999995,404.65726859999995,n,0.6319558999994115,407.93021550000003,407.93021550000003,9,2.587,,,,,sub-030,20,60,700,bloc_loop.csv,2023-06-28_08h09.20.572,PainUncertainty,2022.2.5,142.91410433569465,
grave,forte,stimuli/330Hz,stimuli/forte,bloc_1,prob20hthp_12trials.xlsx,4,48,20,80,0,,,,,0,0,0,0,3,5,41,0,,,,,,,,4,407.93021550000003,411.93558010000015,411.93567016000026,0.30509010000014314,412.3801346,412.3801346,m,0.6536201999997502,416.6733939999999,416.6733939999999,84,3.574,,,,,sub-030,20,60,700,bloc_loop.csv,2023-06-28_08h09.20.572,PainUncertainty,2022.2.5,142.91410433569465,
grave,moderee,stimuli/330Hz,stimuli/moderee,bloc_1,prob20hthp_12trials.xlsx,4,48,20,80,0,,,,,0,0,0,0,3,6,42,5,,,,,,,,3.8,416.6733939999999,420.47827099999995,420.47837536000026,0.3049087999997937,420.9224813000001,420.9224813000001,n,1.265891399999873,425.62444330000017,425.62444330000017,16,3.377,,,,,sub-030,20,60,700,bloc_loop.csv,2023-06-28_08h09.20.572,PainUncertainty,2022.2.5,142.91410433569465,
aigu,moderee,stimuli/660Hz,stimuli/moderee,bloc_1,prob20hthp_12trials.xlsx,4,48,20,80,0,,,,,0,0,0,0,3,7,43,9,,,,,,,,4.1,425.62444330000017,429.72948410000026,429.72958516,0.3048127000001841,430.1736175000001,430.1736175000001,n,0.6531671999996433,432.1616125999999,432.1616125999999,13,1.281,,,,,sub-030,20,60,700,bloc_loop.csv,2023-06-28_08h09.20.572,PainUncertainty,2022.2.5,142.91410433569465,
aigu,forte,stimuli/660Hz,stimuli/forte,bloc_1,prob20hthp_12trials.xlsx,4,48,20,80,0,,,,,0,0,0,0,3,8,44,11,,,,,,,,3.8,432.1616125999999,435.9663602999999,435.96639386,0.3006030000001374,436.4109383,436.4109383,m,1.586497999999665,439.6102192000003,439.6102192000003,85,1.552,,,,,sub-030,20,60,700,bloc_loop.csv,2023-06-28_08h09.20.572,PainUncertainty,2022.2.5,142.91410433569465,
grave,forte,stimuli/330Hz,stimuli/forte,bloc_1,prob20hthp_12trials.xlsx,4,48,20,80,0,,,,,0,0,0,0,3,9,45,3,,,,,,,,3.7,439.6102192000003,443.3147251999999,443.31477165999996,0.30075970000007146,443.75934340000003,443.75934340000003,m,0.665654199999608,446.2752851,446.2752851,85,1.803,,,,,sub-030,20,60,700,bloc_loop.csv,2023-06-28_08h09.20.572,PainUncertainty,2022.2.5,142.91410433569465,
aigu,moderee,stimuli/660Hz,stimuli/moderee,bloc_1,prob20hthp_12trials.xlsx,4,48,20,80,0,,,,,0,0,0,0,3,10,46,6,,,,,,,,4,446.2752851,450.28098850000015,450.28121956000024,0.30511729999989257,450.72959470000023,450.72959470000023,n,0.6870880999995279,453.5960734999999,453.5960734999999,9,2.129,,,,,sub-030,20,60,700,bloc_loop.csv,2023-06-28_08h09.20.572,PainUncertainty,2022.2.5,142.91410433569465,
aigu,moderee,stimuli/660Hz,stimuli/moderee,bloc_1,prob20hthp_12trials.xlsx,4,48,20,80,0,,,,,0,0,0,0,3,11,47,10,,,,,,,,3.1,453.5960734999999,456.69810110000026,456.69805716,0.30573240000012447,457.14729050000005,457.14729050000005,n,1.0940215999999054,460.05486180000025,460.05486180000025,12,1.753,,,,,sub-030,20,60,700,bloc_loop.csv,2023-06-28_08h09.20.572,PainUncertainty,2022.2.5,142.91410433569465,
aigu,moderee,stimuli/660Hz,stimuli/moderee,bloc_2,prob50_50_4trials.xlsx,2,8,50,50,1,,,,,0,1,1,1,0,0,0,2,,,,,,,,3.8,460.05486180000025,463.8592844,463.8592758600001,0.30505600000014965,464.3072397000001,464.3072397000001,n,0.565451299999495,468.7023478000001,468.7023478000001,9,3.775,,,,,sub-030,20,60,700,bloc_loop.csv,2023-06-28_08h09.20.572,PainUncertainty,2022.2.5,142.91410433569465,
grave,moderee,stimuli/330Hz,stimuli/moderee,bloc_2,prob50_50_4trials.xlsx,2,8,50,50,1,,,,,0,1,1,1,0,1,1,0,,,,,,,,3.2,468.7023478000001,471.9016360999999,471.90181766000006,0.3047955000001821,472.3454697000002,472.3454697000002,n,1.3281638999997085,475.7351431000002,475.7351431000002,15,2.004,,,,,sub-030,20,60,700,bloc_loop.csv,2023-06-28_08h09.20.572,PainUncertainty,2022.2.5,142.91410433569465,
aigu,forte,stimuli/660Hz,stimuli/forte,bloc_2,prob50_50_4trials.xlsx,2,8,50,50,1,,,,,0,1,1,1,0,2,2,3,,,,,,,,4,475.7351431000002,479.73548819999996,479.73557666000016,0.3050324000000728,480.17989910000006,480.17989910000006,m,1.1407228999996732,483.69356070000003,483.69356070000003,83,2.317,,,,,sub-030,20,60,700,bloc_loop.csv,2023-06-28_08h09.20.572,PainUncertainty,2022.2.5,142.91410433569465,
grave,forte,stimuli/330Hz,stimuli/forte,bloc_2,prob50_50_4trials.xlsx,2,8,50,50,1,,,,,0,1,1,1,0,3,3,1,,,,,,,,4.2,483.69356070000003,487.89660589999994,487.8965539600002,0.29971729999988383,488.3415777,488.3415777,m,0.9062091999999211,490.26331960000016,490.26331960000016,90,0.962,,,,,sub-030,20,60,700,bloc_loop.csv,2023-06-28_08h09.20.572,PainUncertainty,2022.2.5,142.91410433569465,
aigu,forte,stimuli/660Hz,stimuli/forte,bloc_2,prob50_50_4trials.xlsx,2,8,50,50,1,,,,,0,1,1,1,1,0,4,3,,,,,,,,3.1,490.26331960000016,493.3621809000001,493.36235386000027,0.30482579999988957,493.80633609999995,493.80633609999995,m,0.9544025999998667,498.4155224000001,498.4155224000001,86,3.594,,,,,sub-030,20,60,700,bloc_loop.csv,2023-06-28_08h09.20.572,PainUncertainty,2022.2.5,142.91410433569465,
grave,forte,stimuli/330Hz,stimuli/forte,bloc_2,prob50_50_4trials.xlsx,2,8,50,50,1,,,,,0,1,1,1,1,1,5,1,,,,,,,,3.6,498.4155224000001,502.01640750000024,502.01661196000015,0.30467559999988225,502.46013300000004,502.46013300000004,m,1.7044377999995959,507.6406928000001,507.6406928000001,87,3.405,,,,,sub-030,20,60,700,bloc_loop.csv,2023-06-28_08h09.20.572,PainUncertainty,2022.2.5,142.91410433569465,
aigu,moderee,stimuli/660Hz,stimuli/moderee,bloc_2,prob50_50_4trials.xlsx,2,8,50,50,1,,,,,0,1,1,1,1,2,6,2,,,,,,,,3,507.6406928000001,510.6420097,510.64210725999993,0.30513299999984156,511.0864753999999,511.0864753999999,n,0.6235151999994741,514.6409842000003,514.6409842000003,7,2.871,,,,,sub-030,20,60,700,bloc_loop.csv,2023-06-28_08h09.20.572,PainUncertainty,2022.2.5,142.91410433569465,
grave,moderee,stimuli/330Hz,stimuli/moderee,bloc_2,prob50_50_4trials.xlsx,2,8,50,50,1,,,,,0,1,1,1,1,3,7,0,,,,,,,,3.9,514.6409842000003,518.545709,518.5457485600002,0.30514240000002246,518.9898637000001,518.9898637000001,n,1.038072899999861,525.0802066000001,525.0802066000001,7,3.018,,,,,sub-030,20,60,700,bloc_loop.csv,2023-06-28_08h09.20.572,PainUncertainty,2022.2.5,142.91410433569465,
,,,,bloc_2,prob50_50_4trials.xlsx,2,8,50,50,1,,,,,0,1,1,1,,,,,0,0,0,0,,,,,,,,,,,,,,,,,,,525.0802066000001,634.0664268,sub-030,20,60,700,bloc_loop.csv,2023-06-28_08h09.20.572,PainUncertainty,2022.2.5,142.91410433569465,
aigu,forte,stimuli/660Hz,stimuli/forte,bloc_3,prob80hthp_12trials.xlsx,2,24,80,20,0,,,,,0,2,2,2,0,0,0,9,,,,,,,,3.4,635.2874510000001,638.6925876,638.6923606600001,0.30512309999994613,639.1363105,639.1363105,m,1.636234499999773,643.1657405000001,643.1657405000001,82,2.289,,,,,sub-030,20,60,700,bloc_loop.csv,2023-06-28_08h09.20.572,PainUncertainty,2022.2.5,142.91410433569465,
aigu,forte,stimuli/660Hz,stimuli/forte,bloc_3,prob80hthp_12trials.xlsx,2,24,80,20,0,,,,,0,2,2,2,0,1,1,8,,,,,,,,4.3,643.1657405000001,647.4708865000002,647.4708766599999,0.3053831000001992,647.9222806000002,647.9222806000002,m,0.5889400999999452,650.8217850999999,650.8217850999999,81,2.261,,,,,sub-030,20,60,700,bloc_loop.csv,2023-06-28_08h09.20.572,PainUncertainty,2022.2.5,142.91410433569465,
aigu,forte,stimuli/660Hz,stimuli/forte,bloc_3,prob80hthp_12trials.xlsx,2,24,80,20,0,,,,,0,2,2,2,0,2,2,7,,,,,,,,3,650.8217850999999,653.8257596000003,653.8257555600001,0.30534140000008847,654.269984,654.269984,m,0.6694942999997693,657.4871143999999,657.4871143999999,88,2.491,,,,,sub-030,20,60,700,bloc_loop.csv,2023-06-28_08h09.20.572,PainUncertainty,2022.2.5,142.91410433569465,
grave,forte,stimuli/330Hz,stimuli/forte,bloc_3,prob80hthp_12trials.xlsx,2,24,80,20,0,,,,,0,2,2,2,0,3,3,5,,,,,,,,3.1,657.4871143999999,660.5905026,660.59051686,0.30525840000018434,661.0352819,661.0352819,m,0.6948032000000239,663.9445116000002,663.9445116000002,84,2.158,,,,,sub-030,20,60,700,bloc_loop.csv,2023-06-28_08h09.20.572,PainUncertainty,2022.2.5,142.91410433569465,
grave,moderee,stimuli/330Hz,stimuli/moderee,bloc_3,prob80hthp_12trials.xlsx,2,24,80,20,0,,,,,0,2,2,2,0,4,4,3,,,,,,,,5,663.9445116000002,668.9457553000002,668.9456566599999,0.3054980000001706,669.3903458,669.3903458,n,0.7287178999995376,674.6698884000002,674.6698884000002,6,4.495,,,,,sub-030,20,60,700,bloc_loop.csv,2023-06-28_08h09.20.572,PainUncertainty,2022.2.5,142.91410433569465,
aigu,moderee,stimuli/660Hz,stimuli/moderee,bloc_3,prob80hthp_12trials.xlsx,2,24,80,20,0,,,,,0,2,2,2,0,5,5,11,,,,,,,,4.3,674.6698884000002,678.9747541000002,678.9746128600002,0.30050789999995686,679.4195137000002,679.4195137000002,n,0.6783136999993076,682.981432,682.981432,9,2.824,,,,,sub-030,20,60,700,bloc_loop.csv,2023-06-28_08h09.20.572,PainUncertainty,2022.2.5,142.91410433569465,
grave,moderee,stimuli/330Hz,stimuli/moderee,bloc_3,prob80hthp_12trials.xlsx,2,24,80,20,0,,,,,0,2,2,2,0,6,6,0,,,,,,,,4.6,682.981432,687.5867130000001,687.5867001600002,0.30546110000022964,688.0312668000001,688.0312668000001,n,0.9478945999994721,693.2748761000003,693.2748761000003,9,4.196,,,,,sub-030,20,60,700,bloc_loop.csv,2023-06-28_08h09.20.572,PainUncertainty,2022.2.5,142.91410433569465,
aigu,forte,stimuli/660Hz,stimuli/forte,bloc_3,prob80hthp_12trials.xlsx,2,24,80,20,0,,,,,0,2,2,2,0,7,7,6,,,,,,,,4.4,693.2748761000003,697.6786550000002,697.6798290600002,0.30381949999991775,698.1297795,698.1297795,m,1.110041199999614,701.5228215000002,701.5228215000002,89,2.234,,,,,sub-030,20,60,700,bloc_loop.csv,2023-06-28_08h09.20.572,PainUncertainty,2022.2.5,142.91410433569465,
aigu,forte,stimuli/660Hz,stimuli/forte,bloc_3,prob80hthp_12trials.xlsx,2,24,80,20,0,,,,,0,2,2,2,0,8,8,10,,,,,,,,3.8,701.5228215000002,705.3249922,705.3249715600002,0.30544689999987895,705.7691825000002,705.7691825000002,m,1.0410876999994798,709.4188881,709.4188881,88,2.56,,,,,sub-030,20,60,700,bloc_loop.csv,2023-06-28_08h09.20.572,PainUncertainty,2022.2.5,142.91410433569465,
grave,moderee,stimuli/330Hz,stimuli/moderee,bloc_3,prob80hthp_12trials.xlsx,2,24,80,20,0,,,,,0,2,2,2,0,9,9,2,,,,,,,,3.1,709.4188881,712.5207221999999,712.5207432600002,0.3046678000000611,712.9650206000001,712.9650206000001,n,0.605185299999448,718.7073691999999,718.7073691999999,10,5.068,,,,,sub-030,20,60,700,bloc_loop.csv,2023-06-28_08h09.20.572,PainUncertainty,2022.2.5,142.91410433569465,
grave,moderee,stimuli/330Hz,stimuli/moderee,bloc_3,prob80hthp_12trials.xlsx,2,24,80,20,0,,,,,0,2,2,2,0,10,10,1,,,,,,,,4.5,718.7073691999999,723.2091251000002,723.20907676,0.30526800000006915,723.6532551999999,723.6532551999999,n,0.6022243999996135,728.6812411999999,728.6812411999999,6,4.374,,,,,sub-030,20,60,700,bloc_loop.csv,2023-06-28_08h09.20.572,PainUncertainty,2022.2.5,142.91410433569465,
grave,moderee,stimuli/330Hz,stimuli/moderee,bloc_3,prob80hthp_12trials.xlsx,2,24,80,20,0,,,,,0,2,2,2,0,11,11,4,,,,,,,,3.8,728.6812411999999,732.4812462,732.4812211599999,0.30513599999994767,732.9252015000002,732.9252015000002,n,0.5592068999999356,737.0415266999998,737.0415266999998,8,3.491,,,,,sub-030,20,60,700,bloc_loop.csv,2023-06-28_08h09.20.572,PainUncertainty,2022.2.5,142.91410433569465,
grave,moderee,stimuli/330Hz,stimuli/moderee,bloc_3,prob80hthp_12trials.xlsx,2,24,80,20,0,,,,,0,2,2,2,1,0,12,1,,,,,,,,3.3,737.0415266999998,740.3435295999998,740.3435890600001,0.3021208000000115,740.7886954000005,740.7886954000005,n,0.5058463999989726,743.7210673,743.7210673,7,2.378,,,,,sub-030,20,60,700,bloc_loop.csv,2023-06-28_08h09.20.572,PainUncertainty,2022.2.5,142.91410433569465,
grave,moderee,stimuli/330Hz,stimuli/moderee,bloc_3,prob80hthp_12trials.xlsx,2,24,80,20,0,,,,,0,2,2,2,1,1,13,0,,,,,,,,4.2,743.7210673,747.9207797999998,747.9230769599997,0.3028769000002285,748.3684690999999,748.3684690999999,n,0.6582596999992347,750.6753157000003,750.6753157000003,10,1.594,,,,,sub-030,20,60,700,bloc_loop.csv,2023-06-28_08h09.20.572,PainUncertainty,2022.2.5,142.91410433569465,
aigu,forte,stimuli/660Hz,stimuli/forte,bloc_3,prob80hthp_12trials.xlsx,2,24,80,20,0,,,,,0,2,2,2,1,2,14,6,,,,,,,,4.4,750.6753157000003,755.0808600999999,755.0809208600001,0.3052543000003425,755.5251250000001,755.5251250000001,m,0.6817036999996162,759.0028426999997,759.0028426999997,88,2.74,,,,,sub-030,20,60,700,bloc_loop.csv,2023-06-28_08h09.20.572,PainUncertainty,2022.2.5,142.91410433569465,
aigu,forte,stimuli/660Hz,stimuli/forte,bloc_3,prob80hthp_12trials.xlsx,2,24,80,20,0,,,,,0,2,2,2,1,3,15,9,,,,,,,,3.2,759.0028426999997,762.2074626000003,762.2074485600003,0.30513539999992645,762.6560300000001,762.6560300000001,m,0.537824499999715,764.6276104999997,764.6276104999997,87,1.366,,,,,sub-030,20,60,700,bloc_loop.csv,2023-06-28_08h09.20.572,PainUncertainty,2022.2.5,142.91410433569465,
aigu,moderee,stimuli/660Hz,stimuli/moderee,bloc_3,prob80hthp_12trials.xlsx,2,24,80,20,0,,,,,0,2,2,2,1,4,16,11,,,,,,,,3.5,764.6276104999997,768.1311652000004,768.1312789600004,0.3047137000003204,768.5753231999997,768.5753231999997,n,0.775702899999942,771.8521879999998,771.8521879999998,8,2.448,,,,,sub-030,20,60,700,bloc_loop.csv,2023-06-28_08h09.20.572,PainUncertainty,2022.2.5,142.91410433569465,
aigu,forte,stimuli/660Hz,stimuli/forte,bloc_3,prob80hthp_12trials.xlsx,2,24,80,20,0,,,,,0,2,2,2,1,5,17,8,,,,,,,,4.5,771.8521879999998,776.3547779,776.3547968600003,0.301672999999937,776.7991168999997,776.7991168999997,m,1.1071601999997256,781.6515842999997,781.6515842999997,89,3.692,,,,,sub-030,20,60,700,bloc_loop.csv,2023-06-28_08h09.20.572,PainUncertainty,2022.2.5,142.91410433569465,
aigu,forte,stimuli/660Hz,stimuli/forte,bloc_3,prob80hthp_12trials.xlsx,2,24,80,20,0,,,,,0,2,2,2,1,6,18,10,,,,,,,,4.3,781.6515842999997,785.9526775000004,785.95287936,0.30488270000023476,786.3972463999999,786.3972463999999,m,0.788456299999325,788.7174792000005,788.7174792000005,87,1.469,,,,,sub-030,20,60,700,bloc_loop.csv,2023-06-28_08h09.20.572,PainUncertainty,2022.2.5,142.91410433569465,
grave,moderee,stimuli/330Hz,stimuli/moderee,bloc_3,prob80hthp_12trials.xlsx,2,24,80,20,0,,,,,0,2,2,2,1,7,19,3,,,,,,,,5,788.7174792000005,793.7175546999997,793.7175584599997,0.3049843000007968,794.1616805000003,794.1616805000003,n,0.6840766999998777,797.0749050000004,797.0749050000004,6,2.17,,,,,sub-030,20,60,700,bloc_loop.csv,2023-06-28_08h09.20.572,PainUncertainty,2022.2.5,142.91410433569465,
grave,moderee,stimuli/330Hz,stimuli/moderee,bloc_3,prob80hthp_12trials.xlsx,2,24,80,20,0,,,,,0,2,2,2,1,8,20,4,,,,,,,,4.1,797.0749050000004,801.1767393,801.1767304599996,0.3051190999995015,801.6208404999998,801.6208404999998,n,0.5883262000002105,803.7723206999999,803.7723206999999,6,1.504,,,,,sub-030,20,60,700,bloc_loop.csv,2023-06-28_08h09.20.572,PainUncertainty,2022.2.5,142.91410433569465,
grave,moderee,stimuli/330Hz,stimuli/moderee,bloc_3,prob80hthp_12trials.xlsx,2,24,80,20,0,,,,,0,2,2,2,1,9,21,2,,,,,,,,4.6,803.7723206999999,808.3728523,808.3727941599998,0.3012644000000364,808.8170445000005,808.8170445000005,n,0.5698669999997037,812.4517144000001,812.4517144000001,8,3.004,,,,,sub-030,20,60,700,bloc_loop.csv,2023-06-28_08h09.20.572,PainUncertainty,2022.2.5,142.91410433569465,
grave,forte,stimuli/330Hz,stimuli/forte,bloc_3,prob80hthp_12trials.xlsx,2,24,80,20,0,,,,,0,2,2,2,1,10,22,5,,,,,,,,4.8,812.4517144000001,817.2554413999997,817.2555656600005,0.3046502999995937,817.6994805000004,817.6994805000004,m,0.6512786999996933,821.3866797000001,821.3866797000001,82,2.984,,,,,sub-030,20,60,700,bloc_loop.csv,2023-06-28_08h09.20.572,PainUncertainty,2022.2.5,142.91410433569465,
aigu,forte,stimuli/660Hz,stimuli/forte,bloc_3,prob80hthp_12trials.xlsx,2,24,80,20,0,,,,,0,2,2,2,1,11,23,7,,,,,,,,4.2,821.3866797000001,825.5894734000003,825.5896273599999,0.30480420000003505,826.0335887000001,826.0335887000001,m,0.6934895999997934,830.2419977999998,830.2419977999998,83,3.452,,,,,sub-030,20,60,700,bloc_loop.csv,2023-06-28_08h09.20.572,PainUncertainty,2022.2.5,142.91410433569465,
aigu,forte,stimuli/660Hz,stimuli/forte,bloc_4,prob50_50_4trials.xlsx,2,8,50,50,1,,,,,0,3,3,3,0,0,0,3,,,,,,,,3.4,830.2419977999998,833.6476629999997,833.64619646,0.3048705000001064,834.0903331,834.0903331,m,0.5834792999999081,836.7813578000005,836.7813578000005,89,2.045,,,,,sub-030,20,60,700,bloc_loop.csv,2023-06-28_08h09.20.572,PainUncertainty,2022.2.5,142.91410433569465,
grave,forte,stimuli/330Hz,stimuli/forte,bloc_4,prob50_50_4trials.xlsx,2,8,50,50,1,,,,,0,3,3,3,0,1,1,1,,,,,,,,3.5,836.7813578000005,840.2855637000002,840.2856439599998,0.305335400000331,840.7297059000002,840.7297059000002,m,0.8941066000002138,844.7892858000005,844.7892858000005,87,3.101,,,,,sub-030,20,60,700,bloc_loop.csv,2023-06-28_08h09.20.572,PainUncertainty,2022.2.5,142.91410433569465,
aigu,moderee,stimuli/660Hz,stimuli/moderee,bloc_4,prob50_50_4trials.xlsx,2,8,50,50,1,,,,,0,3,3,3,0,2,2,2,,,,,,,,3.1,844.7892858000005,847.8904708,847.8905981599999,0.305361400000038,848.3372933,848.3372933,n,0.5504789000001438,852.0597926999999,852.0597926999999,6,3.122,,,,,sub-030,20,60,700,bloc_loop.csv,2023-06-28_08h09.20.572,PainUncertainty,2022.2.5,142.91410433569465,
grave,moderee,stimuli/330Hz,stimuli/moderee,bloc_4,prob50_50_4trials.xlsx,2,8,50,50,1,,,,,0,3,3,3,0,3,3,0,,,,,,,,5,852.0597926999999,857.0656546999999,857.0664758600003,0.3041370000000825,857.5095805999999,857.5095805999999,n,0.6023058000005221,860.3414836000002,860.3414836000002,8,2.177,,,,,sub-030,20,60,700,bloc_loop.csv,2023-06-28_08h09.20.572,PainUncertainty,2022.2.5,142.91410433569465,
grave,forte,stimuli/330Hz,stimuli/forte,bloc_4,prob50_50_4trials.xlsx,2,8,50,50,1,,,,,0,3,3,3,1,0,4,1,,,,,,,,3.4,860.3414836000002,863.7467908999997,863.7468477600003,0.3049583000001803,864.1914083000001,864.1914083000001,m,0.6753097999994679,867.9004838000001,867.9004838000001,89,2.968,,,,,sub-030,20,60,700,bloc_loop.csv,2023-06-28_08h09.20.572,PainUncertainty,2022.2.5,142.91410433569465,
grave,moderee,stimuli/330Hz,stimuli/moderee,bloc_4,prob50_50_4trials.xlsx,2,8,50,50,1,,,,,0,3,3,3,1,1,5,0,,,,,,,,4.1,867.9004838000001,872.0045332,872.0047829599996,0.29959429999962595,872.4490444000003,872.4490444000003,n,0.6780480999991596,874.6290803000002,874.6290803000002,6,1.439,,,,,sub-030,20,60,700,bloc_loop.csv,2023-06-28_08h09.20.572,PainUncertainty,2022.2.5,142.91410433569465,
aigu,moderee,stimuli/660Hz,stimuli/moderee,bloc_4,prob50_50_4trials.xlsx,2,8,50,50,1,,,,,0,3,3,3,1,2,6,2,,,,,,,,4.3,874.6290803000002,878.9290089000006,878.9289685600004,0.30542919999970763,879.3737146000003,879.3737146000003,n,1.42501669999956,883.8680304,883.8680304,16,3.012,,,,,sub-030,20,60,700,bloc_loop.csv,2023-06-28_08h09.20.572,PainUncertainty,2022.2.5,142.91410433569465,
aigu,forte,stimuli/660Hz,stimuli/forte,bloc_4,prob50_50_4trials.xlsx,2,8,50,50,1,,,,,0,3,3,3,1,3,7,3,,,,,,,,3.7,883.8680304,887.5689571000003,887.5689904600001,0.3052245999997467,888.0152230000003,888.0152230000003,m,0.7165968999993311,892.7525383000002,892.7525383000002,84,1.984,,,,,sub-030,20,60,700,bloc_loop.csv,2023-06-28_08h09.20.572,PainUncertainty,2022.2.5,142.91410433569465,
,,,,bloc_4,prob50_50_4trials.xlsx,2,8,50,50,1,,,,,0,3,3,3,,,,,0,0,0,0,,,,,,,,,,,,,,,,,,,892.7525383000002,916.9404882999997,sub-030,20,60,700,bloc_loop.csv,2023-06-28_08h09.20.572,PainUncertainty,2022.2.5,142.91410433569465,
aigu,moderee,stimuli/660Hz,stimuli/moderee,bloc_5,prob20hthp_12trials.xlsx,2,24,20,80,0,,,,,0,4,4,4,0,0,0,10,,,,,,,,3.9,918.0435256000001,921.9481028999999,921.9480920599997,0.2990849999996499,922.3906665000004,922.3906665000004,n,0.670522400000209,924.8189069999999,924.8189069999999,5,1.705,,,,,sub-030,20,60,700,bloc_loop.csv,2023-06-28_08h09.20.572,PainUncertainty,2022.2.5,142.91410433569465,
aigu,forte,stimuli/660Hz,stimuli/forte,bloc_5,prob20hthp_12trials.xlsx,2,24,20,80,0,,,,,0,4,4,4,0,1,1,11,,,,,,,,4.8,924.8189069999999,929.6225661999997,929.6224943599998,0.30526840000038646,930.0668286,930.0668286,m,0.8898934999992889,932.2521986000002,932.2521986000002,88,1.232,,,,,sub-030,20,60,700,bloc_loop.csv,2023-06-28_08h09.20.572,PainUncertainty,2022.2.5,142.91410433569465,
grave,forte,stimuli/330Hz,stimuli/forte,bloc_5,prob20hthp_12trials.xlsx,2,24,20,80,0,,,,,0,4,4,4,0,2,2,3,,,,,,,,4.8,932.2521986000002,937.0546431000002,937.0547993600001,0.3010197000003245,937.4988346999999,937.4988346999999,m,0.8871986999997716,940.2614602000003,940.2614602000003,86,1.808,,,,,sub-030,20,60,700,bloc_loop.csv,2023-06-28_08h09.20.572,PainUncertainty,2022.2.5,142.91410433569465,
grave,forte,stimuli/330Hz,stimuli/forte,bloc_5,prob20hthp_12trials.xlsx,2,24,20,80,0,,,,,0,4,4,4,0,3,3,2,,,,,,,,4.2,940.2614602000003,944.4645701999998,944.4645822600003,0.30507760000000417,944.9087279000005,944.9087279000005,m,0.5764287999995759,946.7190768999999,946.7190768999999,89,1.169,,,,,sub-030,20,60,700,bloc_loop.csv,2023-06-28_08h09.20.572,PainUncertainty,2022.2.5,142.91410433569465,
aigu,moderee,stimuli/660Hz,stimuli/moderee,bloc_5,prob20hthp_12trials.xlsx,2,24,20,80,0,,,,,0,4,4,4,0,4,4,9,,,,,,,,3.7,946.7190768999999,950.4236227000001,950.4236595600003,0.30499849999978323,950.8681260000003,950.8681260000003,n,0.5821212999994714,952.3462239999999,952.3462239999999,6,0.83,,,,,sub-030,20,60,700,bloc_loop.csv,2023-06-28_08h09.20.572,PainUncertainty,2022.2.5,142.91410433569465,
grave,forte,stimuli/330Hz,stimuli/forte,bloc_5,prob20hthp_12trials.xlsx,2,24,20,80,0,,,,,0,4,4,4,0,5,5,1,,,,,,,,3.5,952.3462239999999,955.8480411999999,955.8479574600003,0.3051684000001842,956.2959112999997,956.2959112999997,m,0.6025756000003639,958.7847878000002,958.7847878000002,89,1.83,,,,,sub-030,20,60,700,bloc_loop.csv,2023-06-28_08h09.20.572,PainUncertainty,2022.2.5,142.91410433569465,
grave,moderee,stimuli/330Hz,stimuli/moderee,bloc_5,prob20hthp_12trials.xlsx,2,24,20,80,0,,,,,0,4,4,4,0,6,6,5,,,,,,,,4.2,958.7847878000002,962.9878374,962.9879483600005,0.30484160000014526,963.4317579999997,963.4317579999997,n,0.6773865999998634,967.2416734999997,967.2416734999997,9,3.079,,,,,sub-030,20,60,700,bloc_loop.csv,2023-06-28_08h09.20.572,PainUncertainty,2022.2.5,142.91410433569465,
aigu,moderee,stimuli/660Hz,stimuli/moderee,bloc_5,prob20hthp_12trials.xlsx,2,24,20,80,0,,,,,0,4,4,4,0,7,7,7,,,,,,,,3.6,967.2416734999997,970.8428664000003,970.8427575599997,0.2993740000001708,971.2832893000004,971.2832893000004,n,1.1211661000002096,973.9227871000003,973.9227871000003,5,1.469,,,,,sub-030,20,60,700,bloc_loop.csv,2023-06-28_08h09.20.572,PainUncertainty,2022.2.5,142.91410433569465,
grave,forte,stimuli/330Hz,stimuli/forte,bloc_5,prob20hthp_12trials.xlsx,2,24,20,80,0,,,,,0,4,4,4,0,8,8,0,,,,,,,,4.4,973.9227871000003,978.3230162999998,978.3230803599997,0.30483989999993355,978.7669506000002,978.7669506000002,m,0.5397175999992214,983.3231594999997,983.3231594999997,87,3.946,,,,,sub-030,20,60,700,bloc_loop.csv,2023-06-28_08h09.20.572,PainUncertainty,2022.2.5,142.91410433569465,
aigu,moderee,stimuli/660Hz,stimuli/moderee,bloc_5,prob20hthp_12trials.xlsx,2,24,20,80,0,,,,,0,4,4,4,0,9,9,6,,,,,,,,4.1,983.3231594999997,987.4279564999997,987.4280794599997,0.3048245999998471,987.8721748999997,987.8721748999997,n,0.5413699000005181,990.5147863000002,990.5147863000002,8,2.046,,,,,sub-030,20,60,700,bloc_loop.csv,2023-06-28_08h09.20.572,PainUncertainty,2022.2.5,142.91410433569465,
aigu,moderee,stimuli/660Hz,stimuli/moderee,bloc_5,prob20hthp_12trials.xlsx,2,24,20,80,0,,,,,0,4,4,4,0,10,10,8,,,,,,,,3.2,990.5147863000002,993.7204594000004,993.7204084599996,0.3068401000000449,994.1718068,994.1718068,None,,1000.2639015000004,1000.2639015000004,10,3.581,,,,,sub-030,20,60,700,bloc_loop.csv,2023-06-28_08h09.20.572,PainUncertainty,2022.2.5,142.91410433569465,
grave,forte,stimuli/330Hz,stimuli/forte,bloc_5,prob20hthp_12trials.xlsx,2,24,20,80,0,,,,,0,4,4,4,0,11,11,4,,,,,,,,3.2,1000.2639015000004,1003.4646232000005,1003.4648615599997,0.3049944999993386,1003.9087589999999,1003.9087589999999,m,0.5446919999999409,1006.2257844000005,1006.2257844000005,90,1.711,,,,,sub-030,20,60,700,bloc_loop.csv,2023-06-28_08h09.20.572,PainUncertainty,2022.2.5,142.91410433569465,
aigu,moderee,stimuli/660Hz,stimuli/moderee,bloc_5,prob20hthp_12trials.xlsx,2,24,20,80,0,,,,,0,4,4,4,1,0,12,7,,,,,,,,3.2,1006.2257844000005,1009.4309908000005,1009.4311864600002,0.3048386999998911,1009.8750669000001,1009.8750669000001,n,0.48283739999942554,1011.7878525000006,1011.7878525000006,7,1.377,,,,,sub-030,20,60,700,bloc_loop.csv,2023-06-28_08h09.20.572,PainUncertainty,2022.2.5,142.91410433569465,
grave,forte,stimuli/330Hz,stimuli/forte,bloc_5,prob20hthp_12trials.xlsx,2,24,20,80,0,,,,,0,4,4,4,1,1,13,3,,,,,,,,4.4,1011.7878525000006,1016.1883714000005,1016.1883942600005,0.3050085000004401,1016.6329051000002,1016.6329051000002,m,0.5347775999994155,1018.8851892000002,1018.8851892000002,90,1.664,,,,,sub-030,20,60,700,bloc_loop.csv,2023-06-28_08h09.20.572,PainUncertainty,2022.2.5,142.91410433569465,
aigu,moderee,stimuli/660Hz,stimuli/moderee,bloc_5,prob20hthp_12trials.xlsx,2,24,20,80,0,,,,,0,4,4,4,1,2,14,8,,,,,,,,3.2,1018.8851892000002,1022.0852659000002,1022.0853455599997,0.30495869999958813,1022.5293695999999,1022.5293695999999,n,0.8587490999993861,1026.8924975999998,1026.8924975999998,7,3.448,,,,,sub-030,20,60,700,bloc_loop.csv,2023-06-28_08h09.20.572,PainUncertainty,2022.2.5,142.91410433569465,
aigu,moderee,stimuli/660Hz,stimuli/moderee,bloc_5,prob20hthp_12trials.xlsx,2,24,20,80,0,,,,,0,4,4,4,1,3,15,9,,,,,,,,3.8,1026.8924975999998,1030.6969945,1030.6970614600002,0.3049858000003951,1031.1451212000002,1031.1451212000002,n,1.5816638999999668,1036.3553082999997,1036.3553082999997,8,3.565,,,,,sub-030,20,60,700,bloc_loop.csv,2023-06-28_08h09.20.572,PainUncertainty,2022.2.5,142.91410433569465,
grave,forte,stimuli/330Hz,stimuli/forte,bloc_5,prob20hthp_12trials.xlsx,2,24,20,80,0,,,,,0,4,4,4,1,4,16,1,,,,,,,,4.4,1036.3553082999997,1040.7606567000003,1040.7606910600005,0.3052168000003803,1041.2048393000005,1041.2048393000005,m,0.6213979999997719,1044.8263883,1044.8263883,88,2.947,,,,,sub-030,20,60,700,bloc_loop.csv,2023-06-28_08h09.20.572,PainUncertainty,2022.2.5,142.91410433569465,
grave,moderee,stimuli/330Hz,stimuli/moderee,bloc_5,prob20hthp_12trials.xlsx,2,24,20,80,0,,,,,0,4,4,4,1,5,17,5,,,,,,,,3.3,1044.8263883,1048.1297671000002,1048.1300103600004,0.3047765999999683,1048.5781243000001,1048.5781243000001,m,1.581101100000069,1053.8093680000002,1053.8093680000002,9,3.593,,,,,sub-030,20,60,700,bloc_loop.csv,2023-06-28_08h09.20.572,PainUncertainty,2022.2.5,142.91410433569465,
grave,forte,stimuli/330Hz,stimuli/forte,bloc_5,prob20hthp_12trials.xlsx,2,24,20,80,0,,,,,0,4,4,4,1,6,18,0,,,,,,,,3.3,1053.8093680000002,1057.1107467000002,1057.1109191599996,0.304380300000048,1057.5578502999997,1057.5578502999997,m,0.5797299999999268,1062.4572408000004,1062.4572408000004,88,4.267,,,,,sub-030,20,60,700,bloc_loop.csv,2023-06-28_08h09.20.572,PainUncertainty,2022.2.5,142.91410433569465,
grave,forte,stimuli/330Hz,stimuli/forte,bloc_5,prob20hthp_12trials.xlsx,2,24,20,80,0,,,,,0,4,4,4,1,7,19,2,,,,,,,,4.8,1062.4572408000004,1067.2569885000003,1067.2570370600004,0.30555920000006154,1067.7042496000004,1067.7042496000004,m,0.6147841999995762,1069.9067293999997,1069.9067293999997,87,1.525,,,,,sub-030,20,60,700,bloc_loop.csv,2023-06-28_08h09.20.572,PainUncertainty,2022.2.5,142.91410433569465,
aigu,moderee,stimuli/660Hz,stimuli/moderee,bloc_5,prob20hthp_12trials.xlsx,2,24,20,80,0,,,,,0,4,4,4,1,8,20,6,,,,,,,,3,1069.9067293999997,1072.9103789,1072.91033166,0.30503360000057,1073.3618201,1073.3618201,n,0.588487299999997,1075.9968987000002,1075.9968987000002,6,1.983,,,,,sub-030,20,60,700,bloc_loop.csv,2023-06-28_08h09.20.572,PainUncertainty,2022.2.5,142.91410433569465,
grave,forte,stimuli/330Hz,stimuli/forte,bloc_5,prob20hthp_12trials.xlsx,2,24,20,80,0,,,,,0,4,4,4,1,9,21,4,,,,,,,,3.4,1075.9968987000002,1079.3972578000003,1079.3972667599999,0.30528700000013487,1079.8456346000003,1079.8456346000003,m,0.5168840999990607,1084.3556036,1084.3556036,88,3.94,,,,,sub-030,20,60,700,bloc_loop.csv,2023-06-28_08h09.20.572,PainUncertainty,2022.2.5,142.91410433569465,
aigu,forte,stimuli/660Hz,stimuli/forte,bloc_5,prob20hthp_12trials.xlsx,2,24,20,80,0,,,,,0,4,4,4,1,10,22,11,,,,,,,,3.3,1084.3556036,1087.6551343,1087.65530026,0.3050504999991972,1088.0992994999997,1088.0992994999997,m,0.7699127999999291,1089.9973883000002,1089.9973883000002,92,1.067,,,,,sub-030,20,60,700,bloc_loop.csv,2023-06-28_08h09.20.572,PainUncertainty,2022.2.5,142.91410433569465,
aigu,moderee,stimuli/660Hz,stimuli/moderee,bloc_5,prob20hthp_12trials.xlsx,2,24,20,80,0,,,,,0,4,4,4,1,11,23,10,,,,,,,,3,1089.9973883000002,1092.9965049000002,1092.9964601600002,0.3050680000005741,1093.4403784000006,1093.4403784000006,n,0.5614434999993136,1096.0866172000005,1096.0866172000005,2,2.032,,,,,sub-030,20,60,700,bloc_loop.csv,2023-06-28_08h09.20.572,PainUncertainty,2022.2.5,142.91410433569465,
aigu,moderee,stimuli/660Hz,stimuli/moderee,bloc_6,prob50_50_4trials.xlsx,2,8,50,50,0,,,,,0,5,5,5,0,0,0,2,,,,,,,,4,1096.0866172000005,1100.0871947000005,1100.08728416,0.30569000000014057,1100.5359067,1100.5359067,n,0.5284856000002947,1103.5845104,1103.5845104,6,2.47,,,,,sub-030,20,60,700,bloc_loop.csv,2023-06-28_08h09.20.572,PainUncertainty,2022.2.5,142.91410433569465,
grave,moderee,stimuli/330Hz,stimuli/moderee,bloc_6,prob50_50_4trials.xlsx,2,8,50,50,0,,,,,0,5,5,5,0,1,1,0,,,,,,,,3.5,1103.5845104,1107.0884877999997,1107.0885519600004,0.3052520999999615,1107.5364225000003,1107.5364225000003,n,0.8922594000000572,1111.0331597000004,1111.0331597000004,3,2.546,,,,,sub-030,20,60,700,bloc_loop.csv,2023-06-28_08h09.20.572,PainUncertainty,2022.2.5,142.91410433569465,
aigu,forte,stimuli/660Hz,stimuli/forte,bloc_6,prob50_50_4trials.xlsx,2,8,50,50,0,,,,,0,5,5,5,0,2,2,3,,,,,,,,5,1111.0331597000004,1116.0334960999999,1116.03350036,0.30511769999975513,1116.4777240000003,1116.4777240000003,m,0.6596475999999711,1118.1779428,1118.1779428,90,0.982,,,,,sub-030,20,60,700,bloc_loop.csv,2023-06-28_08h09.20.572,PainUncertainty,2022.2.5,142.91410433569465,
grave,forte,stimuli/330Hz,stimuli/forte,bloc_6,prob50_50_4trials.xlsx,2,8,50,50,0,,,,,0,5,5,5,0,3,3,1,,,,,,,,3.5,1118.1779428,1121.6803335000004,1121.6805886600002,0.30459630000041216,1122.1241971999998,1122.1241971999998,m,0.5754543999996713,1125.9133180999997,1125.9133180999997,93,3.162,,,,,sub-030,20,60,700,bloc_loop.csv,2023-06-28_08h09.20.572,PainUncertainty,2022.2.5,142.91410433569465,
aigu,moderee,stimuli/660Hz,stimuli/moderee,bloc_6,prob50_50_4trials.xlsx,2,8,50,50,0,,,,,0,5,5,5,1,0,4,2,,,,,,,,4.9,1125.9133180999997,1130.8136095,1130.8133630600003,0.3011956000000282,1131.2576602999998,1131.2576602999998,n,0.5517119999999522,1133.8747872000004,1133.8747872000004,8,1.996,,,,,sub-030,20,60,700,bloc_loop.csv,2023-06-28_08h09.20.572,PainUncertainty,2022.2.5,142.91410433569465,
grave,forte,stimuli/330Hz,stimuli/forte,bloc_6,prob50_50_4trials.xlsx,2,8,50,50,0,,,,,0,5,5,5,1,1,5,1,,,,,,,,4.8,1133.8747872000004,1138.6755364,1138.6754655600005,0.305093100000704,1139.1214032999997,1139.1214032999997,m,0.6597288999996636,1143.1913092000004,1143.1913092000004,90,3.344,,,,,sub-030,20,60,700,bloc_loop.csv,2023-06-28_08h09.20.572,PainUncertainty,2022.2.5,142.91410433569465,
aigu,forte,stimuli/660Hz,stimuli/forte,bloc_6,prob50_50_4trials.xlsx,2,8,50,50,0,,,,,0,5,5,5,1,2,6,3,,,,,,,,3,1143.1913092000004,1146.1903183000004,1146.19132256,0.3041592999998102,1146.6381130999998,1146.6381130999998,m,0.6578905999999733,1150.0969984000003,1150.0969984000003,92,2.732,,,,,sub-030,20,60,700,bloc_loop.csv,2023-06-28_08h09.20.572,PainUncertainty,2022.2.5,142.91410433569465,
grave,moderee,stimuli/330Hz,stimuli/moderee,bloc_6,prob50_50_4trials.xlsx,2,8,50,50,0,,,,,0,5,5,5,1,3,7,0,,,,,,,,4.9,1150.0969984000003,1154.9965374000003,1154.99656346,0.3052032000005056,1155.4433915999998,1155.4433915999998,n,0.6375736999993933,1159.3193933000002,1159.3193933000002,4,3.177,,,,,sub-030,20,60,700,bloc_loop.csv,2023-06-28_08h09.20.572,PainUncertainty,2022.2.5,142.91410433569465,
grave,moderee,stimuli/330Hz,stimuli/moderee,bloc_7,prob80hthp_12trials.xlsx,2,24,80,20,1,,,,,0,6,6,6,0,0,0,2,,,,,,,,3.2,1159.3193933000002,1162.5193368999999,1162.5187380599998,0.30484660000001895,1162.9624486000002,1162.9624486000002,n,0.6257648000005247,1165.5210052000002,1165.5210052000002,5,1.871,,,,,sub-030,20,60,700,bloc_loop.csv,2023-06-28_08h09.20.572,PainUncertainty,2022.2.5,142.91410433569465,
aigu,forte,stimuli/660Hz,stimuli/forte,bloc_7,prob80hthp_12trials.xlsx,2,24,80,20,1,,,,,0,6,6,6,0,1,1,7,,,,,,,,3.6,1165.5210052000002,1169.1235993,1169.1240780599999,0.30040900000039983,1169.5681659000002,1169.5681659000002,m,0.5990338999995402,1171.0510751000002,1171.0510751000002,90,0.83,,,,,sub-030,20,60,700,bloc_loop.csv,2023-06-28_08h09.20.572,PainUncertainty,2022.2.5,142.91410433569465,
aigu,forte,stimuli/660Hz,stimuli/forte,bloc_7,prob80hthp_12trials.xlsx,2,24,80,20,1,,,,,0,6,6,6,0,2,2,8,,,,,,,,4.5,1171.0510751000002,1175.5546304999998,1175.5546774600004,0.3060072999996919,1176.0022940999997,1176.0022940999997,m,0.8109692000002724,1178.5497249999999,1178.5497249999999,90,1.67,,,,,sub-030,20,60,700,bloc_loop.csv,2023-06-28_08h09.20.572,PainUncertainty,2022.2.5,142.91410433569465,
grave,moderee,stimuli/330Hz,stimuli/moderee,bloc_7,prob80hthp_12trials.xlsx,2,24,80,20,1,,,,,0,6,6,6,0,3,3,0,,,,,,,,4.6,1178.5497249999999,1183.1533316000005,1183.1533609599999,0.30178609999984474,1183.5974070000002,1183.5974070000002,n,0.6434963999995489,1190.2156224,1190.2156224,4,5.914,,,,,sub-030,20,60,700,bloc_loop.csv,2023-06-28_08h09.20.572,PainUncertainty,2022.2.5,142.91410433569465,
grave,moderee,stimuli/330Hz,stimuli/moderee,bloc_7,prob80hthp_12trials.xlsx,2,24,80,20,1,,,,,0,6,6,6,0,4,4,1,,,,,,,,3.9,1190.2156224,1194.1192658,1194.1193498600003,0.3050044000001435,1194.5634009000005,1194.5634009000005,n,1.875322800000049,1199.8856199000002,1199.8856199000002,5,3.398,,,,,sub-030,20,60,700,bloc_loop.csv,2023-06-28_08h09.20.572,PainUncertainty,2022.2.5,142.91410433569465,
aigu,forte,stimuli/660Hz,stimuli/forte,bloc_7,prob80hthp_12trials.xlsx,2,24,80,20,1,,,,,0,6,6,6,0,5,5,6,,,,,,,,4.8,1199.8856199000002,1204.6903288000003,1204.6903797600005,0.30668059999970865,1205.1416551000002,1205.1416551000002,m,1.4140450999998393,1208.5812680999998,1208.5812680999998,90,1.977,,,,,sub-030,20,60,700,bloc_loop.csv,2023-06-28_08h09.20.572,PainUncertainty,2022.2.5,142.91410433569465,
grave,moderee,stimuli/330Hz,stimuli/moderee,bloc_7,prob80hthp_12trials.xlsx,2,24,80,20,1,,,,,0,6,6,6,0,6,6,4,,,,,,,,3.9,1208.5812680999998,1212.4828724999998,1212.4830159600003,0.3051187999999456,1212.9304638000003,1212.9304638000003,n,0.5880786999991869,1216.3816548000004,1216.3816548000004,6,2.802,,,,,sub-030,20,60,700,bloc_loop.csv,2023-06-28_08h09.20.572,PainUncertainty,2022.2.5,142.91410433569465,
grave,moderee,stimuli/330Hz,stimuli/moderee,bloc_7,prob80hthp_12trials.xlsx,2,24,80,20,1,,,,,0,6,6,6,0,7,7,3,,,,,,,,3,1216.3816548000004,1219.3864839999997,1219.3864152599997,0.3050657999992836,1219.8303800000003,1219.8303800000003,n,0.4989024999999856,1222.5038887,1222.5038887,4,2.115,,,,,sub-030,20,60,700,bloc_loop.csv,2023-06-28_08h09.20.572,PainUncertainty,2022.2.5,142.91410433569465,
aigu,forte,stimuli/660Hz,stimuli/forte,bloc_7,prob80hthp_12trials.xlsx,2,24,80,20,1,,,,,0,6,6,6,0,8,8,9,,,,,,,,3.3,1222.5038887,1225.8036099,1225.8035802600004,0.3051574000000983,1226.2479451999998,1226.2479451999998,m,0.6808284000003368,1230.7509553999998,1230.7509553999998,88,3.774,,,,,sub-030,20,60,700,bloc_loop.csv,2023-06-28_08h09.20.572,PainUncertainty,2022.2.5,142.91410433569465,
aigu,forte,stimuli/660Hz,stimuli/forte,bloc_7,prob80hthp_12trials.xlsx,2,24,80,20,1,,,,,0,6,6,6,0,9,9,10,,,,,,,,3.8,1230.7509553999998,1234.5555888,1234.5549157599996,0.3050385999995342,1234.9994259000005,1234.9994259000005,m,0.5838559999997415,1239.2866979,1239.2866979,90,3.642,,,,,sub-030,20,60,700,bloc_loop.csv,2023-06-28_08h09.20.572,PainUncertainty,2022.2.5,142.91410433569465,
grave,forte,stimuli/330Hz,stimuli/forte,bloc_7,prob80hthp_12trials.xlsx,2,24,80,20,1,,,,,0,6,6,6,0,10,10,5,,,,,,,,3.6,1239.2866979,1242.8888134,1242.88885456,0.3052284999994299,1243.3333235,1243.3333235,m,0.6571689999996124,1245.1377659999998,1245.1377659999998,90,1.088,,,,,sub-030,20,60,700,bloc_loop.csv,2023-06-28_08h09.20.572,PainUncertainty,2022.2.5,142.91410433569465,
aigu,moderee,stimuli/660Hz,stimuli/moderee,bloc_7,prob80hthp_12trials.xlsx,2,24,80,20,1,,,,,0,6,6,6,0,11,11,11,,,,,,,,3.4,1245.1377659999998,1248.5422504999997,1248.5424313600004,0.30519839999942633,1248.9864773,1248.9864773,n,0.5582647000005636,1251.8030921,1251.8030921,3,2.19,,,,,sub-030,20,60,700,bloc_loop.csv,2023-06-28_08h09.20.572,PainUncertainty,2022.2.5,142.91410433569465,
aigu,forte,stimuli/660Hz,stimuli/forte,bloc_7,prob80hthp_12trials.xlsx,2,24,80,20,1,,,,,0,6,6,6,1,0,12,8,,,,,,,,4.3,1251.8030921,1256.1067399000003,1256.1062445599998,0.30499179999969783,1256.5503325999998,1256.5503325999998,m,0.710893799999667,1260.0990578,1260.0990578,87,2.783,,,,,sub-030,20,60,700,bloc_loop.csv,2023-06-28_08h09.20.572,PainUncertainty,2022.2.5,142.91410433569465,
aigu,forte,stimuli/660Hz,stimuli/forte,bloc_7,prob80hthp_12trials.xlsx,2,24,80,20,1,,,,,0,6,6,6,1,1,13,10,,,,,,,,4.7,1260.0990578,1264.8012153,1264.8011931600001,0.3053533000002062,1265.2454217000004,1265.2454217000004,m,1.0305060999994566,1269.7207737999997,1269.7207737999997,86,3.393,,,,,sub-030,20,60,700,bloc_loop.csv,2023-06-28_08h09.20.572,PainUncertainty,2022.2.5,142.91410433569465,
grave,moderee,stimuli/330Hz,stimuli/moderee,bloc_7,prob80hthp_12trials.xlsx,2,24,80,20,1,,,,,0,6,6,6,1,2,14,4,,,,,,,,3.8,1269.7207737999997,1273.5244668000005,1273.5246359600003,0.3007772000000841,1273.9692981999997,1273.9692981999997,n,0.5841222000003654,1275.9381079000004,1275.9381079000004,4,1.329,,,,,sub-030,20,60,700,bloc_loop.csv,2023-06-28_08h09.20.572,PainUncertainty,2022.2.5,142.91410433569465,
grave,moderee,stimuli/330Hz,stimuli/moderee,bloc_7,prob80hthp_12trials.xlsx,2,24,80,20,1,,,,,0,6,6,6,1,3,15,3,,,,,,,,3.6,1275.9381079000004,1279.5407424000005,1279.5395291600005,0.3047364000003654,1279.9835453000005,1279.9835453000005,n,0.949969300000248,1284.3137140999997,1284.3137140999997,4,3.324,,,,,sub-030,20,60,700,bloc_loop.csv,2023-06-28_08h09.20.572,PainUncertainty,2022.2.5,142.91410433569465,
aigu,forte,stimuli/660Hz,stimuli/forte,bloc_7,prob80hthp_12trials.xlsx,2,24,80,20,1,,,,,0,6,6,6,1,4,16,6,,,,,,,,4.7,1284.3137140999997,1289.0193588000002,1289.0194065599997,0.3050946000003023,1289.4639237000001,1289.4639237000001,m,0.8618959999998879,1292.7534372,1292.7534372,90,2.372,,,,,sub-030,20,60,700,bloc_loop.csv,2023-06-28_08h09.20.572,PainUncertainty,2022.2.5,142.91410433569465,
aigu,moderee,stimuli/660Hz,stimuli/moderee,bloc_7,prob80hthp_12trials.xlsx,2,24,80,20,1,,,,,0,6,6,6,1,5,17,11,,,,,,,,4.2,1292.7534372,1296.9576408000003,1296.9577274600003,0.3056305000000066,1297.4066696,1297.4066696,n,0.5836461999992935,1299.4188185000003,1299.4188185000003,5,1.378,,,,,sub-030,20,60,700,bloc_loop.csv,2023-06-28_08h09.20.572,PainUncertainty,2022.2.5,142.91410433569465,
grave,moderee,stimuli/330Hz,stimuli/moderee,bloc_7,prob80hthp_12trials.xlsx,2,24,80,20,1,,,,,0,6,6,6,1,6,18,1,,,,,,,,3.8,1299.4188185000003,1303.2228020000002,1303.2231030600003,0.30545859999983804,1303.6713282,1303.6713282,n,0.5929334999996172,1306.9800493000002,1306.9800493000002,4,2.663,,,,,sub-030,20,60,700,bloc_loop.csv,2023-06-28_08h09.20.572,PainUncertainty,2022.2.5,142.91410433569465,
aigu,forte,stimuli/660Hz,stimuli/forte,bloc_7,prob80hthp_12trials.xlsx,2,24,80,20,1,,,,,0,6,6,6,1,7,19,7,,,,,,,,4,1306.9800493000002,1310.9808146000005,1310.98084136,0.3049110000001747,1311.4285532000004,1311.4285532000004,m,0.7873362999994242,1315.8825567000004,1315.8825567000004,91,3.608,,,,,sub-030,20,60,700,bloc_loop.csv,2023-06-28_08h09.20.572,PainUncertainty,2022.2.5,142.91410433569465,
grave,forte,stimuli/330Hz,stimuli/forte,bloc_7,prob80hthp_12trials.xlsx,2,24,80,20,1,,,,,0,6,6,6,1,8,20,5,,,,,,,,3.4,1315.8825567000004,1319.2868857000003,1319.28700956,0.30486430000019027,1319.7310281,1319.7310281,m,0.905287799999769,1323.2506755000004,1323.2506755000004,92,2.552,,,,,sub-030,20,60,700,bloc_loop.csv,2023-06-28_08h09.20.572,PainUncertainty,2022.2.5,142.91410433569465,
grave,moderee,stimuli/330Hz,stimuli/moderee,bloc_7,prob80hthp_12trials.xlsx,2,24,80,20,1,,,,,0,6,6,6,1,9,21,2,,,,,,,,4.3,1323.2506755000004,1327.5521687,1327.5517115600003,0.3022715999995853,1327.9967716,1327.9967716,n,1.173926500000107,1332.1069674999999,1332.1069674999999,8,2.869,,,,,sub-030,20,60,700,bloc_loop.csv,2023-06-28_08h09.20.572,PainUncertainty,2022.2.5,142.91410433569465,
aigu,forte,stimuli/660Hz,stimuli/forte,bloc_7,prob80hthp_12trials.xlsx,2,24,80,20,1,,,,,0,6,6,6,1,10,22,9,,,,,,,,4,1332.1069674999999,1336.1082128999997,1336.10839586,0.3051151999998183,1336.5528176999997,1336.5528176999997,m,1.1261413999995966,1339.8752342999996,1339.8752342999996,90,2.136,,,,,sub-030,20,60,700,bloc_loop.csv,2023-06-28_08h09.20.572,PainUncertainty,2022.2.5,142.91410433569465,
grave,moderee,stimuli/330Hz,stimuli/moderee,bloc_7,prob80hthp_12trials.xlsx,2,24,80,20,1,,,,,0,6,6,6,1,11,23,0,,,,,,,,5,1339.8752342999996,1344.8804086,1344.8804846600003,0.30507160000070144,1345.3282080999998,1345.3282080999998,n,0.8414085999997951,1349.9760449000005,1349.9760449000005,4,1.774,,,,,sub-030,20,60,700,bloc_loop.csv,2023-06-28_08h09.20.572,PainUncertainty,2022.2.5,142.91410433569465,
,,,,bloc_7,prob80hthp_12trials.xlsx,2,24,80,20,1,,,,,0,6,6,6,,,,,0,0,0,0,,,,,,,,,,,,,,,,,,,1349.9760449000005,1570.8513351000001,sub-030,20,60,700,bloc_loop.csv,2023-06-28_08h09.20.572,PainUncertainty,2022.2.5,142.91410433569465,
aigu,moderee,stimuli/660Hz,stimuli/moderee,bloc_8,prob50_50_4trials.xlsx,3,12,50,50,0,,,,,0,7,7,7,0,0,0,2,,,,,,,,3.4,1571.8200784,1575.2199238000003,1575.22006226,0.3068135000003167,1575.6699961000004,1575.6699961000004,n,1.0652030999995077,1577.8129546,1577.8129546,5,1.01,,,,,sub-030,20,60,700,bloc_loop.csv,2023-06-28_08h09.20.572,PainUncertainty,2022.2.5,142.91410433569465,
aigu,forte,stimuli/660Hz,stimuli/forte,bloc_8,prob50_50_4trials.xlsx,3,12,50,50,0,,,,,0,7,7,7,0,1,1,3,,,,,,,,3.4,1577.8129546,1581.2137393000003,1581.2137578600002,0.30532530000073166,1581.6579155999998,1581.6579155999998,m,0.5790774999991299,1586.7950006,1586.7950006,89,4.504,,,,,sub-030,20,60,700,bloc_loop.csv,2023-06-28_08h09.20.572,PainUncertainty,2022.2.5,142.91410433569465,
grave,moderee,stimuli/330Hz,stimuli/moderee,bloc_8,prob50_50_4trials.xlsx,3,12,50,50,0,,,,,0,7,7,7,0,2,2,0,,,,,,,,3.2,1586.7950006,1589.9994974,1589.9995013599998,0.3050720999999612,1590.443612,1590.443612,n,0.602746400000342,1593.5254285,1593.5254285,6,2.414,,,,,sub-030,20,60,700,bloc_loop.csv,2023-06-28_08h09.20.572,PainUncertainty,2022.2.5,142.91410433569465,
grave,forte,stimuli/330Hz,stimuli/forte,bloc_8,prob50_50_4trials.xlsx,3,12,50,50,0,,,,,0,7,7,7,0,3,3,1,,,,,,,,3.9,1593.5254285,1597.4309092000003,1597.4310048599998,0.3055164000006698,1597.8791552000002,1597.8791552000002,m,0.6259310000000369,1600.8628874000005,1600.8628874000005,91,2.301,,,,,sub-030,20,60,700,bloc_loop.csv,2023-06-28_08h09.20.572,PainUncertainty,2022.2.5,142.91410433569465,
grave,moderee,stimuli/330Hz,stimuli/moderee,bloc_8,prob50_50_4trials.xlsx,3,12,50,50,0,,,,,0,7,7,7,1,0,4,0,,,,,,,,3.1,1600.8628874000005,1603.9669651000004,1603.9670690600003,0.3047305000000051,1604.4110013,1604.4110013,n,0.5122137000003022,1609.3971271,1609.3971271,3,4.414,,,,,sub-030,20,60,700,bloc_loop.csv,2023-06-28_08h09.20.572,PainUncertainty,2022.2.5,142.91410433569465,
aigu,moderee,stimuli/660Hz,stimuli/moderee,bloc_8,prob50_50_4trials.xlsx,3,12,50,50,0,,,,,0,7,7,7,1,1,5,2,,,,,,,,4.5,1609.3971271,1613.8982714000003,1613.8982549600003,0.30504520000067714,1614.3461675999997,1614.3461675999997,n,1.3048321999990549,1617.5486504,1617.5486504,7,1.785,,,,,sub-030,20,60,700,bloc_loop.csv,2023-06-28_08h09.20.572,PainUncertainty,2022.2.5,142.91410433569465,
aigu,forte,stimuli/660Hz,stimuli/forte,bloc_8,prob50_50_4trials.xlsx,3,12,50,50,0,,,,,0,7,7,7,1,2,6,3,,,,,,,,4.1,1617.5486504,1621.6493075999997,1621.6493610599998,0.3046629999998913,1622.0952901,1622.0952901,m,0.7136771000000408,1623.654708,1623.654708,90,0.787,,,,,sub-030,20,60,700,bloc_loop.csv,2023-06-28_08h09.20.572,PainUncertainty,2022.2.5,142.91410433569465,
grave,forte,stimuli/330Hz,stimuli/forte,bloc_8,prob50_50_4trials.xlsx,3,12,50,50,0,,,,,0,7,7,7,1,3,7,1,,,,,,,,4.7,1623.654708,1628.3582385,1628.3582798599998,0.30496409999977914,1628.8023873000002,1628.8023873000002,m,0.8180209999995895,1632.2238082000003,1632.2238082000003,91,2.545,,,,,sub-030,20,60,700,bloc_loop.csv,2023-06-28_08h09.20.572,PainUncertainty,2022.2.5,142.91410433569465,
grave,moderee,stimuli/330Hz,stimuli/moderee,bloc_8,prob50_50_4trials.xlsx,3,12,50,50,0,,,,,0,7,7,7,2,0,8,0,,,,,,,,3.3,1632.2238082000003,1635.5258077999997,1635.52576466,0.3049281000003248,1635.9706600999998,1635.9706600999998,n,0.7777262999993582,1638.263828,1638.263828,6,1.462,,,,,sub-030,20,60,700,bloc_loop.csv,2023-06-28_08h09.20.572,PainUncertainty,2022.2.5,142.91410433569465,
aigu,forte,stimuli/660Hz,stimuli/forte,bloc_8,prob50_50_4trials.xlsx,3,12,50,50,0,,,,,0,7,7,7,2,1,9,3,,,,,,,,3.7,1638.263828,1641.9640134,1641.9641490600004,0.3050543999997899,1642.4082555000005,1642.4082555000005,m,1.2610432999995282,1645.9685995999998,1645.9685995999998,92,2.246,,,,,sub-030,20,60,700,bloc_loop.csv,2023-06-28_08h09.20.572,PainUncertainty,2022.2.5,142.91410433569465,
grave,forte,stimuli/330Hz,stimuli/forte,bloc_8,prob50_50_4trials.xlsx,3,12,50,50,0,,,,,0,7,7,7,2,2,10,1,,,,,,,,4.1,1645.9685995999998,1650.0694647,1650.0692554599998,0.3052914999998393,1650.5175329000003,1650.5175329000003,m,1.0262469000003875,1654.8719907000004,1654.8719907000004,93,3.264,,,,,sub-030,20,60,700,bloc_loop.csv,2023-06-28_08h09.20.572,PainUncertainty,2022.2.5,142.91410433569465,
aigu,moderee,stimuli/660Hz,stimuli/moderee,bloc_8,prob50_50_4trials.xlsx,3,12,50,50,0,,,,,0,7,7,7,2,3,11,2,,,,,,,,3.7,1654.8719907000004,1658.5775463999998,1658.5774022599996,0.30504259999997885,1659.0213812000002,1659.0213812000002,n,1.307999799999834,1664.5092581999997,1664.5092581999997,8,4.108,,,,,sub-030,20,60,700,bloc_loop.csv,2023-06-28_08h09.20.572,PainUncertainty,2022.2.5,142.91410433569465,
grave,forte,stimuli/330Hz,stimuli/forte,bloc_9,prob20hthp_12trials.xlsx,3,36,80,20,0,,,,,0,8,8,8,0,0,0,1,,,,,,,,3.8,1664.5092581999997,1668.3148604999997,1668.3149302600002,0.3051826999999321,1668.7628962,1668.7628962,m,0.6982530999998744,1671.8156424,1671.8156424,91,2.297,,,,,sub-030,20,60,700,bloc_loop.csv,2023-06-28_08h09.20.572,PainUncertainty,2022.2.5,142.91410433569465,
aigu,moderee,stimuli/660Hz,stimuli/moderee,bloc_9,prob20hthp_12trials.xlsx,3,36,80,20,0,,,,,0,8,8,8,0,1,1,8,,,,,,,,4.8,1671.8156424,1676.6209048,1676.62098166,0.3049396999995224,1677.0650323,1677.0650323,n,1.1235616999997546,1680.5892887999998,1680.5892887999998,5,2.333,,,,,sub-030,20,60,700,bloc_loop.csv,2023-06-28_08h09.20.572,PainUncertainty,2022.2.5,142.91410433569465,
aigu,moderee,stimuli/660Hz,stimuli/moderee,bloc_9,prob20hthp_12trials.xlsx,3,36,80,20,0,,,,,0,8,8,8,0,2,2,9,,,,,,,,4.1,1680.5892887999998,1684.6913144,1684.6913816599997,0.30505540000012843,1685.1356223000003,1685.1356223000003,n,0.9515692999998464,1688.6763227000001,1688.6763227000001,5,2.538,,,,,sub-030,20,60,700,bloc_loop.csv,2023-06-28_08h09.20.572,PainUncertainty,2022.2.5,142.91410433569465,
grave,forte,stimuli/330Hz,stimuli/forte,bloc_9,prob20hthp_12trials.xlsx,3,36,80,20,0,,,,,0,8,8,8,0,3,3,3,,,,,,,,3.4,1688.6763227000001,1692.0810665,1692.0813047600002,0.3049836000000141,1692.5252861,1692.5252861,m,0.5638874999999643,1696.1254061999998,1696.1254061999998,90,2.97,,,,,sub-030,20,60,700,bloc_loop.csv,2023-06-28_08h09.20.572,PainUncertainty,2022.2.5,142.91410433569465,
aigu,moderee,stimuli/660Hz,stimuli/moderee,bloc_9,prob20hthp_12trials.xlsx,3,36,80,20,0,,,,,0,8,8,8,0,4,4,10,,,,,,,,4.3,1696.1254061999998,1700.429298,1700.4293574600003,0.30496260000018083,1700.877278,1700.877278,n,0.45513940000046205,1702.3269486999998,1702.3269486999998,5,0.941,,,,,sub-030,20,60,700,bloc_loop.csv,2023-06-28_08h09.20.572,PainUncertainty,2022.2.5,142.91410433569465,
grave,forte,stimuli/330Hz,stimuli/forte,bloc_9,prob20hthp_12trials.xlsx,3,36,80,20,0,,,,,0,8,8,8,0,5,5,4,,,,,,,,3,1702.3269486999998,1705.3326423999997,1705.3326402600003,0.3052949000002627,1705.7768693999997,1705.7768693999997,m,0.549653099999432,1710.3833036000005,1710.3833036000005,85,3.996,,,,,sub-030,20,60,700,bloc_loop.csv,2023-06-28_08h09.20.572,PainUncertainty,2022.2.5,142.91410433569465,
aigu,moderee,stimuli/660Hz,stimuli/moderee,bloc_9,prob20hthp_12trials.xlsx,3,36,80,20,0,,,,,0,8,8,8,0,6,6,7,,,,,,,,4.6,1710.3833036000005,1714.9865922,1714.9866945600004,0.3051351000003706,1715.4346549000002,1715.4346549000002,n,0.48348759999998947,1720.4842977999997,1720.4842977999997,4,4.511,,,,,sub-030,20,60,700,bloc_loop.csv,2023-06-28_08h09.20.572,PainUncertainty,2022.2.5,142.91410433569465,
grave,moderee,stimuli/330Hz,stimuli/moderee,bloc_9,prob20hthp_12trials.xlsx,3,36,80,20,0,,,,,0,8,8,8,0,7,7,5,,,,,,,,4,1720.4842977999997,1724.4876247000002,1724.4876775600003,0.30512350000026345,1724.9361294999999,1724.9361294999999,n,0.7579890000001797,1730.4907193,1730.4907193,6,4.74,,,,,sub-030,20,60,700,bloc_loop.csv,2023-06-28_08h09.20.572,PainUncertainty,2022.2.5,142.91410433569465,
grave,forte,stimuli/330Hz,stimuli/forte,bloc_9,prob20hthp_12trials.xlsx,3,36,80,20,0,,,,,0,8,8,8,0,8,8,0,,,,,,,,3.7,1730.4907193,1734.1905449000005,1734.1907939600003,0.30603750000045693,1734.6405642,1734.6405642,m,0.5874982999998792,1739.4256213999997,1739.4256213999997,92,4.143,,,,,sub-030,20,60,700,bloc_loop.csv,2023-06-28_08h09.20.572,PainUncertainty,2022.2.5,142.91410433569465,
grave,forte,stimuli/330Hz,stimuli/forte,bloc_9,prob20hthp_12trials.xlsx,3,36,80,20,0,,,,,0,8,8,8,0,9,9,2,,,,,,,,3.9,1739.4256213999997,1743.3302401,1743.3302220599996,0.30505709999943065,1743.7743390000005,1743.7743390000005,m,0.8825202000002719,1747.8670999000005,1747.8670999000005,91,2.093,,,,,sub-030,20,60,700,bloc_loop.csv,2023-06-28_08h09.20.572,PainUncertainty,2022.2.5,142.91410433569465,
aigu,moderee,stimuli/660Hz,stimuli/moderee,bloc_9,prob20hthp_12trials.xlsx,3,36,80,20,0,,,,,0,8,8,8,0,10,10,6,,,,,,,,3.6,1747.8670999000005,1751.4704477000005,1751.4711572599997,0.30431619999944814,1751.9144372,1751.9144372,n,0.9422506000005342,1755.1550357000006,1755.1550357000006,5,2.24,,,,,sub-030,20,60,700,bloc_loop.csv,2023-06-28_08h09.20.572,PainUncertainty,2022.2.5,142.91410433569465,
aigu,forte,stimuli/660Hz,stimuli/forte,bloc_9,prob20hthp_12trials.xlsx,3,36,80,20,0,,,,,0,8,8,8,0,11,11,11,,,,,,,,4,1755.1550357000006,1759.1589267999998,1759.15895806,0.3048994999999195,1759.6064802,1759.6064802,m,0.6020004999995763,1761.5637520999999,1761.5637520999999,93,1.288,,,,,sub-030,20,60,700,bloc_loop.csv,2023-06-28_08h09.20.572,PainUncertainty,2022.2.5,142.91410433569465,
grave,forte,stimuli/330Hz,stimuli/forte,bloc_9,prob20hthp_12trials.xlsx,3,36,80,20,0,,,,,0,8,8,8,1,0,12,3,,,,,,,,3.2,1761.5637520999999,1764.7635501000004,1764.76342026,0.30500339999980497,1765.211558,1765.211558,m,0.5418576999995821,1768.5488913,1768.5488913,91,2.733,,,,,sub-030,20,60,700,bloc_loop.csv,2023-06-28_08h09.20.572,PainUncertainty,2022.2.5,142.91410433569465,
aigu,forte,stimuli/660Hz,stimuli/forte,bloc_9,prob20hthp_12trials.xlsx,3,36,80,20,0,,,,,0,8,8,8,1,1,13,11,,,,,,,,3.3,1768.5488913,1771.8545407000001,1771.8546568600002,0.30056150000018533,1772.2998088000004,1772.2998088000004,m,1.4118917999999212,1776.0449716000003,1776.0449716000003,90,2.281,,,,,sub-030,20,60,700,bloc_loop.csv,2023-06-28_08h09.20.572,PainUncertainty,2022.2.5,142.91410433569465,
aigu,moderee,stimuli/660Hz,stimuli/moderee,bloc_9,prob20hthp_12trials.xlsx,3,36,80,20,0,,,,,0,8,8,8,1,2,14,7,,,,,,,,4.6,1776.0449716000003,1780.6471584,1780.6472870599998,0.30478579999999056,1781.09134,1781.09134,n,1.1238739999994323,1784.7731773000005,1784.7731773000005,5,2.498,,,,,sub-030,20,60,700,bloc_loop.csv,2023-06-28_08h09.20.572,PainUncertainty,2022.2.5,142.91410433569465,
grave,forte,stimuli/330Hz,stimuli/forte,bloc_9,prob20hthp_12trials.xlsx,3,36,80,20,0,,,,,0,8,8,8,1,3,15,2,,,,,,,,4.1,1784.7731773000005,1788.8774653,1788.8774149600001,0.30504320000000007,1789.3218773999997,1789.3218773999997,m,1.2573170999999093,1794.2839187,1794.2839187,85,3.655,,,,,sub-030,20,60,700,bloc_loop.csv,2023-06-28_08h09.20.572,PainUncertainty,2022.2.5,142.91410433569465,
grave,forte,stimuli/330Hz,stimuli/forte,bloc_9,prob20hthp_12trials.xlsx,3,36,80,20,0,,,,,0,8,8,8,1,4,16,0,,,,,,,,4.7,1794.2839187,1798.9895455000005,1798.9895769600005,0.3051565000005212,1799.4339417,1799.4339417,m,0.9957932999991499,1803.8904934000002,1803.8904934000002,91,3.408,,,,,sub-030,20,60,700,bloc_loop.csv,2023-06-28_08h09.20.572,PainUncertainty,2022.2.5,142.91410433569465,
grave,moderee,stimuli/330Hz,stimuli/moderee,bloc_9,prob20hthp_12trials.xlsx,3,36,80,20,0,,,,,0,8,8,8,1,5,17,5,,,,,,,,3.4,1803.8904934000002,1807.29623,1807.2961331599997,0.30565630000000965,1807.7446040000004,1807.7446040000004,n,0.5112700999993649,1812.6819692,1812.6819692,6,4.366,,,,,sub-030,20,60,700,bloc_loop.csv,2023-06-28_08h09.20.572,PainUncertainty,2022.2.5,142.91410433569465,
grave,forte,stimuli/330Hz,stimuli/forte,bloc_9,prob20hthp_12trials.xlsx,3,36,80,20,0,,,,,0,8,8,8,1,6,18,1,,,,,,,,4.3,1812.6819692,1816.9852620000001,1816.9852103600003,0.2994346999994377,1817.4231967000005,1817.4231967000005,m,0.6319330000001173,1821.6493012,1821.6493012,90,3.525,,,,,sub-030,20,60,700,bloc_loop.csv,2023-06-28_08h09.20.572,PainUncertainty,2022.2.5,142.91410433569465,
grave,forte,stimuli/330Hz,stimuli/forte,bloc_9,prob20hthp_12trials.xlsx,3,36,80,20,0,,,,,0,8,8,8,1,7,19,4,,,,,,,,3.9,1821.6493012,1825.5482849,1825.5484734600002,0.30509930000062013,1825.9996726,1825.9996726,m,1.1575383000003967,1830.7591247999999,1830.7591247999999,92,3.537,,,,,sub-030,20,60,700,bloc_loop.csv,2023-06-28_08h09.20.572,PainUncertainty,2022.2.5,142.91410433569465,
aigu,moderee,stimuli/660Hz,stimuli/moderee,bloc_9,prob20hthp_12trials.xlsx,3,36,80,20,0,,,,,0,8,8,8,1,8,20,10,,,,,,,,4.3,1830.7591247999999,1835.0637146999998,1835.06410536,0.3011802000000898,1835.5080353000003,1835.5080353000003,n,0.5606042000003981,1839.9976711,1839.9976711,3,3.873,,,,,sub-030,20,60,700,bloc_loop.csv,2023-06-28_08h09.20.572,PainUncertainty,2022.2.5,142.91410433569465,
aigu,moderee,stimuli/660Hz,stimuli/moderee,bloc_9,prob20hthp_12trials.xlsx,3,36,80,20,0,,,,,0,8,8,8,1,9,21,6,,,,,,,,4.6,1839.9976711,1844.5996274,1844.60106316,0.29966849999982514,1845.0435654000003,1845.0435654000003,n,0.8749621000001753,1849.8437175999998,1849.8437175999998,9,3.864,,,,,sub-030,20,60,700,bloc_loop.csv,2023-06-28_08h09.20.572,PainUncertainty,2022.2.5,142.91410433569465,
aigu,moderee,stimuli/660Hz,stimuli/moderee,bloc_9,prob20hthp_12trials.xlsx,3,36,80,20,0,,,,,0,8,8,8,1,10,22,8,,,,,,,,3.1,1849.8437175999998,1852.9474067,1852.94729506,0.3057840000001306,1853.3957749,1853.3957749,n,0.6314947999994729,1856.3505185000004,1856.3505185000004,7,2.261,,,,,sub-030,20,60,700,bloc_loop.csv,2023-06-28_08h09.20.572,PainUncertainty,2022.2.5,142.91410433569465,
aigu,moderee,stimuli/660Hz,stimuli/moderee,bloc_9,prob20hthp_12trials.xlsx,3,36,80,20,0,,,,,0,8,8,8,1,11,23,9,,,,,,,,4.7,1856.3505185000004,1861.0525186000004,1861.0525456599996,0.30516910000005737,1861.4968058000004,1861.4968058000004,n,1.1689450999997462,1865.3968468000003,1865.3968468000003,7,2.663,,,,,sub-030,20,60,700,bloc_loop.csv,2023-06-28_08h09.20.572,PainUncertainty,2022.2.5,142.91410433569465,
grave,forte,stimuli/330Hz,stimuli/forte,bloc_9,prob20hthp_12trials.xlsx,3,36,80,20,0,,,,,0,8,8,8,2,0,24,4,,,,,,,,3.5,1865.3968468000003,1868.9007014999997,1868.9007116600003,0.30482710000069346,1869.3450809000005,1869.3450809000005,m,0.5732157999996161,1873.0999477000005,1873.0999477000005,90,3.129,,,,,sub-030,20,60,700,bloc_loop.csv,2023-06-28_08h09.20.572,PainUncertainty,2022.2.5,142.91410433569465,
grave,forte,stimuli/330Hz,stimuli/forte,bloc_9,prob20hthp_12trials.xlsx,3,36,80,20,0,,,,,0,8,8,8,2,1,25,3,,,,,,,,4.1,1873.0999477000005,1877.2002179,1877.2002025600002,0.3055586000000403,1877.6484763999997,1877.6484763999997,m,0.5786465999995016,1880.1980719000003,1880.1980719000003,91,1.906,,,,,sub-030,20,60,700,bloc_loop.csv,2023-06-28_08h09.20.572,PainUncertainty,2022.2.5,142.91410433569465,
aigu,moderee,stimuli/660Hz,stimuli/moderee,bloc_9,prob20hthp_12trials.xlsx,3,36,80,20,0,,,,,0,8,8,8,2,2,26,7,,,,,,,,4,1880.1980719000003,1884.2013157000001,1884.2011565600003,0.30498500000066997,1884.6498707,1884.6498707,n,0.48063309999952253,1886.9580918000001,1886.9580918000001,6,1.775,,,,,sub-030,20,60,700,bloc_loop.csv,2023-06-28_08h09.20.572,PainUncertainty,2022.2.5,142.91410433569465,
aigu,moderee,stimuli/660Hz,stimuli/moderee,bloc_9,prob20hthp_12trials.xlsx,3,36,80,20,0,,,,,0,8,8,8,2,3,27,6,,,,,,,,3.8,1886.9580918000001,1890.757458,1890.75749436,0.3076040000005378,1891.2087604999997,1891.2087604999997,n,0.46956449999970573,1894.4550985000005,1894.4550985000005,4,2.726,,,,,sub-030,20,60,700,bloc_loop.csv,2023-06-28_08h09.20.572,PainUncertainty,2022.2.5,142.91410433569465,
aigu,forte,stimuli/660Hz,stimuli/forte,bloc_9,prob20hthp_12trials.xlsx,3,36,80,20,0,,,,,0,8,8,8,2,4,28,11,,,,,,,,4.4,1894.4550985000005,1898.8561253999997,1898.8562847600003,0.3048101000003953,1899.3039430999997,1899.3039430999997,m,0.5459730999996282,1901.1528841999998,1901.1528841999998,90,1.24,,,,,sub-030,20,60,700,bloc_loop.csv,2023-06-28_08h09.20.572,PainUncertainty,2022.2.5,142.91410433569465,
grave,forte,stimuli/330Hz,stimuli/forte,bloc_9,prob20hthp_12trials.xlsx,3,36,80,20,0,,,,,0,8,8,8,2,5,29,0,,,,,,,,4.1,1901.1528841999998,1905.2522593000003,1905.2523489599996,0.30513470000005327,1905.6970884000002,1905.6970884000002,m,0.5972952999995869,1908.1373439,1908.1373439,90,1.795,,,,,sub-030,20,60,700,bloc_loop.csv,2023-06-28_08h09.20.572,PainUncertainty,2022.2.5,142.91410433569465,
grave,moderee,stimuli/330Hz,stimuli/moderee,bloc_9,prob20hthp_12trials.xlsx,3,36,80,20,0,,,,,0,8,8,8,2,6,30,5,,,,,,,,3.6,1908.1373439,1911.7397723000004,1911.7398945600005,0.30452380000042467,1912.1836720000001,1912.1836720000001,n,0.6073535000000447,1915.9063333000004,1915.9063333000004,5,3.062,,,,,sub-030,20,60,700,bloc_loop.csv,2023-06-28_08h09.20.572,PainUncertainty,2022.2.5,142.91410433569465,
grave,forte,stimuli/330Hz,stimuli/forte,bloc_9,prob20hthp_12trials.xlsx,3,36,80,20,0,,,,,0,8,8,8,2,7,31,1,,,,,,,,3.1,1915.9063333000004,1919.0111054,1919.01142306,0.3059425999999803,1919.4605231000005,1919.4605231000005,m,0.4576561999997466,1921.3396678,1921.3396678,92,1.372,,,,,sub-030,20,60,700,bloc_loop.csv,2023-06-28_08h09.20.572,PainUncertainty,2022.2.5,142.91410433569465,
aigu,moderee,stimuli/660Hz,stimuli/moderee,bloc_9,prob20hthp_12trials.xlsx,3,36,80,20,0,,,,,0,8,8,8,2,8,32,8,,,,,,,,4.3,1921.3396678,1925.6435308,1925.64362796,0.30494869999984076,1926.0878855,1926.0878855,n,1.2991293999989466,1932.5458240999997,1932.5458240999997,6,5.107,,,,,sub-030,20,60,700,bloc_loop.csv,2023-06-28_08h09.20.572,PainUncertainty,2022.2.5,142.91410433569465,
aigu,moderee,stimuli/660Hz,stimuli/moderee,bloc_9,prob20hthp_12trials.xlsx,3,36,80,20,0,,,,,0,8,8,8,2,9,33,9,,,,,,,,4.3,1932.5458240999997,1936.8465836000005,1936.8465088600003,0.30494760000055976,1937.2903741,1937.2903741,n,0.4928555999999844,1942.1843055999998,1942.1843055999998,4,4.343,,,,,sub-030,20,60,700,bloc_loop.csv,2023-06-28_08h09.20.572,PainUncertainty,2022.2.5,142.91410433569465,
grave,forte,stimuli/330Hz,stimuli/forte,bloc_9,prob20hthp_12trials.xlsx,3,36,80,20,0,,,,,0,8,8,8,2,10,34,2,,,,,,,,4.4,1942.1843055999998,1946.5834609000003,1946.5835295599998,0.305308399999376,1947.0279482000005,1947.0279482000005,m,0.5256764999990082,1950.1930641999998,1950.1930641999998,92,2.573,,,,,sub-030,20,60,700,bloc_loop.csv,2023-06-28_08h09.20.572,PainUncertainty,2022.2.5,142.91410433569465,
aigu,moderee,stimuli/660Hz,stimuli/moderee,bloc_9,prob20hthp_12trials.xlsx,3,36,80,20,0,,,,,0,8,8,8,2,11,35,10,,,,,,,,3.7,1950.1930641999998,1953.8973525000001,1953.8974051599996,0.3049468999997771,1954.3437436000004,1954.3437436000004,n,0.5304707999998755,1957.9591648000005,1957.9591648000005,4,3.058,,,,,sub-030,20,60,700,bloc_loop.csv,2023-06-28_08h09.20.572,PainUncertainty,2022.2.5,142.91410433569465,
