cue_,stimulus_,cue_fichier,stimulus_fichier,block_name,block_trials_file,block_n_reps,block_ntrials,block_prob_highP_highT,block_prob_highP_lowT,block_pause_after,Bloc_essai.thisRepN,Bloc_essai.thisTrialN,Bloc_essai.thisN,Bloc_essai.thisIndex,blocks.thisRepN,blocks.thisTrialN,blocks.thisN,blocks.thisIndex,trials.thisRepN,trials.thisTrialN,trials.thisN,trials.thisIndex,pause_loop.thisRepN,pause_loop.thisTrialN,pause_loop.thisN,pause_loop.thisIndex,key_resp_5.started,start_calib.started,key_resp_2.started,ISI_duration,pause.started,pause.stopped,cue.started,ISI.started,choice_pain.started,Choice.started,choice_pain.keys,choice_pain.rt,main_text.started,confirm_text.started,ratingScale.response,ratingScale.rt,key_resp_3.started,key_resp_6.started,choice_pain.stopped,Choice.stopped,participant,low_ma,high_ma,failsafe_ma,block_file,date,expName,psychopyVersion,frameRate,
grave,moderee,stimuli/330Hz,stimuli/moderee,,,,,,,,0,0,0,0,,,,,,,,,,,,,46.913564799999904,49.852885800000195,53.11663019999992,4.2,54.47927640000012,58.682673699999896,58.68667692000004,0.30046960000026957,59.12431739999988,59.12431739999988,n,1.09520550000002,61.69666600000005,61.69666600000005,30,1.395,,,,,sub-067,120,175,700,bloc_loop.csv,2023-11-09_07h44.56.834,PainUncertainty,2022.2.5,143.9984332965363,
grave,forte,stimuli/330Hz,stimuli/forte,,,,,,,,0,1,1,1,,,,,,,,,,,,,,,,4.4,61.69666600000005,66.09789109999997,66.09745495999991,0.305209399999967,66.54876440000021,66.54876440000021,m,0.9316204999997808,69.17782869999996,69.17782869999996,61,1.621,,,,,sub-067,120,175,700,bloc_loop.csv,2023-11-09_07h44.56.834,PainUncertainty,2022.2.5,143.9984332965363,
aigu,moderee,stimuli/660Hz,stimuli/moderee,,,,,,,,0,2,2,2,,,,,,,,,,,,,,,,3.9,69.17782869999996,73.07757269999979,73.07742885999991,0.3053258999998434,73.52578789999984,73.52578789999984,n,1.12452879999978,76.5152556999999,76.5152556999999,29,1.791,,,,,sub-067,120,175,700,bloc_loop.csv,2023-11-09_07h44.56.834,PainUncertainty,2022.2.5,143.9984332965363,
aigu,forte,stimuli/660Hz,stimuli/forte,,,,,,,,0,3,3,3,,,,,,,,,,,,,,,,4.8,76.5152556999999,81.32154640000022,81.32131835999994,0.3050396000003275,81.76568220000013,81.76568220000013,m,0.7798363999997946,84.52840630000014,84.52840630000014,61,1.956,,,,,sub-067,120,175,700,bloc_loop.csv,2023-11-09_07h44.56.834,PainUncertainty,2022.2.5,143.9984332965363,
aigu,moderee,stimuli/660Hz,stimuli/moderee,bloc_1,prob20hthp_12trials.xlsx,4,48,20,80,0,,,,,0,0,0,0,0,0,0,8,,,,,,,,3.7,133.48408799999993,137.18938730000013,137.18921686000007,0.30522640000026513,137.63348419999988,137.63348419999988,n,0.6717721999996229,139.68575179999993,139.68575179999993,31,1.322,,,,,sub-067,120,175,700,bloc_loop.csv,2023-11-09_07h44.56.834,PainUncertainty,2022.2.5,143.9984332965363,
grave,moderee,stimuli/330Hz,stimuli/moderee,bloc_1,prob20hthp_12trials.xlsx,4,48,20,80,0,,,,,0,0,0,0,0,1,1,5,,,,,,,,3.2,139.68575179999993,142.8914886,142.8912752599998,0.3047916999998961,143.3357954999999,143.3357954999999,n,0.8897865999999794,145.98281010000005,145.98281010000005,15,1.699,,,,,sub-067,120,175,700,bloc_loop.csv,2023-11-09_07h44.56.834,PainUncertainty,2022.2.5,143.9984332965363,
aigu,moderee,stimuli/660Hz,stimuli/moderee,bloc_1,prob20hthp_12trials.xlsx,4,48,20,80,0,,,,,0,0,0,0,0,2,2,7,,,,,,,,4.5,145.98281010000005,150.48292199999992,150.48269965999984,0.3006462000003012,150.9273082000002,150.9273082000002,n,0.9221663999999237,153.8018725999998,153.8018725999998,24,1.874,,,,,sub-067,120,175,700,bloc_loop.csv,2023-11-09_07h44.56.834,PainUncertainty,2022.2.5,143.9984332965363,
grave,forte,stimuli/330Hz,stimuli/forte,bloc_1,prob20hthp_12trials.xlsx,4,48,20,80,0,,,,,0,0,0,0,0,3,3,2,,,,,,,,3.9,153.8018725999998,157.70584829999984,157.7056726600002,0.304987600000004,158.1499864,158.1499864,m,0.6451995999998417,160.67352229999983,160.67352229999983,58,1.816,,,,,sub-067,120,175,700,bloc_loop.csv,2023-11-09_07h44.56.834,PainUncertainty,2022.2.5,143.9984332965363,
grave,forte,stimuli/330Hz,stimuli/forte,bloc_1,prob20hthp_12trials.xlsx,4,48,20,80,0,,,,,0,0,0,0,0,4,4,0,,,,,,,,3.1,160.67352229999983,163.7759110999998,163.7757236599999,0.30505019999964134,164.22031230000016,164.22031230000016,m,0.604144099999985,166.30214189999992,166.30214189999992,62,1.398,,,,,sub-067,120,175,700,bloc_loop.csv,2023-11-09_07h44.56.834,PainUncertainty,2022.2.5,143.9984332965363,
aigu,moderee,stimuli/660Hz,stimuli/moderee,bloc_1,prob20hthp_12trials.xlsx,4,48,20,80,0,,,,,0,0,0,0,0,5,5,10,,,,,,,,4.1,166.30214189999992,170.4016095999998,170.40154856000012,0.305024400000093,170.845955,170.845955,n,0.5028074999997898,172.3741980000002,172.3741980000002,20,0.955,,,,,sub-067,120,175,700,bloc_loop.csv,2023-11-09_07h44.56.834,PainUncertainty,2022.2.5,143.9984332965363,
grave,forte,stimuli/330Hz,stimuli/forte,bloc_1,prob20hthp_12trials.xlsx,4,48,20,80,0,,,,,0,0,0,0,0,6,6,4,,,,,,,,3.5,172.3741980000002,175.8747906000001,175.87453115999992,0.30527799999981653,176.32320110000023,176.32320110000023,m,0.5348467999999684,178.28931339999986,178.28931339999986,63,1.366,,,,,sub-067,120,175,700,bloc_loop.csv,2023-11-09_07h44.56.834,PainUncertainty,2022.2.5,143.9984332965363,
grave,forte,stimuli/330Hz,stimuli/forte,bloc_1,prob20hthp_12trials.xlsx,4,48,20,80,0,,,,,0,0,0,0,0,7,7,3,,,,,,,,4,178.28931339999986,182.29211800000007,182.2918768600001,0.3050669999997808,182.73633570000015,182.73633570000015,m,0.5114601000002494,184.9693960000002,184.9693960000002,64,1.671,,,,,sub-067,120,175,700,bloc_loop.csv,2023-11-09_07h44.56.834,PainUncertainty,2022.2.5,143.9984332965363,
aigu,forte,stimuli/660Hz,stimuli/forte,bloc_1,prob20hthp_12trials.xlsx,4,48,20,80,0,,,,,0,0,0,0,0,8,8,11,,,,,,,,4,184.9693960000002,188.9734648000001,188.97323906000005,0.3050496999999268,189.4176205000001,189.4176205000001,n,0.39267780000022867,191.4277955,191.4277955,27,1.559,,,,,sub-067,120,175,700,bloc_loop.csv,2023-11-09_07h44.56.834,PainUncertainty,2022.2.5,143.9984332965363,
grave,forte,stimuli/330Hz,stimuli/forte,bloc_1,prob20hthp_12trials.xlsx,4,48,20,80,0,,,,,0,0,0,0,0,9,9,1,,,,,,,,4.3,191.4277955,195.73153969999998,195.73147615999991,0.2993477999998504,196.1743039999999,196.1743039999999,n,0.5479444000000058,199.46974079999995,199.46974079999995,62,2.671,,,,,sub-067,120,175,700,bloc_loop.csv,2023-11-09_07h44.56.834,PainUncertainty,2022.2.5,143.9984332965363,
aigu,moderee,stimuli/660Hz,stimuli/moderee,bloc_1,prob20hthp_12trials.xlsx,4,48,20,80,0,,,,,0,0,0,0,0,10,10,6,,,,,,,,3.7,199.46974079999995,203.16966160000015,203.16952195999997,0.301216100000147,203.61429359999988,203.61429359999988,n,0.5680165000001125,205.06351370000016,205.06351370000016,20,0.824,,,,,sub-067,120,175,700,bloc_loop.csv,2023-11-09_07h44.56.834,PainUncertainty,2022.2.5,143.9984332965363,
aigu,moderee,stimuli/660Hz,stimuli/moderee,bloc_1,prob20hthp_12trials.xlsx,4,48,20,80,0,,,,,0,0,0,0,0,11,11,9,,,,,,,,4.5,205.06351370000016,209.56622200000015,209.56612746000005,0.3050412000002325,210.0105685000001,210.0105685000001,n,0.5982016999998905,212.81725979999987,212.81725979999987,25,2.129,,,,,sub-067,120,175,700,bloc_loop.csv,2023-11-09_07h44.56.834,PainUncertainty,2022.2.5,143.9984332965363,
grave,forte,stimuli/330Hz,stimuli/forte,bloc_1,prob20hthp_12trials.xlsx,4,48,20,80,0,,,,,0,0,0,0,1,0,12,3,,,,,,,,3,212.81725979999987,215.8169535999998,215.8168445599998,0.3054403999999522,216.26494359999992,216.26494359999992,m,0.5046945999999934,218.47395389999997,218.47395389999997,62,1.642,,,,,sub-067,120,175,700,bloc_loop.csv,2023-11-09_07h44.56.834,PainUncertainty,2022.2.5,143.9984332965363,
grave,forte,stimuli/330Hz,stimuli/forte,bloc_1,prob20hthp_12trials.xlsx,4,48,20,80,0,,,,,0,0,0,0,1,1,13,4,,,,,,,,3.9,218.47395389999997,222.37336280000022,222.37316945999996,0.30542220000006637,222.82217819999983,222.82217819999983,m,0.62658099999976,225.0927319,225.0927319,65,1.573,,,,,sub-067,120,175,700,bloc_loop.csv,2023-11-09_07h44.56.834,PainUncertainty,2022.2.5,143.9984332965363,
aigu,moderee,stimuli/660Hz,stimuli/moderee,bloc_1,prob20hthp_12trials.xlsx,4,48,20,80,0,,,,,0,0,0,0,1,2,14,8,,,,,,,,3.8,225.0927319,228.89566900000023,228.89558576000022,0.3044172999998409,229.3393011999999,229.3393011999999,n,0.48720170000001417,231.7749526,231.7749526,29,1.865,,,,,sub-067,120,175,700,bloc_loop.csv,2023-11-09_07h44.56.834,PainUncertainty,2022.2.5,143.9984332965363,
grave,forte,stimuli/330Hz,stimuli/forte,bloc_1,prob20hthp_12trials.xlsx,4,48,20,80,0,,,,,0,0,0,0,1,3,15,0,,,,,,,,3.3,231.7749526,235.07632230000013,235.0762073600002,0.30474809999986974,235.52073330000007,235.52073330000007,m,0.564323800000011,237.11415550000015,237.11415550000015,63,0.949,,,,,sub-067,120,175,700,bloc_loop.csv,2023-11-09_07h44.56.834,PainUncertainty,2022.2.5,143.9984332965363,
aigu,moderee,stimuli/660Hz,stimuli/moderee,bloc_1,prob20hthp_12trials.xlsx,4,48,20,80,0,,,,,0,0,0,0,1,4,16,7,,,,,,,,4,237.11415550000015,241.118741,241.11856145999977,0.30502149999983885,241.56293500000015,241.56293500000015,n,0.5441235999999208,243.5233707,243.5233707,28,1.357,,,,,sub-067,120,175,700,bloc_loop.csv,2023-11-09_07h44.56.834,PainUncertainty,2022.2.5,143.9984332965363,
aigu,moderee,stimuli/660Hz,stimuli/moderee,bloc_1,prob20hthp_12trials.xlsx,4,48,20,80,0,,,,,0,0,0,0,1,5,17,6,,,,,,,,4,243.5233707,247.52926760000014,247.52913115999976,0.30498649999981353,247.97369820000017,247.97369820000017,n,0.40299879999997756,250.25331849999998,250.25331849999998,26,1.816,,,,,sub-067,120,175,700,bloc_loop.csv,2023-11-09_07h44.56.834,PainUncertainty,2022.2.5,143.9984332965363,
aigu,moderee,stimuli/660Hz,stimuli/moderee,bloc_1,prob20hthp_12trials.xlsx,4,48,20,80,0,,,,,0,0,0,0,1,6,18,10,,,,,,,,3.5,250.25331849999998,253.7591073000001,253.7590918600002,0.2990398000001733,254.20212800000013,254.20212800000013,n,0.4746527999998307,256.58289979999995,256.58289979999995,28,1.85,,,,,sub-067,120,175,700,bloc_loop.csv,2023-11-09_07h44.56.834,PainUncertainty,2022.2.5,143.9984332965363,
grave,moderee,stimuli/330Hz,stimuli/moderee,bloc_1,prob20hthp_12trials.xlsx,4,48,20,80,0,,,,,0,0,0,0,1,7,19,5,,,,,,,,3.5,256.58289979999995,260.08622919999993,260.08612506,0.3055472999999438,260.5350525000001,260.5350525000001,m,0.4971877999998924,264.16127170000004,264.16127170000004,29,3.045,,,,,sub-067,120,175,700,bloc_loop.csv,2023-11-09_07h44.56.834,PainUncertainty,2022.2.5,143.9984332965363,
aigu,forte,stimuli/660Hz,stimuli/forte,bloc_1,prob20hthp_12trials.xlsx,4,48,20,80,0,,,,,0,0,0,0,1,8,20,11,,,,,,,,4.5,264.16127170000004,268.6637097999999,268.66350636000004,0.30514510000011796,269.1082488999998,269.1082488999998,m,0.8115121999996973,270.89170609999996,270.89170609999996,70,0.9,,,,,sub-067,120,175,700,bloc_loop.csv,2023-11-09_07h44.56.834,PainUncertainty,2022.2.5,143.9984332965363,
aigu,moderee,stimuli/660Hz,stimuli/moderee,bloc_1,prob20hthp_12trials.xlsx,4,48,20,80,0,,,,,0,0,0,0,1,9,21,9,,,,,,,,3.7,270.89170609999996,274.59505809999996,274.5946565600001,0.3052480999999716,275.04555240000013,275.04555240000013,n,0.9223281999995834,279.0123414000002,279.0123414000002,29,2.964,,,,,sub-067,120,175,700,bloc_loop.csv,2023-11-09_07h44.56.834,PainUncertainty,2022.2.5,143.9984332965363,
grave,forte,stimuli/330Hz,stimuli/forte,bloc_1,prob20hthp_12trials.xlsx,4,48,20,80,0,,,,,0,0,0,0,1,10,22,1,,,,,,,,4.3,279.0123414000002,283.31822609999995,283.3180145599998,0.30499550000013187,283.7623566999998,283.7623566999998,m,1.0961430999998356,285.81908929999986,285.81908929999986,70,0.907,,,,,sub-067,120,175,700,bloc_loop.csv,2023-11-09_07h44.56.834,PainUncertainty,2022.2.5,143.9984332965363,
grave,forte,stimuli/330Hz,stimuli/forte,bloc_1,prob20hthp_12trials.xlsx,4,48,20,80,0,,,,,0,0,0,0,1,11,23,2,,,,,,,,3.9,285.81908929999986,289.72215660000006,289.7219613599999,0.299288599999727,290.1649246999998,290.1649246999998,m,0.5450398999998924,292.0390249999998,292.0390249999998,67,1.253,,,,,sub-067,120,175,700,bloc_loop.csv,2023-11-09_07h44.56.834,PainUncertainty,2022.2.5,143.9984332965363,
aigu,moderee,stimuli/660Hz,stimuli/moderee,bloc_1,prob20hthp_12trials.xlsx,4,48,20,80,0,,,,,0,0,0,0,2,0,24,6,,,,,,,,3.7,292.0390249999998,295.7433179000002,295.7431319599999,0.30511470000010377,296.1875588999999,296.1875588999999,n,0.5708534000002601,299.00637459999984,299.00637459999984,28,2.186,,,,,sub-067,120,175,700,bloc_loop.csv,2023-11-09_07h44.56.834,PainUncertainty,2022.2.5,143.9984332965363,
aigu,moderee,stimuli/660Hz,stimuli/moderee,bloc_1,prob20hthp_12trials.xlsx,4,48,20,80,0,,,,,0,0,0,0,2,1,25,8,,,,,,,,3.4,299.00637459999984,302.41081229999986,302.4105626600002,0.2990174000001389,302.84855889999994,302.84855889999994,n,0.5165255999997953,304.10587550000014,304.10587550000014,30,0.685,,,,,sub-067,120,175,700,bloc_loop.csv,2023-11-09_07h44.56.834,PainUncertainty,2022.2.5,143.9984332965363,
aigu,moderee,stimuli/660Hz,stimuli/moderee,bloc_1,prob20hthp_12trials.xlsx,4,48,20,80,0,,,,,0,0,0,0,2,2,26,9,,,,,,,,4.1,304.10587550000014,308.21014360000004,308.20999505999987,0.30496709999988525,308.6551052000002,308.6551052000002,n,1.082523700000138,311.73178440000015,311.73178440000015,23,1.935,,,,,sub-067,120,175,700,bloc_loop.csv,2023-11-09_07h44.56.834,PainUncertainty,2022.2.5,143.9984332965363,
grave,moderee,stimuli/330Hz,stimuli/moderee,bloc_1,prob20hthp_12trials.xlsx,4,48,20,80,0,,,,,0,0,0,0,2,3,27,5,,,,,,,,4.6,311.73178440000015,316.3365326999999,316.3363134599998,0.3051284999996824,316.7842592999998,316.7842592999998,n,1.3897558999999546,320.2515248000002,320.2515248000002,28,1.996,,,,,sub-067,120,175,700,bloc_loop.csv,2023-11-09_07h44.56.834,PainUncertainty,2022.2.5,143.9984332965363,
grave,forte,stimuli/330Hz,stimuli/forte,bloc_1,prob20hthp_12trials.xlsx,4,48,20,80,0,,,,,0,0,0,0,2,4,28,3,,,,,,,,4.3,320.2515248000002,324.5525577000001,324.55239006,0.30465830000002825,324.9968007,324.9968007,m,0.5577994000002491,327.55675540000016,327.55675540000016,61,1.921,,,,,sub-067,120,175,700,bloc_loop.csv,2023-11-09_07h44.56.834,PainUncertainty,2022.2.5,143.9984332965363,
aigu,moderee,stimuli/660Hz,stimuli/moderee,bloc_1,prob20hthp_12trials.xlsx,4,48,20,80,0,,,,,0,0,0,0,2,5,29,7,,,,,,,,4.1,327.55675540000016,331.65784340000005,331.6576234600001,0.3050262000001567,332.10547789999987,332.10547789999987,n,0.8587233999999171,335.2609825000002,335.2609825000002,30,2.218,,,,,sub-067,120,175,700,bloc_loop.csv,2023-11-09_07h44.56.834,PainUncertainty,2022.2.5,143.9984332965363,
grave,forte,stimuli/330Hz,stimuli/forte,bloc_1,prob20hthp_12trials.xlsx,4,48,20,80,0,,,,,0,0,0,0,2,6,30,0,,,,,,,,4.7,335.2609825000002,339.9642345,339.96414545999994,0.30486999999993714,340.4081171999999,340.4081171999999,m,0.510061000000178,342.4386557,342.4386557,65,1.447,,,,,sub-067,120,175,700,bloc_loop.csv,2023-11-09_07h44.56.834,PainUncertainty,2022.2.5,143.9984332965363,
aigu,moderee,stimuli/660Hz,stimuli/moderee,bloc_1,prob20hthp_12trials.xlsx,4,48,20,80,0,,,,,0,0,0,0,2,7,31,10,,,,,,,,4.1,342.4386557,346.54132989999994,346.5412156599999,0.3011996000000181,346.9861518,346.9861518,n,0.5527561000001242,348.2572905999998,348.2572905999998,30,0.635,,,,,sub-067,120,175,700,bloc_loop.csv,2023-11-09_07h44.56.834,PainUncertainty,2022.2.5,143.9984332965363,
aigu,forte,stimuli/660Hz,stimuli/forte,bloc_1,prob20hthp_12trials.xlsx,4,48,20,80,0,,,,,0,0,0,0,2,8,32,11,,,,,,,,4.6,348.2572905999998,352.8620401999999,352.8620203600002,0.30041799999980867,353.30591130000016,353.30591130000016,m,0.9486104999998588,355.5604222999998,355.5604222999998,64,1.253,,,,,sub-067,120,175,700,bloc_loop.csv,2023-11-09_07h44.56.834,PainUncertainty,2022.2.5,143.9984332965363,
grave,forte,stimuli/330Hz,stimuli/forte,bloc_1,prob20hthp_12trials.xlsx,4,48,20,80,0,,,,,0,0,0,0,2,9,33,1,,,,,,,,4.5,355.5604222999998,360.0638255000001,360.06358346000013,0.30491250000022774,360.51201860000015,360.51201860000015,m,0.6999720999999681,362.8180117999998,362.8180117999998,63,1.545,,,,,sub-067,120,175,700,bloc_loop.csv,2023-11-09_07h44.56.834,PainUncertainty,2022.2.5,143.9984332965363,
grave,forte,stimuli/330Hz,stimuli/forte,bloc_1,prob20hthp_12trials.xlsx,4,48,20,80,0,,,,,0,0,0,0,2,10,34,2,,,,,,,,4.9,362.8180117999998,367.71751689999996,367.71729515999994,0.3049284999997326,368.16216240000017,368.16216240000017,m,0.6544485000001714,371.91317129999993,371.91317129999993,58,3.037,,,,,sub-067,120,175,700,bloc_loop.csv,2023-11-09_07h44.56.834,PainUncertainty,2022.2.5,143.9984332965363,
grave,forte,stimuli/330Hz,stimuli/forte,bloc_1,prob20hthp_12trials.xlsx,4,48,20,80,0,,,,,0,0,0,0,2,11,35,4,,,,,,,,3.1,371.91317129999993,375.01684390000014,375.01673315999994,0.3048038000001725,375.4610073000001,375.4610073000001,n,1.3784869999997227,379.05952619999994,379.05952619999994,33,2.149,,,,,sub-067,120,175,700,bloc_loop.csv,2023-11-09_07h44.56.834,PainUncertainty,2022.2.5,143.9984332965363,
aigu,moderee,stimuli/660Hz,stimuli/moderee,bloc_1,prob20hthp_12trials.xlsx,4,48,20,80,0,,,,,0,0,0,0,3,0,36,10,,,,,,,,3.4,379.05952619999994,382.4620969,382.4620479600002,0.29962410000007367,382.9049911999998,382.9049911999998,n,0.7730301999997664,385.8999981999998,385.8999981999998,24,2.17,,,,,sub-067,120,175,700,bloc_loop.csv,2023-11-09_07h44.56.834,PainUncertainty,2022.2.5,143.9984332965363,
aigu,moderee,stimuli/660Hz,stimuli/moderee,bloc_1,prob20hthp_12trials.xlsx,4,48,20,80,0,,,,,0,0,0,0,3,1,37,6,,,,,,,,4.5,385.8999981999998,390.4008839999999,390.40071276000015,0.30494610000005196,390.8448399000001,390.8448399000001,n,0.6156102999996165,393.7340713000001,393.7340713000001,30,2.198,,,,,sub-067,120,175,700,bloc_loop.csv,2023-11-09_07h44.56.834,PainUncertainty,2022.2.5,143.9984332965363,
grave,forte,stimuli/330Hz,stimuli/forte,bloc_1,prob20hthp_12trials.xlsx,4,48,20,80,0,,,,,0,0,0,0,3,2,38,2,,,,,,,,3.4,393.7340713000001,397.1376882000002,397.1374768600002,0.30546689999982846,397.58718920000024,397.58718920000024,m,0.5704802999996446,399.08919679999985,399.08919679999985,70,0.875,,,,,sub-067,120,175,700,bloc_loop.csv,2023-11-09_07h44.56.834,PainUncertainty,2022.2.5,143.9984332965363,
grave,forte,stimuli/330Hz,stimuli/forte,bloc_1,prob20hthp_12trials.xlsx,4,48,20,80,0,,,,,0,0,0,0,3,3,39,4,,,,,,,,4.9,399.08919679999985,403.9926287999999,403.99234965999983,0.30496710000034,404.44077630000015,404.44077630000015,m,0.5918624999997064,406.5843763999999,406.5843763999999,64,1.483,,,,,sub-067,120,175,700,bloc_loop.csv,2023-11-09_07h44.56.834,PainUncertainty,2022.2.5,143.9984332965363,
aigu,moderee,stimuli/660Hz,stimuli/moderee,bloc_1,prob20hthp_12trials.xlsx,4,48,20,80,0,,,,,0,0,0,0,3,4,40,7,,,,,,,,3.5,406.5843763999999,410.0840562000001,410.08394295999994,0.30484809999961726,410.5281797,410.5281797,n,0.5827965999999378,412.22705120000023,412.22705120000023,22,1.058,,,,,sub-067,120,175,700,bloc_loop.csv,2023-11-09_07h44.56.834,PainUncertainty,2022.2.5,143.9984332965363,
aigu,moderee,stimuli/660Hz,stimuli/moderee,bloc_1,prob20hthp_12trials.xlsx,4,48,20,80,0,,,,,0,0,0,0,3,5,41,9,,,,,,,,4.4,412.22705120000023,416.6266014999999,416.6262308600002,0.30516949999991994,417.07090200000016,417.07090200000016,n,0.6066380999998273,420.3331128000002,420.3331128000002,26,2.571,,,,,sub-067,120,175,700,bloc_loop.csv,2023-11-09_07h44.56.834,PainUncertainty,2022.2.5,143.9984332965363,
grave,forte,stimuli/330Hz,stimuli/forte,bloc_1,prob20hthp_12trials.xlsx,4,48,20,80,0,,,,,0,0,0,0,3,6,42,3,,,,,,,,3.6,420.3331128000002,423.9324945999999,423.93233196000017,0.3049393000001146,424.3767150000001,424.3767150000001,n,1.4114475999997467,428.42137849999995,428.42137849999995,29,2.558,,,,,sub-067,120,175,700,bloc_loop.csv,2023-11-09_07h44.56.834,PainUncertainty,2022.2.5,143.9984332965363,
aigu,moderee,stimuli/660Hz,stimuli/moderee,bloc_1,prob20hthp_12trials.xlsx,4,48,20,80,0,,,,,0,0,0,0,3,7,43,8,,,,,,,,3.4,428.42137849999995,431.82259050000016,431.82215556000017,0.3052281000000221,432.26697930000023,432.26697930000023,n,0.6684741999999915,435.1513805000002,435.1513805000002,22,2.136,,,,,sub-067,120,175,700,bloc_loop.csv,2023-11-09_07h44.56.834,PainUncertainty,2022.2.5,143.9984332965363,
aigu,forte,stimuli/660Hz,stimuli/forte,bloc_1,prob20hthp_12trials.xlsx,4,48,20,80,0,,,,,0,0,0,0,3,8,44,11,,,,,,,,3.1,435.1513805000002,438.2541242,438.25394496000024,0.30497929999955886,438.6983198999999,438.6983198999999,m,0.6568102000003364,441.0486102000002,441.0486102000002,63,1.635,,,,,sub-067,120,175,700,bloc_loop.csv,2023-11-09_07h44.56.834,PainUncertainty,2022.2.5,143.9984332965363,
grave,forte,stimuli/330Hz,stimuli/forte,bloc_1,prob20hthp_12trials.xlsx,4,48,20,80,0,,,,,0,0,0,0,3,9,45,0,,,,,,,,3.1,441.0486102000002,444.15024199999993,444.1499555600002,0.3052342000000863,444.5950353999999,444.5950353999999,m,0.6744149999997262,446.4516664,446.4516664,62,1.122,,,,,sub-067,120,175,700,bloc_loop.csv,2023-11-09_07h44.56.834,PainUncertainty,2022.2.5,143.9984332965363,
grave,forte,stimuli/330Hz,stimuli/forte,bloc_1,prob20hthp_12trials.xlsx,4,48,20,80,0,,,,,0,0,0,0,3,10,46,1,,,,,,,,3.2,446.4516664,449.6508772999998,449.65079366,0.3050856999998359,450.0951057,450.0951057,m,0.7885672999998405,452.7354861000001,452.7354861000001,58,1.768,,,,,sub-067,120,175,700,bloc_loop.csv,2023-11-09_07h44.56.834,PainUncertainty,2022.2.5,143.9984332965363,
grave,moderee,stimuli/330Hz,stimuli/moderee,bloc_1,prob20hthp_12trials.xlsx,4,48,20,80,0,,,,,0,0,0,0,3,11,47,5,,,,,,,,4.5,452.7354861000001,457.2351535,457.23499535999997,0.30510099999992235,457.6793805,457.6793805,n,0.739211099999693,461.42972239999995,461.42972239999995,30,2.935,,,,,sub-067,120,175,700,bloc_loop.csv,2023-11-09_07h44.56.834,PainUncertainty,2022.2.5,143.9984332965363,
aigu,forte,stimuli/660Hz,stimuli/forte,bloc_2,prob50_50_4trials.xlsx,2,8,50,50,1,,,,,0,1,1,1,0,0,0,3,,,,,,,,5,461.42972239999995,466.43100549999986,466.4308292600002,0.3015221999999085,466.87604239999996,466.87604239999996,m,0.7195193000000017,470.4278698999999,470.4278698999999,68,2.781,,,,,sub-067,120,175,700,bloc_loop.csv,2023-11-09_07h44.56.834,PainUncertainty,2022.2.5,143.9984332965363,
grave,forte,stimuli/330Hz,stimuli/forte,bloc_2,prob50_50_4trials.xlsx,2,8,50,50,1,,,,,0,1,1,1,0,1,1,1,,,,,,,,4.3,470.4278698999999,474.7307334999998,474.7305376600001,0.3016569999999774,475.1754776999999,475.1754776999999,m,0.7369062000000213,477.49579130000006,477.49579130000006,67,1.51,,,,,sub-067,120,175,700,bloc_loop.csv,2023-11-09_07h44.56.834,PainUncertainty,2022.2.5,143.9984332965363,
grave,moderee,stimuli/330Hz,stimuli/moderee,bloc_2,prob50_50_4trials.xlsx,2,8,50,50,1,,,,,0,1,1,1,0,2,2,0,,,,,,,,4.6,477.49579130000006,482.0997297000001,482.0995926600002,0.30481220000001485,482.54348779999987,482.54348779999987,n,0.6637448999997559,484.94288230000006,484.94288230000006,25,1.675,,,,,sub-067,120,175,700,bloc_loop.csv,2023-11-09_07h44.56.834,PainUncertainty,2022.2.5,143.9984332965363,
aigu,moderee,stimuli/660Hz,stimuli/moderee,bloc_2,prob50_50_4trials.xlsx,2,8,50,50,1,,,,,0,1,1,1,0,3,3,2,,,,,,,,4.6,484.94288230000006,489.5449713999999,489.54474186000004,0.30512240000007296,489.9911748000002,489.9911748000002,n,0.635071200000084,492.39365900000007,492.39365900000007,24,1.685,,,,,sub-067,120,175,700,bloc_loop.csv,2023-11-09_07h44.56.834,PainUncertainty,2022.2.5,143.9984332965363,
grave,forte,stimuli/330Hz,stimuli/forte,bloc_2,prob50_50_4trials.xlsx,2,8,50,50,1,,,,,0,1,1,1,1,0,4,1,,,,,,,,4.3,492.39365900000007,496.6982107000001,496.69816676000016,0.30495169999994687,497.1427578999999,497.1427578999999,m,0.658531499999981,500.4003908000002,500.4003908000002,63,2.531,,,,,sub-067,120,175,700,bloc_loop.csv,2023-11-09_07h44.56.834,PainUncertainty,2022.2.5,143.9984332965363,
aigu,moderee,stimuli/660Hz,stimuli/moderee,bloc_2,prob50_50_4trials.xlsx,2,8,50,50,1,,,,,0,1,1,1,1,1,5,2,,,,,,,,4.5,500.4003908000002,504.90101849999996,504.9021155600002,0.3038182999998753,505.34509679999996,505.34509679999996,n,0.6447375000000193,507.51352599999996,507.51352599999996,23,1.462,,,,,sub-067,120,175,700,bloc_loop.csv,2023-11-09_07h44.56.834,PainUncertainty,2022.2.5,143.9984332965363,
grave,moderee,stimuli/330Hz,stimuli/moderee,bloc_2,prob50_50_4trials.xlsx,2,8,50,50,1,,,,,0,1,1,1,1,2,6,0,,,,,,,,4,507.51352599999996,511.51254200000017,511.5125766599998,0.30018450000034136,511.9575210999999,511.9575210999999,n,0.6813368999999057,513.8929319000001,513.8929319000001,24,1.171,,,,,sub-067,120,175,700,bloc_loop.csv,2023-11-09_07h44.56.834,PainUncertainty,2022.2.5,143.9984332965363,
aigu,forte,stimuli/660Hz,stimuli/forte,bloc_2,prob50_50_4trials.xlsx,2,8,50,50,1,,,,,0,1,1,1,1,3,7,3,,,,,,,,4,513.8929319000001,517.8953828000001,517.89520196,0.3050447999999051,518.3469323000002,518.3469323000002,m,1.3740926999996645,523.3087902999998,523.3087902999998,65,1.559,,,,,sub-067,120,175,700,bloc_loop.csv,2023-11-09_07h44.56.834,PainUncertainty,2022.2.5,143.9984332965363,
,,,,bloc_2,prob50_50_4trials.xlsx,2,8,50,50,1,,,,,0,1,1,1,,,,,0,0,0,0,,,,,,,,,,,,,,,,,523.3087902999998,605.267376,,,sub-067,120,175,700,bloc_loop.csv,2023-11-09_07h44.56.834,PainUncertainty,2022.2.5,143.9984332965363,
aigu,forte,stimuli/660Hz,stimuli/forte,bloc_3,prob80hthp_12trials.xlsx,2,24,80,20,0,,,,,0,2,2,2,0,0,0,10,,,,,,,,3.5,606.2063529,609.7120087999999,609.71195136,0.3048162999998567,610.1561359,610.1561359,m,0.6835846000001311,611.6567633000002,611.6567633000002,70,0.733,,,,,sub-067,120,175,700,bloc_loop.csv,2023-11-09_07h44.56.834,PainUncertainty,2022.2.5,143.9984332965363,
grave,moderee,stimuli/330Hz,stimuli/moderee,bloc_3,prob80hthp_12trials.xlsx,2,24,80,20,0,,,,,0,2,2,2,0,1,1,1,,,,,,,,3.8,611.6567633000002,615.4628390999999,615.4625593600002,0.3049470000000838,615.9141702,615.9141702,n,0.5207213000001047,617.1713364999998,617.1713364999998,30,0.656,,,,,sub-067,120,175,700,bloc_loop.csv,2023-11-09_07h44.56.834,PainUncertainty,2022.2.5,143.9984332965363,
aigu,forte,stimuli/660Hz,stimuli/forte,bloc_3,prob80hthp_12trials.xlsx,2,24,80,20,0,,,,,0,2,2,2,0,2,2,6,,,,,,,,3.7,617.1713364999998,620.8729529999998,620.8727892599999,0.3053153000000748,621.3171639999998,621.3171639999998,m,0.597106599999961,623.3734078999998,623.3734078999998,69,1.378,,,,,sub-067,120,175,700,bloc_loop.csv,2023-11-09_07h44.56.834,PainUncertainty,2022.2.5,143.9984332965363,
grave,moderee,stimuli/330Hz,stimuli/moderee,bloc_3,prob80hthp_12trials.xlsx,2,24,80,20,0,,,,,0,2,2,2,0,3,3,3,,,,,,,,4.4,623.3734078999998,627.7766777999998,627.7764682599999,0.3051599999998871,628.2210554999999,628.2210554999999,n,0.4295540999999048,631.17444,631.17444,27,2.463,,,,,sub-067,120,175,700,bloc_loop.csv,2023-11-09_07h44.56.834,PainUncertainty,2022.2.5,143.9984332965363,
grave,moderee,stimuli/330Hz,stimuli/moderee,bloc_3,prob80hthp_12trials.xlsx,2,24,80,20,0,,,,,0,2,2,2,0,4,4,0,,,,,,,,3.8,631.17444,634.9789164000001,634.9787176600001,0.30566019999969285,635.4275295999998,635.4275295999998,n,0.7571021999995082,637.6801475999998,637.6801475999998,27,1.418,,,,,sub-067,120,175,700,bloc_loop.csv,2023-11-09_07h44.56.834,PainUncertainty,2022.2.5,143.9984332965363,
aigu,forte,stimuli/660Hz,stimuli/forte,bloc_3,prob80hthp_12trials.xlsx,2,24,80,20,0,,,,,0,2,2,2,0,5,5,7,,,,,,,,3.5,637.6801475999998,641.1814158999998,641.1812387600002,0.30097490000025573,641.6257346,641.6257346,m,0.5481318999998166,643.6102969000001,643.6102969000001,70,1.357,,,,,sub-067,120,175,700,bloc_loop.csv,2023-11-09_07h44.56.834,PainUncertainty,2022.2.5,143.9984332965363,
aigu,moderee,stimuli/660Hz,stimuli/moderee,bloc_3,prob80hthp_12trials.xlsx,2,24,80,20,0,,,,,0,2,2,2,0,6,6,11,,,,,,,,3,643.6102969000001,646.6122345000001,646.61215966,0.30478080000011687,647.0563829,647.0563829,n,0.5661279000003105,648.5976466999998,648.5976466999998,25,0.915,,,,,sub-067,120,175,700,bloc_loop.csv,2023-11-09_07h44.56.834,PainUncertainty,2022.2.5,143.9984332965363,
grave,moderee,stimuli/330Hz,stimuli/moderee,bloc_3,prob80hthp_12trials.xlsx,2,24,80,20,0,,,,,0,2,2,2,0,7,7,2,,,,,,,,3.4,648.5976466999998,652.0016988999998,652.0015950599999,0.30483230000027106,652.4460938,652.4460938,n,0.7089793999996346,653.8719890999998,653.8719890999998,20,0.651,,,,,sub-067,120,175,700,bloc_loop.csv,2023-11-09_07h44.56.834,PainUncertainty,2022.2.5,143.9984332965363,
aigu,forte,stimuli/660Hz,stimuli/forte,bloc_3,prob80hthp_12trials.xlsx,2,24,80,20,0,,,,,0,2,2,2,0,8,8,8,,,,,,,,4.5,653.8719890999998,658.3774801000002,658.3774441600002,0.3049743999999919,658.8258739,658.8258739,m,0.7455343999997694,660.87357,660.87357,72,1.24,,,,,sub-067,120,175,700,bloc_loop.csv,2023-11-09_07h44.56.834,PainUncertainty,2022.2.5,143.9984332965363,
grave,forte,stimuli/330Hz,stimuli/forte,bloc_3,prob80hthp_12trials.xlsx,2,24,80,20,0,,,,,0,2,2,2,0,9,9,5,,,,,,,,4.8,660.87357,665.6773986000001,665.6774187599998,0.30473650000021735,666.1248865999999,666.1248865999999,n,1.2026785999998992,670.2089898000002,670.2089898000002,56,2.829,,,,,sub-067,120,175,700,bloc_loop.csv,2023-11-09_07h44.56.834,PainUncertainty,2022.2.5,143.9984332965363,
aigu,forte,stimuli/660Hz,stimuli/forte,bloc_3,prob80hthp_12trials.xlsx,2,24,80,20,0,,,,,0,2,2,2,0,10,10,9,,,,,,,,4,670.2089898000002,674.2126636999999,674.2126420600001,0.30471480000005613,674.6569213999999,674.6569213999999,m,1.7544448000001012,677.9929939000001,677.9929939000001,67,1.503,,,,,sub-067,120,175,700,bloc_loop.csv,2023-11-09_07h44.56.834,PainUncertainty,2022.2.5,143.9984332965363,
grave,moderee,stimuli/330Hz,stimuli/moderee,bloc_3,prob80hthp_12trials.xlsx,2,24,80,20,0,,,,,0,2,2,2,0,11,11,4,,,,,,,,4.2,677.9929939000001,682.1929536,682.19265416,0.3051970999999867,682.6373169999999,682.6373169999999,n,0.7183236999997007,685.9706518,685.9706518,24,2.553,,,,,sub-067,120,175,700,bloc_loop.csv,2023-11-09_07h44.56.834,PainUncertainty,2022.2.5,143.9984332965363,
grave,moderee,stimuli/330Hz,stimuli/moderee,bloc_3,prob80hthp_12trials.xlsx,2,24,80,20,0,,,,,0,2,2,2,1,0,12,2,,,,,,,,4.6,685.9706518,690.5757077000001,690.5755214600002,0.30516839999972944,691.0199789999999,691.0199789999999,n,0.5828073999998651,692.5738318000001,692.5738318000001,23,0.9,,,,,sub-067,120,175,700,bloc_loop.csv,2023-11-09_07h44.56.834,PainUncertainty,2022.2.5,143.9984332965363,
aigu,forte,stimuli/660Hz,stimuli/forte,bloc_3,prob80hthp_12trials.xlsx,2,24,80,20,0,,,,,0,2,2,2,1,1,13,8,,,,,,,,3.4,692.5738318000001,695.9791928000002,695.97903816,0.3051172000000406,696.4279697,696.4279697,m,0.8826929999997901,698.7900511999999,698.7900511999999,64,1.42,,,,,sub-067,120,175,700,bloc_loop.csv,2023-11-09_07h44.56.834,PainUncertainty,2022.2.5,143.9984332965363,
grave,forte,stimuli/330Hz,stimuli/forte,bloc_3,prob80hthp_12trials.xlsx,2,24,80,20,0,,,,,0,2,2,2,1,2,14,5,,,,,,,,4.7,698.7900511999999,703.4940631000002,703.4940643600002,0.3052210999999261,703.9413631999998,703.9413631999998,m,1.8658656999998584,707.6789428999998,707.6789428999998,56,1.795,,,,,sub-067,120,175,700,bloc_loop.csv,2023-11-09_07h44.56.834,PainUncertainty,2022.2.5,143.9984332965363,
aigu,moderee,stimuli/660Hz,stimuli/moderee,bloc_3,prob80hthp_12trials.xlsx,2,24,80,20,0,,,,,0,2,2,2,1,3,15,11,,,,,,,,3.4,707.6789428999998,711.0782660000002,711.0781956600002,0.30484960000012506,711.5224341,711.5224341,n,0.5885084999997616,713.2886254000002,713.2886254000002,23,1.122,,,,,sub-067,120,175,700,bloc_loop.csv,2023-11-09_07h44.56.834,PainUncertainty,2022.2.5,143.9984332965363,
grave,moderee,stimuli/330Hz,stimuli/moderee,bloc_3,prob80hthp_12trials.xlsx,2,24,80,20,0,,,,,0,2,2,2,1,4,16,0,,,,,,,,3.5,713.2886254000002,716.7942998000001,716.7940311599999,0.3050692000001618,717.2384199999999,717.2384199999999,n,0.6905283999997209,719.3470408999999,719.3470408999999,25,1.344,,,,,sub-067,120,175,700,bloc_loop.csv,2023-11-09_07h44.56.834,PainUncertainty,2022.2.5,143.9984332965363,
aigu,forte,stimuli/660Hz,stimuli/forte,bloc_3,prob80hthp_12trials.xlsx,2,24,80,20,0,,,,,0,2,2,2,1,5,17,6,,,,,,,,4.4,719.3470408999999,723.7465411999999,723.7463698599998,0.30574780000006285,724.1960471999998,724.1960471999998,m,1.7110182999997505,727.4524858000002,727.4524858000002,50,1.476,,,,,sub-067,120,175,700,bloc_loop.csv,2023-11-09_07h44.56.834,PainUncertainty,2022.2.5,143.9984332965363,
aigu,forte,stimuli/660Hz,stimuli/forte,bloc_3,prob80hthp_12trials.xlsx,2,24,80,20,0,,,,,0,2,2,2,1,6,18,10,,,,,,,,4.7,727.4524858000002,732.157156,732.1569814600001,0.30503920000001017,732.6012091999999,732.6012091999999,m,1.1192945999998756,736.0185306000001,736.0185306000001,54,2.24,,,,,sub-067,120,175,700,bloc_loop.csv,2023-11-09_07h44.56.834,PainUncertainty,2022.2.5,143.9984332965363,
aigu,forte,stimuli/660Hz,stimuli/forte,bloc_3,prob80hthp_12trials.xlsx,2,24,80,20,0,,,,,0,2,2,2,1,7,19,7,,,,,,,,4.9,736.0185306000001,740.9224142,740.9223265600002,0.30087830000002214,741.3666906999999,741.3666906999999,m,1.362060899999733,744.9074797000001,744.9074797000001,62,2.101,,,,,sub-067,120,175,700,bloc_loop.csv,2023-11-09_07h44.56.834,PainUncertainty,2022.2.5,143.9984332965363,
grave,moderee,stimuli/330Hz,stimuli/moderee,bloc_3,prob80hthp_12trials.xlsx,2,24,80,20,0,,,,,0,2,2,2,1,8,20,4,,,,,,,,3.3,744.9074797000001,748.2080927,748.2078004600002,0.30493920000026264,748.6517589000002,748.6517589000002,n,0.6807778999998391,750.5660931,750.5660931,27,1.163,,,,,sub-067,120,175,700,bloc_loop.csv,2023-11-09_07h44.56.834,PainUncertainty,2022.2.5,143.9984332965363,
aigu,forte,stimuli/660Hz,stimuli/forte,bloc_3,prob80hthp_12trials.xlsx,2,24,80,20,0,,,,,0,2,2,2,1,9,21,9,,,,,,,,4.7,750.5660931,755.2709391000001,755.27070636,0.30538239999987127,755.7190376000001,755.7190376000001,m,1.2759496999999556,759.4380032000001,759.4380032000001,60,2.372,,,,,sub-067,120,175,700,bloc_loop.csv,2023-11-09_07h44.56.834,PainUncertainty,2022.2.5,143.9984332965363,
grave,moderee,stimuli/330Hz,stimuli/moderee,bloc_3,prob80hthp_12trials.xlsx,2,24,80,20,0,,,,,0,2,2,2,1,10,22,3,,,,,,,,3.1,759.4380032000001,762.5431239000002,762.5430124600001,0.30574380000007295,762.9903765000001,762.9903765000001,n,0.763261499999544,765.5753498000001,765.5753498000001,25,1.768,,,,,sub-067,120,175,700,bloc_loop.csv,2023-11-09_07h44.56.834,PainUncertainty,2022.2.5,143.9984332965363,
grave,moderee,stimuli/330Hz,stimuli/moderee,bloc_3,prob80hthp_12trials.xlsx,2,24,80,20,0,,,,,0,2,2,2,1,11,23,1,,,,,,,,4.5,765.5753498000001,770.0782578999999,770.0781587599998,0.30507529999977123,770.5297306,770.5297306,n,0.6561560999996345,772.2737834000002,772.2737834000002,25,1.03,,,,,sub-067,120,175,700,bloc_loop.csv,2023-11-09_07h44.56.834,PainUncertainty,2022.2.5,143.9984332965363,
aigu,moderee,stimuli/660Hz,stimuli/moderee,bloc_4,prob50_50_4trials.xlsx,2,8,50,50,1,,,,,0,3,3,3,0,0,0,2,,,,,,,,3.9,772.2737834000002,776.1761868000001,776.1760785599998,0.3051608999999189,776.6204912000001,776.6204912000001,n,1.718929800000069,779.9003596999999,779.9003596999999,27,1.481,,,,,sub-067,120,175,700,bloc_loop.csv,2023-11-09_07h44.56.834,PainUncertainty,2022.2.5,143.9984332965363,
aigu,forte,stimuli/660Hz,stimuli/forte,bloc_4,prob50_50_4trials.xlsx,2,8,50,50,1,,,,,0,3,3,3,0,1,1,3,,,,,,,,3.2,779.9003596999999,783.1007098000002,783.1004229600002,0.30510610000010274,783.5470048,783.5470048,m,0.8855999999998403,785.6687487000002,785.6687487000002,65,1.184,,,,,sub-067,120,175,700,bloc_loop.csv,2023-11-09_07h44.56.834,PainUncertainty,2022.2.5,143.9984332965363,
grave,forte,stimuli/330Hz,stimuli/forte,bloc_4,prob50_50_4trials.xlsx,2,8,50,50,1,,,,,0,3,3,3,0,2,2,1,,,,,,,,3.3,785.6687487000002,788.9694078,788.9691649599998,0.30538209999986066,789.4135417,789.4135417,m,1.1748694000000341,793.0231313000002,793.0231313000002,60,2.351,,,,,sub-067,120,175,700,bloc_loop.csv,2023-11-09_07h44.56.834,PainUncertainty,2022.2.5,143.9984332965363,
grave,moderee,stimuli/330Hz,stimuli/moderee,bloc_4,prob50_50_4trials.xlsx,2,8,50,50,1,,,,,0,3,3,3,0,3,3,0,,,,,,,,4,793.0231313000002,797.0263674,797.0261065600001,0.3048988999998983,797.4703009000002,797.4703009000002,n,0.6779004999996232,800.0232635999998,800.0232635999998,27,1.817,,,,,sub-067,120,175,700,bloc_loop.csv,2023-11-09_07h44.56.834,PainUncertainty,2022.2.5,143.9984332965363,
grave,moderee,stimuli/330Hz,stimuli/moderee,bloc_4,prob50_50_4trials.xlsx,2,8,50,50,1,,,,,0,3,3,3,1,0,4,0,,,,,,,,3.7,800.0232635999998,803.7281991000002,803.72805086,0.3051106999996591,804.1795371999999,804.1795371999999,n,0.6321586000001389,805.9721283000001,805.9721283000001,20,1.087,,,,,sub-067,120,175,700,bloc_loop.csv,2023-11-09_07h44.56.834,PainUncertainty,2022.2.5,143.9984332965363,
aigu,forte,stimuli/660Hz,stimuli/forte,bloc_4,prob50_50_4trials.xlsx,2,8,50,50,1,,,,,0,3,3,3,1,1,5,3,,,,,,,,3.6,805.9721283000001,809.5760972999999,809.57576186,0.30505019999964134,810.0203316,810.0203316,m,0.6034010999999282,812.7008948,812.7008948,66,2.003,,,,,sub-067,120,175,700,bloc_loop.csv,2023-11-09_07h44.56.834,PainUncertainty,2022.2.5,143.9984332965363,
aigu,moderee,stimuli/660Hz,stimuli/moderee,bloc_4,prob50_50_4trials.xlsx,2,8,50,50,1,,,,,0,3,3,3,1,2,6,2,,,,,,,,4.3,812.7008948,817.0007873000002,817.00069896,0.30047190000004775,817.4450506999999,817.4450506999999,n,0.631643099999792,820.7410754999999,820.7410754999999,24,2.593,,,,,sub-067,120,175,700,bloc_loop.csv,2023-11-09_07h44.56.834,PainUncertainty,2022.2.5,143.9984332965363,
grave,forte,stimuli/330Hz,stimuli/forte,bloc_4,prob50_50_4trials.xlsx,2,8,50,50,1,,,,,0,3,3,3,1,3,7,1,,,,,,,,3.1,820.7410754999999,823.8416725,823.8414830599999,0.3046399999998357,824.2859615,824.2859615,m,1.049067299999706,828.8885446000002,828.8885446000002,60,1.524,,,,,sub-067,120,175,700,bloc_loop.csv,2023-11-09_07h44.56.834,PainUncertainty,2022.2.5,143.9984332965363,
,,,,bloc_4,prob50_50_4trials.xlsx,2,8,50,50,1,,,,,0,3,3,3,,,,,0,0,0,0,,,,,,,,,,,,,,,,,828.8885446000002,855.8453867999999,,,sub-067,120,175,700,bloc_loop.csv,2023-11-09_07h44.56.834,PainUncertainty,2022.2.5,143.9984332965363,
grave,forte,stimuli/330Hz,stimuli/forte,bloc_5,prob20hthp_12trials.xlsx,2,24,20,80,0,,,,,0,4,4,4,0,0,0,4,,,,,,,,4.4,857.3806863000002,861.7836067000001,861.78344976,0.30512270000008357,862.2277397999999,862.2277397999999,m,0.751200800000106,865.4852205999998,865.4852205999998,66,2.428,,,,,sub-067,120,175,700,bloc_loop.csv,2023-11-09_07h44.56.834,PainUncertainty,2022.2.5,143.9984332965363,
grave,moderee,stimuli/330Hz,stimuli/moderee,bloc_5,prob20hthp_12trials.xlsx,2,24,20,80,0,,,,,0,4,4,4,0,1,1,5,,,,,,,,4.2,865.4852205999998,869.6877114000001,869.6876898600002,0.3048750000002656,870.1355105999999,870.1355105999999,n,0.6810415999996167,872.1802934999998,872.1802934999998,22,1.307,,,,,sub-067,120,175,700,bloc_loop.csv,2023-11-09_07h44.56.834,PainUncertainty,2022.2.5,143.9984332965363,
aigu,moderee,stimuli/660Hz,stimuli/moderee,bloc_5,prob20hthp_12trials.xlsx,2,24,20,80,0,,,,,0,4,4,4,0,2,2,6,,,,,,,,3.5,872.1802934999998,875.6810920999999,875.6809085600001,0.305240700000013,876.1256761000002,876.1256761000002,n,2.149939399999994,880.3965848999999,880.3965848999999,48,2.067,,,,,sub-067,120,175,700,bloc_loop.csv,2023-11-09_07h44.56.834,PainUncertainty,2022.2.5,143.9984332965363,
aigu,moderee,stimuli/660Hz,stimuli/moderee,bloc_5,prob20hthp_12trials.xlsx,2,24,20,80,0,,,,,0,4,4,4,0,3,3,7,,,,,,,,4.8,880.3965848999999,885.1959883000002,885.19574636,0.3051820000000589,885.6401586999998,885.6401586999998,n,1.0807758999997077,888.2460312999999,888.2460312999999,35,1.463,,,,,sub-067,120,175,700,bloc_loop.csv,2023-11-09_07h44.56.834,PainUncertainty,2022.2.5,143.9984332965363,
aigu,moderee,stimuli/660Hz,stimuli/moderee,bloc_5,prob20hthp_12trials.xlsx,2,24,20,80,0,,,,,0,4,4,4,0,4,4,10,,,,,,,,4.2,888.2460312999999,892.4469620000002,892.4467295600001,0.3050069999999323,892.8911024000001,892.8911024000001,n,1.4951088999998774,896.9593299999999,896.9593299999999,32,2.497,,,,,sub-067,120,175,700,bloc_loop.csv,2023-11-09_07h44.56.834,PainUncertainty,2022.2.5,143.9984332965363,
grave,forte,stimuli/330Hz,stimuli/forte,bloc_5,prob20hthp_12trials.xlsx,2,24,20,80,0,,,,,0,4,4,4,0,5,5,2,,,,,,,,4.4,896.9593299999999,901.3646474,901.3644706600002,0.30491859999983717,901.8088856000002,901.8088856000002,m,0.6886382999998659,904.2804097000001,904.2804097000001,63,1.719,,,,,sub-067,120,175,700,bloc_loop.csv,2023-11-09_07h44.56.834,PainUncertainty,2022.2.5,143.9984332965363,
grave,forte,stimuli/330Hz,stimuli/forte,bloc_5,prob20hthp_12trials.xlsx,2,24,20,80,0,,,,,0,4,4,4,0,6,6,0,,,,,,,,4.9,904.2804097000001,909.1850929999998,909.1847607600001,0.30483319999984815,909.6291448999998,909.6291448999998,m,0.6737278999996761,911.9996447999999,911.9996447999999,62,1.649,,,,,sub-067,120,175,700,bloc_loop.csv,2023-11-09_07h44.56.834,PainUncertainty,2022.2.5,143.9984332965363,
grave,forte,stimuli/330Hz,stimuli/forte,bloc_5,prob20hthp_12trials.xlsx,2,24,20,80,0,,,,,0,4,4,4,0,7,7,3,,,,,,,,5,911.9996447999999,917.0054111000002,917.0050858600001,0.3050719000002573,917.449523,917.449523,m,0.9532329999999547,919.5126315999998,919.5126315999998,60,1.049,,,,,sub-067,120,175,700,bloc_loop.csv,2023-11-09_07h44.56.834,PainUncertainty,2022.2.5,143.9984332965363,
grave,forte,stimuli/330Hz,stimuli/forte,bloc_5,prob20hthp_12trials.xlsx,2,24,20,80,0,,,,,0,4,4,4,0,8,8,1,,,,,,,,4.4,919.5126315999998,923.9158469000001,923.91576926,0.30487600000014936,924.3639294000002,924.3639294000002,m,1.2265014999995856,927.9051695999999,927.9051695999999,68,2.262,,,,,sub-067,120,175,700,bloc_loop.csv,2023-11-09_07h44.56.834,PainUncertainty,2022.2.5,143.9984332965363,
aigu,forte,stimuli/660Hz,stimuli/forte,bloc_5,prob20hthp_12trials.xlsx,2,24,20,80,0,,,,,0,4,4,4,0,9,9,11,,,,,,,,4.7,927.9051695999999,932.6044064999999,932.6042557600002,0.3052354000001287,933.0487584,933.0487584,m,1.8733182999997098,935.740051,935.740051,60,0.74,,,,,sub-067,120,175,700,bloc_loop.csv,2023-11-09_07h44.56.834,PainUncertainty,2022.2.5,143.9984332965363,
aigu,moderee,stimuli/660Hz,stimuli/moderee,bloc_5,prob20hthp_12trials.xlsx,2,24,20,80,0,,,,,0,4,4,4,0,10,10,8,,,,,,,,3.1,935.740051,938.8415999000001,938.8422682600002,0.3040667999998732,939.2854502000002,939.2854502000002,n,0.8682132000001275,942.5325246999998,942.5325246999998,26,2.323,,,,,sub-067,120,175,700,bloc_loop.csv,2023-11-09_07h44.56.834,PainUncertainty,2022.2.5,143.9984332965363,
aigu,moderee,stimuli/660Hz,stimuli/moderee,bloc_5,prob20hthp_12trials.xlsx,2,24,20,80,0,,,,,0,4,4,4,0,11,11,9,,,,,,,,4.1,942.5325246999998,946.6339848,946.6339053599999,0.30473540000002686,947.0819503999999,947.0819503999999,n,2.26549239999963,951.0204523999998,951.0204523999998,31,1.615,,,,,sub-067,120,175,700,bloc_loop.csv,2023-11-09_07h44.56.834,PainUncertainty,2022.2.5,143.9984332965363,
aigu,moderee,stimuli/660Hz,stimuli/moderee,bloc_5,prob20hthp_12trials.xlsx,2,24,20,80,0,,,,,0,4,4,4,1,0,12,8,,,,,,,,4.4,951.0204523999998,955.4197081,955.4194977599999,0.2991849000000002,955.8579028000001,955.8579028000001,n,2.083258899999919,959.1098881,959.1098881,32,1.092,,,,,sub-067,120,175,700,bloc_loop.csv,2023-11-09_07h44.56.834,PainUncertainty,2022.2.5,143.9984332965363,
grave,forte,stimuli/330Hz,stimuli/forte,bloc_5,prob20hthp_12trials.xlsx,2,24,20,80,0,,,,,0,4,4,4,1,1,13,4,,,,,,,,4.1,959.1098881,963.2123393999998,963.2121283599998,0.3049274999998488,963.6605705999998,963.6605705999998,m,1.2020460999999614,966.2538992000002,966.2538992000002,64,1.33,,,,,sub-067,120,175,700,bloc_loop.csv,2023-11-09_07h44.56.834,PainUncertainty,2022.2.5,143.9984332965363,
grave,forte,stimuli/330Hz,stimuli/forte,bloc_5,prob20hthp_12trials.xlsx,2,24,20,80,0,,,,,0,4,4,4,1,2,14,1,,,,,,,,4.5,966.2538992000002,970.7550821000002,970.7547951599998,0.3050732000001517,971.1989182999998,971.1989182999998,m,1.1851304999997865,974.3276656,974.3276656,61,1.878,,,,,sub-067,120,175,700,bloc_loop.csv,2023-11-09_07h44.56.834,PainUncertainty,2022.2.5,143.9984332965363,
grave,forte,stimuli/330Hz,stimuli/forte,bloc_5,prob20hthp_12trials.xlsx,2,24,20,80,0,,,,,0,4,4,4,1,3,15,0,,,,,,,,4.4,974.3276656,978.7279056,978.7276866599999,0.299824599999738,979.1723190999999,979.1723190999999,m,0.7966978000001745,981.2638516,981.2638516,66,1.241,,,,,sub-067,120,175,700,bloc_loop.csv,2023-11-09_07h44.56.834,PainUncertainty,2022.2.5,143.9984332965363,
grave,forte,stimuli/330Hz,stimuli/forte,bloc_5,prob20hthp_12trials.xlsx,2,24,20,80,0,,,,,0,4,4,4,1,4,16,3,,,,,,,,3.5,981.2638516,984.7634667999998,984.7631969600001,0.30501989999993384,985.2113818999999,985.2113818999999,m,1.0117360000001554,987.4340129,987.4340129,69,1.15,,,,,sub-067,120,175,700,bloc_loop.csv,2023-11-09_07h44.56.834,PainUncertainty,2022.2.5,143.9984332965363,
grave,forte,stimuli/330Hz,stimuli/forte,bloc_5,prob20hthp_12trials.xlsx,2,24,20,80,0,,,,,0,4,4,4,1,5,17,2,,,,,,,,4.6,987.4340129,992.0350067000002,992.0347639599999,0.30511899999964953,992.479779,992.479779,m,0.9723308000000088,995.317182,995.317182,61,1.789,,,,,sub-067,120,175,700,bloc_loop.csv,2023-11-09_07h44.56.834,PainUncertainty,2022.2.5,143.9984332965363,
aigu,moderee,stimuli/660Hz,stimuli/moderee,bloc_5,prob20hthp_12trials.xlsx,2,24,20,80,0,,,,,0,4,4,4,1,6,18,9,,,,,,,,5,995.317182,1000.3208078999999,1000.3205168600001,0.30530129999988276,1000.7649094999999,1000.7649094999999,n,1.2139028999997663,1004.2848528000002,1004.2848528000002,25,2.247,,,,,sub-067,120,175,700,bloc_loop.csv,2023-11-09_07h44.56.834,PainUncertainty,2022.2.5,143.9984332965363,
grave,moderee,stimuli/330Hz,stimuli/moderee,bloc_5,prob20hthp_12trials.xlsx,2,24,20,80,0,,,,,0,4,4,4,1,7,19,5,,,,,,,,4.5,1004.2848528000002,1008.7873510000002,1008.7870367600002,0.30487829999992755,1009.2312319,1009.2312319,n,1.2248647999997502,1012.0837073999999,1012.0837073999999,25,1.572,,,,,sub-067,120,175,700,bloc_loop.csv,2023-11-09_07h44.56.834,PainUncertainty,2022.2.5,143.9984332965363,
aigu,moderee,stimuli/660Hz,stimuli/moderee,bloc_5,prob20hthp_12trials.xlsx,2,24,20,80,0,,,,,0,4,4,4,1,8,20,6,,,,,,,,4.2,1012.0837073999999,1016.2900290999999,1016.2880320600001,0.3010070000000269,1016.7324897999999,1016.7324897999999,None,,1020.7476036,1020.7476036,45,1.518,,,1019.2004153999999,1019.2004153999999,sub-067,120,175,700,bloc_loop.csv,2023-11-09_07h44.56.834,PainUncertainty,2022.2.5,143.9984332965363,
aigu,moderee,stimuli/660Hz,stimuli/moderee,bloc_5,prob20hthp_12trials.xlsx,2,24,20,80,0,,,,,0,4,4,4,1,9,21,10,,,,,,,,3.8,1020.7476036,1024.5528668,1024.55279516,0.3049433000001045,1025.001208,1025.001208,n,1.0419286000003467,1027.3024708,1027.3024708,30,1.198,,,,,sub-067,120,175,700,bloc_loop.csv,2023-11-09_07h44.56.834,PainUncertainty,2022.2.5,143.9984332965363,
aigu,moderee,stimuli/660Hz,stimuli/moderee,bloc_5,prob20hthp_12trials.xlsx,2,24,20,80,0,,,,,0,4,4,4,1,10,22,7,,,,,,,,3.1,1027.3024708,1030.4077289,1030.4074411599997,0.30518430000029184,1030.8519201000001,1030.8519201000001,n,0.8865296000001308,1033.1230902,1033.1230902,31,1.309,,,,,sub-067,120,175,700,bloc_loop.csv,2023-11-09_07h44.56.834,PainUncertainty,2022.2.5,143.9984332965363,
aigu,forte,stimuli/660Hz,stimuli/forte,bloc_5,prob20hthp_12trials.xlsx,2,24,20,80,0,,,,,0,4,4,4,1,11,23,11,,,,,,,,3.1,1033.1230902,1036.2277904,1036.22762966,0.30499239999971905,1036.6719679999999,1036.6719679999999,m,0.8345967999996446,1038.2844637,1038.2844637,70,0.712,,,,,sub-067,120,175,700,bloc_loop.csv,2023-11-09_07h44.56.834,PainUncertainty,2022.2.5,143.9984332965363,
aigu,forte,stimuli/660Hz,stimuli/forte,bloc_6,prob50_50_4trials.xlsx,2,8,50,50,0,,,,,0,5,5,5,0,0,0,3,,,,,,,,4.9,1038.2844637,1043.1873434000001,1043.18719326,0.30610939999996845,1043.6344726999998,1043.6344726999998,m,0.7219548000000486,1046.2656411,1046.2656411,60,1.83,,,,,sub-067,120,175,700,bloc_loop.csv,2023-11-09_07h44.56.834,PainUncertainty,2022.2.5,143.9984332965363,
grave,moderee,stimuli/330Hz,stimuli/moderee,bloc_6,prob50_50_4trials.xlsx,2,8,50,50,0,,,,,0,5,5,5,0,1,1,0,,,,,,,,3,1046.2656411,1049.2645682999998,1049.26589566,0.30370170000014696,1049.7088953999998,1049.7088953999998,n,1.7302360000001045,1052.4313476,1052.4313476,26,0.933,,,,,sub-067,120,175,700,bloc_loop.csv,2023-11-09_07h44.56.834,PainUncertainty,2022.2.5,143.9984332965363,
aigu,moderee,stimuli/660Hz,stimuli/moderee,bloc_6,prob50_50_4trials.xlsx,2,8,50,50,0,,,,,0,5,5,5,0,2,2,2,,,,,,,,3.4,1052.4313476,1055.8347412,1055.8340640599997,0.30518960000017614,1056.2823898,1056.2823898,n,1.9218170999999984,1060.5371913000001,1060.5371913000001,32,2.253,,,,,sub-067,120,175,700,bloc_loop.csv,2023-11-09_07h44.56.834,PainUncertainty,2022.2.5,143.9984332965363,
grave,forte,stimuli/330Hz,stimuli/forte,bloc_6,prob50_50_4trials.xlsx,2,8,50,50,0,,,,,0,5,5,5,0,3,3,1,,,,,,,,4.4,1060.5371913000001,1064.9401943999999,1064.93996966,0.3019280000003164,1065.3841126,1065.3841126,m,0.7517169000000195,1068.1313389999998,1068.1313389999998,63,1.913,,,,,sub-067,120,175,700,bloc_loop.csv,2023-11-09_07h44.56.834,PainUncertainty,2022.2.5,143.9984332965363,
aigu,moderee,stimuli/660Hz,stimuli/moderee,bloc_6,prob50_50_4trials.xlsx,2,8,50,50,0,,,,,0,5,5,5,1,0,4,2,,,,,,,,3,1068.1313389999998,1071.1354356999998,1071.1351680599998,0.3046386999999413,1071.5792806000002,1071.5792806000002,n,0.6747529000001578,1074.0450195,1074.0450195,23,1.705,,,,,sub-067,120,175,700,bloc_loop.csv,2023-11-09_07h44.56.834,PainUncertainty,2022.2.5,143.9984332965363,
aigu,forte,stimuli/660Hz,stimuli/forte,bloc_6,prob50_50_4trials.xlsx,2,8,50,50,0,,,,,0,5,5,5,1,1,5,3,,,,,,,,3.6,1074.0450195,1077.6494052,1077.6493061599997,0.2992428000002292,1078.0920655000002,1078.0920655000002,m,1.3946403000002192,1080.8697530000002,1080.8697530000002,52,1.308,,,,,sub-067,120,175,700,bloc_loop.csv,2023-11-09_07h44.56.834,PainUncertainty,2022.2.5,143.9984332965363,
grave,moderee,stimuli/330Hz,stimuli/moderee,bloc_6,prob50_50_4trials.xlsx,2,8,50,50,0,,,,,0,5,5,5,1,2,6,0,,,,,,,,3.2,1080.8697530000002,1084.0736682,1084.07358056,0.3047527000003356,1084.5178082999998,1084.5178082999998,n,0.6367926000000352,1085.9232522999998,1085.9232522999998,30,0.691,,,,,sub-067,120,175,700,bloc_loop.csv,2023-11-09_07h44.56.834,PainUncertainty,2022.2.5,143.9984332965363,
grave,forte,stimuli/330Hz,stimuli/forte,bloc_6,prob50_50_4trials.xlsx,2,8,50,50,0,,,,,0,5,5,5,1,3,7,1,,,,,,,,3.6,1085.9232522999998,1089.5262745000002,1089.5262388599997,0.30486480000035954,1089.9740678,1089.9740678,m,0.7246256000000812,1091.8993054999999,1091.8993054999999,66,1.136,,,,,sub-067,120,175,700,bloc_loop.csv,2023-11-09_07h44.56.834,PainUncertainty,2022.2.5,143.9984332965363,
grave,forte,stimuli/330Hz,stimuli/forte,bloc_7,prob80hthp_12trials.xlsx,2,24,80,20,1,,,,,0,6,6,6,0,0,0,5,,,,,,,,3.4,1091.8993054999999,1095.3041292999999,1095.30398046,0.3049015000001418,1095.7484821,1095.7484821,m,0.6994735999999193,1098.5963551000002,1098.5963551000002,62,2.074,,,,,sub-067,120,175,700,bloc_loop.csv,2023-11-09_07h44.56.834,PainUncertainty,2022.2.5,143.9984332965363,
aigu,moderee,stimuli/660Hz,stimuli/moderee,bloc_7,prob80hthp_12trials.xlsx,2,24,80,20,1,,,,,0,6,6,6,0,1,1,11,,,,,,,,3.4,1098.5963551000002,1101.9994165,1101.99934246,0.3047794999997677,1102.443501,1102.443501,n,0.5772820999998203,1105.3120984,1105.3120984,28,2.205,,,,,sub-067,120,175,700,bloc_loop.csv,2023-11-09_07h44.56.834,PainUncertainty,2022.2.5,143.9984332965363,
aigu,forte,stimuli/660Hz,stimuli/forte,bloc_7,prob80hthp_12trials.xlsx,2,24,80,20,1,,,,,0,6,6,6,0,2,2,8,,,,,,,,3.1,1105.3120984,1108.4173278,1108.41701256,0.30520789999991393,1108.8650495,1108.8650495,m,0.7237086000002364,1110.9225453000001,1110.9225453000001,65,1.272,,,,,sub-067,120,175,700,bloc_loop.csv,2023-11-09_07h44.56.834,PainUncertainty,2022.2.5,143.9984332965363,
aigu,forte,stimuli/660Hz,stimuli/forte,bloc_7,prob80hthp_12trials.xlsx,2,24,80,20,1,,,,,0,6,6,6,0,3,3,9,,,,,,,,3.3,1110.9225453000001,1114.2230920999998,1114.22280586,0.30509729999994306,1114.6671602,1114.6671602,m,0.6493161000000782,1116.5502312,1116.5502312,67,1.15,,,,,sub-067,120,175,700,bloc_loop.csv,2023-11-09_07h44.56.834,PainUncertainty,2022.2.5,143.9984332965363,
grave,moderee,stimuli/330Hz,stimuli/moderee,bloc_7,prob80hthp_12trials.xlsx,2,24,80,20,1,,,,,0,6,6,6,0,4,4,2,,,,,,,,3.4,1116.5502312,1119.9530837,1119.95274796,0.3048957999999402,1120.3970914,1120.3970914,n,0.6590084000001752,1122.8484993999998,1122.8484993999998,33,1.718,,,,,sub-067,120,175,700,bloc_loop.csv,2023-11-09_07h44.56.834,PainUncertainty,2022.2.5,143.9984332965363,
aigu,forte,stimuli/660Hz,stimuli/forte,bloc_7,prob80hthp_12trials.xlsx,2,24,80,20,1,,,,,0,6,6,6,0,5,5,7,,,,,,,,4.5,1122.8484993999998,1127.3496158,1127.34934266,0.3053162000001066,1127.7978666000001,1127.7978666000001,m,0.7009983999998894,1129.5762573,1129.5762573,69,1.025,,,,,sub-067,120,175,700,bloc_loop.csv,2023-11-09_07h44.56.834,PainUncertainty,2022.2.5,143.9984332965363,
aigu,forte,stimuli/660Hz,stimuli/forte,bloc_7,prob80hthp_12trials.xlsx,2,24,80,20,1,,,,,0,6,6,6,0,6,6,10,,,,,,,,4.1,1129.5762573,1133.6767708999998,1133.6766559599998,0.30505559999983234,1134.1211636,1134.1211636,m,0.6554720000001453,1136.2918679000002,1136.2918679000002,68,1.434,,,,,sub-067,120,175,700,bloc_loop.csv,2023-11-09_07h44.56.834,PainUncertainty,2022.2.5,143.9984332965363,
grave,moderee,stimuli/330Hz,stimuli/moderee,bloc_7,prob80hthp_12trials.xlsx,2,24,80,20,1,,,,,0,6,6,6,0,7,7,1,,,,,,,,4.8,1136.2918679000002,1141.0944447,1141.09416816,0.3052241000000322,1141.5424457000001,1141.5424457000001,n,0.6549373999998807,1143.2438525999999,1143.2438525999999,27,0.997,,,,,sub-067,120,175,700,bloc_loop.csv,2023-11-09_07h44.56.834,PainUncertainty,2022.2.5,143.9984332965363,
grave,moderee,stimuli/330Hz,stimuli/moderee,bloc_7,prob80hthp_12trials.xlsx,2,24,80,20,1,,,,,0,6,6,6,0,8,8,4,,,,,,,,3.8,1143.2438525999999,1147.0464543,1147.0463782599998,0.30502000000024054,1147.4906451,1147.4906451,n,0.6354293999995662,1148.9828534,1148.9828534,20,0.795,,,,,sub-067,120,175,700,bloc_loop.csv,2023-11-09_07h44.56.834,PainUncertainty,2022.2.5,143.9984332965363,
grave,moderee,stimuli/330Hz,stimuli/moderee,bloc_7,prob80hthp_12trials.xlsx,2,24,80,20,1,,,,,0,6,6,6,0,9,9,0,,,,,,,,3.4,1148.9828534,1152.3877525999999,1152.3875252599998,0.3052192999998624,1152.8356206,1152.8356206,n,0.6477870000001076,1156.1284368,1156.1284368,26,2.58,,,,,sub-067,120,175,700,bloc_loop.csv,2023-11-09_07h44.56.834,PainUncertainty,2022.2.5,143.9984332965363,
aigu,forte,stimuli/660Hz,stimuli/forte,bloc_7,prob80hthp_12trials.xlsx,2,24,80,20,1,,,,,0,6,6,6,0,10,10,6,,,,,,,,3.7,1156.1284368,1159.8326966000002,1159.8324467599998,0.30540330000030735,1160.2808255000002,1160.2808255000002,m,0.7331784000000425,1163.7213800000002,1163.7213800000002,61,2.634,,,,,sub-067,120,175,700,bloc_loop.csv,2023-11-09_07h44.56.834,PainUncertainty,2022.2.5,143.9984332965363,
grave,moderee,stimuli/330Hz,stimuli/moderee,bloc_7,prob80hthp_12trials.xlsx,2,24,80,20,1,,,,,0,6,6,6,0,11,11,3,,,,,,,,4,1163.7213800000002,1167.7224395,1167.72234886,0.30002909999984695,1168.167451,1168.167451,n,0.5302420000000438,1170.1318583999998,1170.1318583999998,25,1.372,,,,,sub-067,120,175,700,bloc_loop.csv,2023-11-09_07h44.56.834,PainUncertainty,2022.2.5,143.9984332965363,
grave,moderee,stimuli/330Hz,stimuli/moderee,bloc_7,prob80hthp_12trials.xlsx,2,24,80,20,1,,,,,0,6,6,6,1,0,12,3,,,,,,,,4.6,1170.1318583999998,1174.7371385,1174.73701516,0.3054753999999775,1175.1857645000002,1175.1857645000002,n,1.0032843000001321,1178.2385501,1178.2385501,27,1.984,,,,,sub-067,120,175,700,bloc_loop.csv,2023-11-09_07h44.56.834,PainUncertainty,2022.2.5,143.9984332965363,
grave,moderee,stimuli/330Hz,stimuli/moderee,bloc_7,prob80hthp_12trials.xlsx,2,24,80,20,1,,,,,0,6,6,6,1,1,13,4,,,,,,,,4,1178.2385501,1182.2381295000002,1182.2378312600001,0.30518130000018573,1182.6823003000002,1182.6823003000002,n,1.3459479000000556,1186.2924878000001,1186.2924878000001,29,2.213,,,,,sub-067,120,175,700,bloc_loop.csv,2023-11-09_07h44.56.834,PainUncertainty,2022.2.5,143.9984332965363,
grave,moderee,stimuli/330Hz,stimuli/moderee,bloc_7,prob80hthp_12trials.xlsx,2,24,80,20,1,,,,,0,6,6,6,1,2,14,0,,,,,,,,4,1186.2924878000001,1190.2951062999998,1190.29464166,0.30529999999998836,1190.7428077000002,1190.7428077000002,n,0.5937171999996735,1192.2413308000002,1192.2413308000002,30,0.784,,,,,sub-067,120,175,700,bloc_loop.csv,2023-11-09_07h44.56.834,PainUncertainty,2022.2.5,143.9984332965363,
aigu,forte,stimuli/660Hz,stimuli/forte,bloc_7,prob80hthp_12trials.xlsx,2,24,80,20,1,,,,,0,6,6,6,1,3,15,8,,,,,,,,4.8,1192.2413308000002,1197.0452845000002,1197.0451551599997,0.30502000000024054,1197.4896637,1197.4896637,m,0.7208702999998877,1199.4816361,1199.4816361,64,1.198,,,,,sub-067,120,175,700,bloc_loop.csv,2023-11-09_07h44.56.834,PainUncertainty,2022.2.5,143.9984332965363,
aigu,moderee,stimuli/660Hz,stimuli/moderee,bloc_7,prob80hthp_12trials.xlsx,2,24,80,20,1,,,,,0,6,6,6,1,4,16,11,,,,,,,,3.7,1199.4816361,1203.1849707,1203.1847855599997,0.3050002999998469,1203.6291401,1203.6291401,n,1.3466885999998794,1206.4045036,1206.4045036,28,1.355,,,,,sub-067,120,175,700,bloc_loop.csv,2023-11-09_07h44.56.834,PainUncertainty,2022.2.5,143.9984332965363,
aigu,forte,stimuli/660Hz,stimuli/forte,bloc_7,prob80hthp_12trials.xlsx,2,24,80,20,1,,,,,0,6,6,6,1,5,17,6,,,,,,,,4.6,1206.4045036,1211.0059732000002,1211.0055163599998,0.30639689999998154,1211.4571552,1211.4571552,m,1.031010500000093,1213.5005242999998,1213.5005242999998,61,0.948,,,,,sub-067,120,175,700,bloc_loop.csv,2023-11-09_07h44.56.834,PainUncertainty,2022.2.5,143.9984332965363,
grave,forte,stimuli/330Hz,stimuli/forte,bloc_7,prob80hthp_12trials.xlsx,2,24,80,20,1,,,,,0,6,6,6,1,6,18,5,,,,,,,,3.5,1213.5005242999998,1217.0060068,1217.0057691599998,0.3053906999998617,1217.4542901000002,1217.4542901000002,m,1.0505366999998387,1220.5350273000001,1220.5350273000001,62,1.971,,,,,sub-067,120,175,700,bloc_loop.csv,2023-11-09_07h44.56.834,PainUncertainty,2022.2.5,143.9984332965363,
aigu,forte,stimuli/660Hz,stimuli/forte,bloc_7,prob80hthp_12trials.xlsx,2,24,80,20,1,,,,,0,6,6,6,1,7,19,10,,,,,,,,5,1220.5350273000001,1225.5346919,1225.53466236,0.3051415999998426,1225.9789333,1225.9789333,m,0.8600334999998722,1227.8068010999998,1227.8068010999998,65,0.899,,,,,sub-067,120,175,700,bloc_loop.csv,2023-11-09_07h44.56.834,PainUncertainty,2022.2.5,143.9984332965363,
grave,moderee,stimuli/330Hz,stimuli/moderee,bloc_7,prob80hthp_12trials.xlsx,2,24,80,20,1,,,,,0,6,6,6,1,8,20,1,,,,,,,,4.8,1227.8068010999998,1232.6123768999998,1232.61225786,0.2992506999999023,1233.0541906,1233.0541906,n,0.652944400000024,1236.1061441,1236.1061441,31,2.321,,,,,sub-067,120,175,700,bloc_loop.csv,2023-11-09_07h44.56.834,PainUncertainty,2022.2.5,143.9984332965363,
aigu,forte,stimuli/660Hz,stimuli/forte,bloc_7,prob80hthp_12trials.xlsx,2,24,80,20,1,,,,,0,6,6,6,1,9,21,9,,,,,,,,3.6,1236.1061441,1239.7101276,1239.7099397599998,0.3028045999999449,1240.1559236,1240.1559236,m,1.158798600000182,1244.1140320000002,1244.1140320000002,63,2.726,,,,,sub-067,120,175,700,bloc_loop.csv,2023-11-09_07h44.56.834,PainUncertainty,2022.2.5,143.9984332965363,
grave,moderee,stimuli/330Hz,stimuli/moderee,bloc_7,prob80hthp_12trials.xlsx,2,24,80,20,1,,,,,0,6,6,6,1,10,22,2,,,,,,,,4.1,1244.1140320000002,1248.2184080999998,1248.2182860599999,0.3050959000001967,1248.6670115,1248.6670115,n,0.6644613999999365,1252.1051923000002,1252.1051923000002,28,2.705,,,,,sub-067,120,175,700,bloc_loop.csv,2023-11-09_07h44.56.834,PainUncertainty,2022.2.5,143.9984332965363,
aigu,forte,stimuli/660Hz,stimuli/forte,bloc_7,prob80hthp_12trials.xlsx,2,24,80,20,1,,,,,0,6,6,6,1,11,23,7,,,,,,,,4.2,1252.1051923000002,1256.3092872999998,1256.3091475599997,0.30163249999986874,1256.7539376000002,1256.7539376000002,m,0.608968700000105,1260.9167854999998,1260.9167854999998,72,1.525,,,,,sub-067,120,175,700,bloc_loop.csv,2023-11-09_07h44.56.834,PainUncertainty,2022.2.5,143.9984332965363,
,,,,bloc_7,prob80hthp_12trials.xlsx,2,24,80,20,1,,,,,0,6,6,6,,,,,0,0,0,0,,,,,,,,,,,,,,,,,1260.9167854999998,1283.9448163999998,,,sub-067,120,175,700,bloc_loop.csv,2023-11-09_07h44.56.834,PainUncertainty,2022.2.5,143.9984332965363,
grave,forte,stimuli/330Hz,stimuli/forte,bloc_8,prob50_50_4trials.xlsx,3,12,50,50,0,,,,,0,7,7,7,0,0,0,1,,,,,,,,3.8,1286.2030788999998,1290.0076907,1290.00764096,0.30476739999994606,1290.4518544999999,1290.4518544999999,m,0.7075053999994907,1293.7302072,1293.7302072,68,2.504,,,,,sub-067,120,175,700,bloc_loop.csv,2023-11-09_07h44.56.834,PainUncertainty,2022.2.5,143.9984332965363,
aigu,moderee,stimuli/660Hz,stimuli/moderee,bloc_8,prob50_50_4trials.xlsx,3,12,50,50,0,,,,,0,7,7,7,0,1,1,2,,,,,,,,4.4,1293.7302072,1298.1334960000002,1298.1333299599999,0.30526240000017424,1298.5778712,1298.5778712,n,0.4935778000001392,1301.3887974000002,1301.3887974000002,29,2.241,,,,,sub-067,120,175,700,bloc_loop.csv,2023-11-09_07h44.56.834,PainUncertainty,2022.2.5,143.9984332965363,
aigu,forte,stimuli/660Hz,stimuli/forte,bloc_8,prob50_50_4trials.xlsx,3,12,50,50,0,,,,,0,7,7,7,0,2,2,3,,,,,,,,4.1,1301.3887974000002,1305.4887066,1305.48858076,0.3049943000000894,1305.9331505000002,1305.9331505000002,m,0.5228770999999597,1308.0705273,1308.0705273,59,1.531,,,,,sub-067,120,175,700,bloc_loop.csv,2023-11-09_07h44.56.834,PainUncertainty,2022.2.5,143.9984332965363,
grave,moderee,stimuli/330Hz,stimuli/moderee,bloc_8,prob50_50_4trials.xlsx,3,12,50,50,0,,,,,0,7,7,7,0,3,3,0,,,,,,,,3.1,1308.0705273,1311.1699464,1311.1697441599997,0.3049796000000242,1311.6146812,1311.6146812,n,0.941769499999964,1313.2981548,1313.2981548,20,0.669,,,,,sub-067,120,175,700,bloc_loop.csv,2023-11-09_07h44.56.834,PainUncertainty,2022.2.5,143.9984332965363,
aigu,forte,stimuli/660Hz,stimuli/forte,bloc_8,prob50_50_4trials.xlsx,3,12,50,50,0,,,,,0,7,7,7,1,0,4,3,,,,,,,,4.7,1313.2981548,1318.0041681999999,1318.00403386,0.3047260000003007,1318.4484917000002,1318.4484917000002,m,1.6287223000001632,1321.8339325999998,1321.8339325999998,65,1.684,,,,,sub-067,120,175,700,bloc_loop.csv,2023-11-09_07h44.56.834,PainUncertainty,2022.2.5,143.9984332965363,
grave,moderee,stimuli/330Hz,stimuli/moderee,bloc_8,prob50_50_4trials.xlsx,3,12,50,50,0,,,,,0,7,7,7,1,1,5,0,,,,,,,,4.5,1321.8339325999998,1326.3384377999998,1326.33831776,0.30505189999985305,1326.7862115,1326.7862115,n,0.5231717999997727,1328.0193158,1328.0193158,30,0.643,,,,,sub-067,120,175,700,bloc_loop.csv,2023-11-09_07h44.56.834,PainUncertainty,2022.2.5,143.9984332965363,
grave,forte,stimuli/330Hz,stimuli/forte,bloc_8,prob50_50_4trials.xlsx,3,12,50,50,0,,,,,0,7,7,7,1,2,6,1,,,,,,,,3.4,1328.0193158,1331.4224367,1331.42225326,0.30467540000017834,1331.8663849000002,1331.8663849000002,m,0.9820565000002262,1334.6879643999998,1334.6879643999998,66,1.762,,,,,sub-067,120,175,700,bloc_loop.csv,2023-11-09_07h44.56.834,PainUncertainty,2022.2.5,143.9984332965363,
aigu,moderee,stimuli/660Hz,stimuli/moderee,bloc_8,prob50_50_4trials.xlsx,3,12,50,50,0,,,,,0,7,7,7,1,3,7,2,,,,,,,,3.6,1334.6879643999998,1338.2911378000001,1338.29096206,0.30508959999997387,1338.7353445,1338.7353445,n,0.4957915000002231,1340.2495345,1340.2495345,27,0.956,,,,,sub-067,120,175,700,bloc_loop.csv,2023-11-09_07h44.56.834,PainUncertainty,2022.2.5,143.9984332965363,
grave,moderee,stimuli/330Hz,stimuli/moderee,bloc_8,prob50_50_4trials.xlsx,3,12,50,50,0,,,,,0,7,7,7,2,0,8,0,,,,,,,,3.8,1340.2495345,1344.0487332,1344.04856536,0.30526370000006864,1344.4929706,1344.4929706,n,0.6856728000000203,1346.8038855000002,1346.8038855000002,28,1.546,,,,,sub-067,120,175,700,bloc_loop.csv,2023-11-09_07h44.56.834,PainUncertainty,2022.2.5,143.9984332965363,
grave,forte,stimuli/330Hz,stimuli/forte,bloc_8,prob50_50_4trials.xlsx,3,12,50,50,0,,,,,0,7,7,7,2,1,9,1,,,,,,,,4.3,1346.8038855000002,1351.1054728000001,1351.1057666599997,0.30458309999994526,1351.5492385999999,1351.5492385999999,m,0.941943499999752,1354.2197431000002,1354.2197431000002,62,1.676,,,,,sub-067,120,175,700,bloc_loop.csv,2023-11-09_07h44.56.834,PainUncertainty,2022.2.5,143.9984332965363,
aigu,forte,stimuli/660Hz,stimuli/forte,bloc_8,prob50_50_4trials.xlsx,3,12,50,50,0,,,,,0,7,7,7,2,2,10,3,,,,,,,,3.1,1354.2197431000002,1357.3213251,1357.3211362599998,0.30496949999997014,1357.7653635,1357.7653635,m,0.8062453000000005,1359.9612324000002,1359.9612324000002,66,1.316,,,,,sub-067,120,175,700,bloc_loop.csv,2023-11-09_07h44.56.834,PainUncertainty,2022.2.5,143.9984332965363,
aigu,moderee,stimuli/660Hz,stimuli/moderee,bloc_8,prob50_50_4trials.xlsx,3,12,50,50,0,,,,,0,7,7,7,2,3,11,2,,,,,,,,4.4,1359.9612324000002,1364.3637191,1364.36348076,0.30474899999990157,1364.8150690999998,1364.8150690999998,n,0.7337549999999737,1366.9448245,1366.9448245,30,1.329,,,,,sub-067,120,175,700,bloc_loop.csv,2023-11-09_07h44.56.834,PainUncertainty,2022.2.5,143.9984332965363,
aigu,moderee,stimuli/660Hz,stimuli/moderee,bloc_9,prob20hthp_12trials.xlsx,3,36,80,20,0,,,,,0,8,8,8,0,0,0,8,,,,,,,,3.3,1366.9448245,1370.2463447000002,1370.2459806599998,0.3052692000001116,1370.6904477,1370.6904477,n,0.7685567000000901,1374.3477902000002,1374.3477902000002,29,2.816,,,,,sub-067,120,175,700,bloc_loop.csv,2023-11-09_07h44.56.834,PainUncertainty,2022.2.5,143.9984332965363,
grave,forte,stimuli/330Hz,stimuli/forte,bloc_9,prob20hthp_12trials.xlsx,3,36,80,20,0,,,,,0,8,8,8,0,1,1,3,,,,,,,,3.5,1374.3477902000002,1377.8514041,1377.8512168599998,0.30495169999994687,1378.2997791,1378.2997791,m,0.7097103999997216,1380.6121503000002,1380.6121503000002,68,1.545,,,,,sub-067,120,175,700,bloc_loop.csv,2023-11-09_07h44.56.834,PainUncertainty,2022.2.5,143.9984332965363,
grave,forte,stimuli/330Hz,stimuli/forte,bloc_9,prob20hthp_12trials.xlsx,3,36,80,20,0,,,,,0,8,8,8,0,2,2,4,,,,,,,,4.4,1380.6121503000002,1385.0120155000002,1385.0117285599997,0.3048721000000114,1385.456411,1385.456411,m,0.7480345999999827,1388.078878,1388.078878,64,1.796,,,,,sub-067,120,175,700,bloc_loop.csv,2023-11-09_07h44.56.834,PainUncertainty,2022.2.5,143.9984332965363,
aigu,moderee,stimuli/660Hz,stimuli/moderee,bloc_9,prob20hthp_12trials.xlsx,3,36,80,20,0,,,,,0,8,8,8,0,3,3,6,,,,,,,,3.7,1388.078878,1391.7835778,1391.7833656599998,0.29954689999976836,1392.2249014000001,1392.2249014000001,n,0.5920816000000286,1394.0874781,1394.0874781,30,1.219,,,,,sub-067,120,175,700,bloc_loop.csv,2023-11-09_07h44.56.834,PainUncertainty,2022.2.5,143.9984332965363,
aigu,moderee,stimuli/660Hz,stimuli/moderee,bloc_9,prob20hthp_12trials.xlsx,3,36,80,20,0,,,,,0,8,8,8,0,4,4,7,,,,,,,,3.2,1394.0874781,1397.2913151999999,1397.29104166,0.30474629999980607,1397.7353351,1397.7353351,n,0.645754899999929,1400.1789563,1400.1789563,30,1.732,,,,,sub-067,120,175,700,bloc_loop.csv,2023-11-09_07h44.56.834,PainUncertainty,2022.2.5,143.9984332965363,
aigu,forte,stimuli/660Hz,stimuli/forte,bloc_9,prob20hthp_12trials.xlsx,3,36,80,20,0,,,,,0,8,8,8,0,5,5,11,,,,,,,,4.8,1400.1789563,1404.9812499000002,1404.97963126,0.30489429999988715,1405.4236846000001,1405.4236846000001,m,1.273709800000006,1408.0907983,1408.0907983,68,1.329,,,,,sub-067,120,175,700,bloc_loop.csv,2023-11-09_07h44.56.834,PainUncertainty,2022.2.5,143.9984332965363,
grave,forte,stimuli/330Hz,stimuli/forte,bloc_9,prob20hthp_12trials.xlsx,3,36,80,20,0,,,,,0,8,8,8,0,6,6,2,,,,,,,,3.3,1408.0907983,1411.3900016999999,1411.3898833599999,0.29924839999966935,1411.8287358999999,1411.8287358999999,m,1.1088034000001699,1414.6161278000002,1414.6161278000002,73,1.602,,,,,sub-067,120,175,700,bloc_loop.csv,2023-11-09_07h44.56.834,PainUncertainty,2022.2.5,143.9984332965363,
aigu,moderee,stimuli/660Hz,stimuli/moderee,bloc_9,prob20hthp_12trials.xlsx,3,36,80,20,0,,,,,0,8,8,8,0,7,7,10,,,,,,,,3,1414.6161278000002,1417.6199508000002,1417.6198671599998,0.304865399999926,1418.0645513000002,1418.0645513000002,n,0.5836532000000716,1419.4407714000001,1419.4407714000001,30,0.74,,,,,sub-067,120,175,700,bloc_loop.csv,2023-11-09_07h44.56.834,PainUncertainty,2022.2.5,143.9984332965363,
grave,moderee,stimuli/330Hz,stimuli/moderee,bloc_9,prob20hthp_12trials.xlsx,3,36,80,20,0,,,,,0,8,8,8,0,8,8,5,,,,,,,,3.1,1419.4407714000001,1422.54411,1422.54401626,0.3049591999997574,1422.9883879000001,1422.9883879000001,n,0.6581724999998642,1425.658839,1425.658839,26,1.963,,,,,sub-067,120,175,700,bloc_loop.csv,2023-11-09_07h44.56.834,PainUncertainty,2022.2.5,143.9984332965363,
aigu,moderee,stimuli/660Hz,stimuli/moderee,bloc_9,prob20hthp_12trials.xlsx,3,36,80,20,0,,,,,0,8,8,8,0,9,9,9,,,,,,,,3.9,1425.658839,1429.5595206,1429.5599523600001,0.30607659999986936,1430.010658,1430.010658,n,0.9391457999997783,1433.0139224000002,1433.0139224000002,27,1.984,,,,,sub-067,120,175,700,bloc_loop.csv,2023-11-09_07h44.56.834,PainUncertainty,2022.2.5,143.9984332965363,
grave,forte,stimuli/330Hz,stimuli/forte,bloc_9,prob20hthp_12trials.xlsx,3,36,80,20,0,,,,,0,8,8,8,0,10,10,0,,,,,,,,5,1433.0139224000002,1438.0186704999999,1438.01862366,0.3046388999996452,1438.4623553,1438.4623553,m,0.5643701000001329,1440.0152842999998,1440.0152842999998,67,0.927,,,,,sub-067,120,175,700,bloc_loop.csv,2023-11-09_07h44.56.834,PainUncertainty,2022.2.5,143.9984332965363,
grave,forte,stimuli/330Hz,stimuli/forte,bloc_9,prob20hthp_12trials.xlsx,3,36,80,20,0,,,,,0,8,8,8,0,11,11,1,,,,,,,,4.8,1440.0152842999998,1444.8175913000002,1444.81758776,0.30483449999974255,1445.2617232,1445.2617232,m,0.8111531000001833,1450.5504207000001,1450.5504207000001,63,4.415,,,,,sub-067,120,175,700,bloc_loop.csv,2023-11-09_07h44.56.834,PainUncertainty,2022.2.5,143.9984332965363,
grave,forte,stimuli/330Hz,stimuli/forte,bloc_9,prob20hthp_12trials.xlsx,3,36,80,20,0,,,,,0,8,8,8,1,0,12,0,,,,,,,,4.9,1450.5504207000001,1455.4508790000002,1455.45064686,0.3010092999998051,1455.8955199999998,1455.8955199999998,m,0.7400411000000986,1458.2536134999998,1458.2536134999998,67,1.566,,,,,sub-067,120,175,700,bloc_loop.csv,2023-11-09_07h44.56.834,PainUncertainty,2022.2.5,143.9984332965363,
grave,forte,stimuli/330Hz,stimuli/forte,bloc_9,prob20hthp_12trials.xlsx,3,36,80,20,0,,,,,0,8,8,8,1,1,13,2,,,,,,,,3.3,1458.2536134999998,1461.5557774000001,1461.5555293599998,0.3049226000002818,1461.9998326000002,1461.9998326000002,m,0.8359585999999126,1465.3669168,1465.3669168,62,2.477,,,,,sub-067,120,175,700,bloc_loop.csv,2023-11-09_07h44.56.834,PainUncertainty,2022.2.5,143.9984332965363,
grave,forte,stimuli/330Hz,stimuli/forte,bloc_9,prob20hthp_12trials.xlsx,3,36,80,20,0,,,,,0,8,8,8,1,2,14,1,,,,,,,,3.5,1465.3669168,1468.8689989000002,1468.8688820599998,0.30165160000024116,1469.3140767000002,1469.3140767000002,m,0.6559289999997873,1471.4270475,1471.4270475,65,1.378,,,,,sub-067,120,175,700,bloc_loop.csv,2023-11-09_07h44.56.834,PainUncertainty,2022.2.5,143.9984332965363,
grave,moderee,stimuli/330Hz,stimuli/moderee,bloc_9,prob20hthp_12trials.xlsx,3,36,80,20,0,,,,,0,8,8,8,1,3,15,5,,,,,,,,4,1471.4270475,1475.4323536999998,1475.43209916,0.3052652000001217,1475.8764999000002,1475.8764999000002,n,0.5959852999997111,1478.1411931,1478.1411931,22,1.594,,,,,sub-067,120,175,700,bloc_loop.csv,2023-11-09_07h44.56.834,PainUncertainty,2022.2.5,143.9984332965363,
aigu,forte,stimuli/660Hz,stimuli/forte,bloc_9,prob20hthp_12trials.xlsx,3,36,80,20,0,,,,,0,8,8,8,1,4,16,11,,,,,,,,3.2,1478.1411931,1481.3430480999998,1481.3427713599997,0.3053443000003426,1481.7904913999998,1481.7904913999998,m,0.7868697000001248,1483.4965363,1483.4965363,60,0.837,,,,,sub-067,120,175,700,bloc_loop.csv,2023-11-09_07h44.56.834,PainUncertainty,2022.2.5,143.9984332965363,
aigu,moderee,stimuli/660Hz,stimuli/moderee,bloc_9,prob20hthp_12trials.xlsx,3,36,80,20,0,,,,,0,8,8,8,1,5,17,8,,,,,,,,4.6,1483.4965363,1488.1009127999998,1488.10105246,0.3008404000001974,1488.5452152999999,1488.5452152999999,n,0.6770024999998441,1491.4903434999999,1491.4903434999999,29,2.213,,,,,sub-067,120,175,700,bloc_loop.csv,2023-11-09_07h44.56.834,PainUncertainty,2022.2.5,143.9984332965363,
aigu,moderee,stimuli/660Hz,stimuli/moderee,bloc_9,prob20hthp_12trials.xlsx,3,36,80,20,0,,,,,0,8,8,8,1,6,18,6,,,,,,,,3.9,1491.4903434999999,1495.3933694999998,1495.39323356,0.2993516000001364,1495.8343613999998,1495.8343613999998,n,0.6815419999995811,1498.0593591,1498.0593591,23,1.483,,,,,sub-067,120,175,700,bloc_loop.csv,2023-11-09_07h44.56.834,PainUncertainty,2022.2.5,143.9984332965363,
aigu,moderee,stimuli/660Hz,stimuli/moderee,bloc_9,prob20hthp_12trials.xlsx,3,36,80,20,0,,,,,0,8,8,8,1,7,19,9,,,,,,,,3.7,1498.0593591,1501.7623280999999,1501.76202016,0.30492969999977504,1502.2062337,1502.2062337,n,0.8048709000001963,1504.6619466,1504.6619466,22,1.573,,,,,sub-067,120,175,700,bloc_loop.csv,2023-11-09_07h44.56.834,PainUncertainty,2022.2.5,143.9984332965363,
grave,forte,stimuli/330Hz,stimuli/forte,bloc_9,prob20hthp_12trials.xlsx,3,36,80,20,0,,,,,0,8,8,8,1,8,20,3,,,,,,,,3.7,1504.6619466,1508.3667272,1508.3665082599998,0.30525459999989835,1508.8109582,1508.8109582,m,1.4201136999997743,1511.9188325000002,1511.9188325000002,64,1.615,,,,,sub-067,120,175,700,bloc_loop.csv,2023-11-09_07h44.56.834,PainUncertainty,2022.2.5,143.9984332965363,
aigu,moderee,stimuli/660Hz,stimuli/moderee,bloc_9,prob20hthp_12trials.xlsx,3,36,80,20,0,,,,,0,8,8,8,1,9,21,7,,,,,,,,3.7,1511.9188325000002,1515.624592,1515.62436666,0.30495509999991555,1516.0725381,1516.0725381,n,0.6851544999997259,1519.2737803000002,1519.2737803000002,25,2.434,,,,,sub-067,120,175,700,bloc_loop.csv,2023-11-09_07h44.56.834,PainUncertainty,2022.2.5,143.9984332965363,
grave,forte,stimuli/330Hz,stimuli/forte,bloc_9,prob20hthp_12trials.xlsx,3,36,80,20,0,,,,,0,8,8,8,1,10,22,4,,,,,,,,4.6,1519.2737803000002,1523.8754098000002,1523.87524466,0.30525570000008884,1524.3197069999999,1524.3197069999999,m,1.1321952000000692,1526.2885402,1526.2885402,67,0.76,,,,,sub-067,120,175,700,bloc_loop.csv,2023-11-09_07h44.56.834,PainUncertainty,2022.2.5,143.9984332965363,
aigu,moderee,stimuli/660Hz,stimuli/moderee,bloc_9,prob20hthp_12trials.xlsx,3,36,80,20,0,,,,,0,8,8,8,1,11,23,10,,,,,,,,4.4,1526.2885402,1530.6893026,1530.68908256,0.30505489999995916,1531.1375105999998,1531.1375105999998,n,1.118720099999564,1533.8817027000002,1533.8817027000002,24,1.572,,,,,sub-067,120,175,700,bloc_loop.csv,2023-11-09_07h44.56.834,PainUncertainty,2022.2.5,143.9984332965363,
aigu,moderee,stimuli/660Hz,stimuli/moderee,bloc_9,prob20hthp_12trials.xlsx,3,36,80,20,0,,,,,0,8,8,8,2,0,24,10,,,,,,,,4,1533.8817027000002,1537.8841086999998,1537.8840714599999,0.30481360000021596,1538.3283184,1538.3283184,n,0.6339620999999624,1540.1486942,1540.1486942,26,1.113,,,,,sub-067,120,175,700,bloc_loop.csv,2023-11-09_07h44.56.834,PainUncertainty,2022.2.5,143.9984332965363,
aigu,forte,stimuli/660Hz,stimuli/forte,bloc_9,prob20hthp_12trials.xlsx,3,36,80,20,0,,,,,0,8,8,8,2,1,25,11,,,,,,,,3.5,1540.1486942,1543.648657,1543.6484052600001,0.30509040000015375,1544.0929715999998,1544.0929715999998,m,1.1089987000002566,1548.2532478,1548.2532478,67,2.997,,,,,sub-067,120,175,700,bloc_loop.csv,2023-11-09_07h44.56.834,PainUncertainty,2022.2.5,143.9984332965363,
grave,forte,stimuli/330Hz,stimuli/forte,bloc_9,prob20hthp_12trials.xlsx,3,36,80,20,0,,,,,0,8,8,8,2,2,26,1,,,,,,,,3.9,1548.2532478,1552.1573543000002,1552.1569757599998,0.30488119999972696,1552.6008895000002,1552.6008895000002,m,0.6646674000000985,1554.6948624,1554.6948624,70,1.378,,,,,sub-067,120,175,700,bloc_loop.csv,2023-11-09_07h44.56.834,PainUncertainty,2022.2.5,143.9984332965363,
grave,forte,stimuli/330Hz,stimuli/forte,bloc_9,prob20hthp_12trials.xlsx,3,36,80,20,0,,,,,0,8,8,8,2,3,27,4,,,,,,,,3.4,1554.6948624,1558.0948658,1558.0946656599997,0.305254800000057,1558.5415114999998,1558.5415114999998,m,0.5587237999995978,1560.6904917999998,1560.6904917999998,69,1.511,,,,,sub-067,120,175,700,bloc_loop.csv,2023-11-09_07h44.56.834,PainUncertainty,2022.2.5,143.9984332965363,
aigu,moderee,stimuli/660Hz,stimuli/moderee,bloc_9,prob20hthp_12trials.xlsx,3,36,80,20,0,,,,,0,8,8,8,2,4,28,9,,,,,,,,4.5,1560.6904917999998,1565.1933444,1565.19489916,0.30312770000000455,1565.6370401000001,1565.6370401000001,n,1.4597549999996318,1568.0429241,1568.0429241,30,0.892,,,,,sub-067,120,175,700,bloc_loop.csv,2023-11-09_07h44.56.834,PainUncertainty,2022.2.5,143.9984332965363,
aigu,moderee,stimuli/660Hz,stimuli/moderee,bloc_9,prob20hthp_12trials.xlsx,3,36,80,20,0,,,,,0,8,8,8,2,5,29,7,,,,,,,,4.9,1568.0429241,1572.9443149,1572.94398016,0.305146600000171,1573.3921965000002,1573.3921965000002,n,1.0900874999999814,1576.4036107999998,1576.4036107999998,30,1.862,,,,,sub-067,120,175,700,bloc_loop.csv,2023-11-09_07h44.56.834,PainUncertainty,2022.2.5,143.9984332965363,
aigu,moderee,stimuli/660Hz,stimuli/moderee,bloc_9,prob20hthp_12trials.xlsx,3,36,80,20,0,,,,,0,8,8,8,2,6,30,8,,,,,,,,3.1,1576.4036107999998,1579.5071378999999,1579.50688646,0.2991784999999254,1579.9452380999999,1579.9452380999999,n,0.7149420999996892,1581.8868507999998,1581.8868507999998,30,1.17,,,,,sub-067,120,175,700,bloc_loop.csv,2023-11-09_07h44.56.834,PainUncertainty,2022.2.5,143.9984332965363,
grave,moderee,stimuli/330Hz,stimuli/moderee,bloc_9,prob20hthp_12trials.xlsx,3,36,80,20,0,,,,,0,8,8,8,2,7,31,5,,,,,,,,3.5,1581.8868507999998,1585.3900409,1585.3899509599999,0.3046983999997792,1585.8340802999999,1585.8340802999999,m,1.6594791999998506,1589.8325796000001,1589.8325796000001,55,2.275,,,,,sub-067,120,175,700,bloc_loop.csv,2023-11-09_07h44.56.834,PainUncertainty,2022.2.5,143.9984332965363,
grave,forte,stimuli/330Hz,stimuli/forte,bloc_9,prob20hthp_12trials.xlsx,3,36,80,20,0,,,,,0,8,8,8,2,8,32,3,,,,,,,,4.7,1589.8325796000001,1594.5365991,1594.5363996599997,0.30513669999982085,1594.9809582999999,1594.9809582999999,m,0.772641799999974,1598.5914974,1598.5914974,57,2.774,,,,,sub-067,120,175,700,bloc_loop.csv,2023-11-09_07h44.56.834,PainUncertainty,2022.2.5,143.9984332965363,
grave,forte,stimuli/330Hz,stimuli/forte,bloc_9,prob20hthp_12trials.xlsx,3,36,80,20,0,,,,,0,8,8,8,2,9,33,2,,,,,,,,3,1598.5914974,1601.5930424,1601.59277666,0.30510759999970105,1602.040835,1602.040835,m,0.6647106999996595,1603.4512255000002,1603.4512255000002,60,0.671,,,,,sub-067,120,175,700,bloc_loop.csv,2023-11-09_07h44.56.834,PainUncertainty,2022.2.5,143.9984332965363,
aigu,moderee,stimuli/660Hz,stimuli/moderee,bloc_9,prob20hthp_12trials.xlsx,3,36,80,20,0,,,,,0,8,8,8,2,10,34,6,,,,,,,,5,1603.4512255000002,1608.4553572000002,1608.45512416,0.3047524999997222,1608.8990224000001,1608.8990224000001,n,0.6421745000000101,1610.5647861999998,1610.5647861999998,29,0.949,,,,,sub-067,120,175,700,bloc_loop.csv,2023-11-09_07h44.56.834,PainUncertainty,2022.2.5,143.9984332965363,
grave,forte,stimuli/330Hz,stimuli/forte,bloc_9,prob20hthp_12trials.xlsx,3,36,80,20,0,,,,,0,8,8,8,2,11,35,0,,,,,,,,4.7,1610.5647861999998,1615.2682618000001,1615.26809846,0.3048550999997133,1615.7126288000002,1615.7126288000002,m,0.6353194999999232,1617.0719731000002,1617.0719731000002,60,0.699,,,,,sub-067,120,175,700,bloc_loop.csv,2023-11-09_07h44.56.834,PainUncertainty,2022.2.5,143.9984332965363,
