cue_,stimulus_,cue_fichier,stimulus_fichier,block_name,block_trials_file,block_n_reps,block_ntrials,block_prob_highP_highT,block_prob_highP_lowT,block_pause_after,Bloc_essai.thisRepN,Bloc_essai.thisTrialN,Bloc_essai.thisN,Bloc_essai.thisIndex,blocks.thisRepN,blocks.thisTrialN,blocks.thisN,blocks.thisIndex,trials.thisRepN,trials.thisTrialN,trials.thisN,trials.thisIndex,pause_loop.thisRepN,pause_loop.thisTrialN,pause_loop.thisN,pause_loop.thisIndex,key_resp_5.started,start_calib.started,key_resp_2.started,ISI_duration,pause.started,pause.stopped,cue.started,ISI.started,choice_pain.started,Choice.started,choice_pain.keys,choice_pain.rt,main_text.started,confirm_text.started,ratingScale.response,ratingScale.rt,key_resp_3.started,key_resp_6.started,participant,low_ma,high_ma,failsafe_ma,block_file,date,expName,psychopyVersion,frameRate,
aigu,forte,stimuli/660Hz,stimuli/forte,,,,,,,,0,0,0,3,,,,,,,,,,,,,22.922790899999654,231.5412953,294.4170902999999,3.5,297.48975440000004,301.0024226999999,301.00126493999994,0.3030613999999332,301.4386632999999,301.4386632999999,m,0.8848849999999402,304.64547919999995,304.64547919999995,40,2.262,,,sub-042,30,60,700,bloc_loop.csv,2023-08-21_16h48.05.711,PainUncertainty,2022.2.5,143.45432270908012,
aigu,moderee,stimuli/660Hz,stimuli/moderee,,,,,,,,0,1,1,2,,,,,,,,,,,,,,,,3.9,304.64547919999995,308.55178479999995,308.55090641999976,0.30020650000005844,308.9966634999996,308.9966634999996,n,0.7321845000001304,312.52673079999977,312.52673079999977,9,2.746,,,sub-042,30,60,700,bloc_loop.csv,2023-08-21_16h48.05.711,PainUncertainty,2022.2.5,143.45432270908012,
grave,moderee,stimuli/330Hz,stimuli/moderee,,,,,,,,0,2,2,0,,,,,,,,,,,,,,,,3.6,312.52673079999977,316.1295763999997,316.13468744,0.29922750000014275,316.5662603999999,316.5662603999999,n,1.2498564000002261,321.9122494999997,321.9122494999997,9,4.046,,,sub-042,30,60,700,bloc_loop.csv,2023-08-21_16h48.05.711,PainUncertainty,2022.2.5,143.45432270908012,
grave,forte,stimuli/330Hz,stimuli/forte,,,,,,,,0,3,3,1,,,,,,,,,,,,,,,,5,321.9122494999997,326.91407439999966,326.9139978199998,0.3048834999999599,327.3654781,327.3654781,m,0.7495889000001625,330.4695907,330.4695907,36,2.331,,,sub-042,30,60,700,bloc_loop.csv,2023-08-21_16h48.05.711,PainUncertainty,2022.2.5,143.45432270908012,
aigu,forte,stimuli/660Hz,stimuli/forte,bloc_1,prob20hthp_12trials.xlsx,4,48,20,80,0,,,,,0,0,0,0,0,0,0,11,,,,,,,,3.9,356.77947959999983,360.6822196999997,360.68196961999973,0.3050944999999956,361.1262531999996,361.1262531999996,m,0.9617716000002474,363.87550199999987,363.87550199999987,39,1.733,,,sub-042,30,60,700,bloc_loop.csv,2023-08-21_16h48.05.711,PainUncertainty,2022.2.5,143.45432270908012,
grave,forte,stimuli/330Hz,stimuli/forte,bloc_1,prob20hthp_12trials.xlsx,4,48,20,80,0,,,,,0,0,0,0,0,1,1,3,,,,,,,,4.6,363.87550199999987,368.47473549999995,368.4746971199999,0.3050162999998065,368.9192668999999,368.9192668999999,m,0.646641499999987,371.74216899999965,371.74216899999965,35,2.116,,,sub-042,30,60,700,bloc_loop.csv,2023-08-21_16h48.05.711,PainUncertainty,2022.2.5,143.45432270908012,
aigu,moderee,stimuli/660Hz,stimuli/moderee,bloc_1,prob20hthp_12trials.xlsx,4,48,20,80,0,,,,,0,0,0,0,0,2,2,6,,,,,,,,3,371.74216899999965,374.7462478999996,374.7460997199998,0.3051183000002311,375.19069869999976,375.19069869999976,n,0.5686584000000039,378.9042513999998,378.9042513999998,12,3.095,,,sub-042,30,60,700,bloc_loop.csv,2023-08-21_16h48.05.711,PainUncertainty,2022.2.5,143.45432270908012,
grave,moderee,stimuli/330Hz,stimuli/moderee,bloc_1,prob20hthp_12trials.xlsx,4,48,20,80,0,,,,,0,0,0,0,0,3,3,5,,,,,,,,3.8,378.9042513999998,382.7060981999998,382.70585771999976,0.3048352999999224,383.15020000000004,383.15020000000004,n,0.4942378999999164,385.1390471999998,385.1390471999998,11,1.426,,,sub-042,30,60,700,bloc_loop.csv,2023-08-21_16h48.05.711,PainUncertainty,2022.2.5,143.45432270908012,
grave,forte,stimuli/330Hz,stimuli/forte,bloc_1,prob20hthp_12trials.xlsx,4,48,20,80,0,,,,,0,0,0,0,0,4,4,2,,,,,,,,4.5,385.1390471999998,389.64399000000003,389.64374732000005,0.3051832999999533,390.08814829999983,390.08814829999983,m,0.5816949999998542,392.36555369999996,392.36555369999996,35,1.629,,,sub-042,30,60,700,bloc_loop.csv,2023-08-21_16h48.05.711,PainUncertainty,2022.2.5,143.45432270908012,
aigu,moderee,stimuli/660Hz,stimuli/moderee,bloc_1,prob20hthp_12trials.xlsx,4,48,20,80,0,,,,,0,0,0,0,0,5,5,9,,,,,,,,3.8,392.36555369999996,396.1655907999998,396.16546971999986,0.3050263999998606,396.6137051999999,396.6137051999999,n,0.594361100000242,400.47080129999995,400.47080129999995,4,3.193,,,sub-042,30,60,700,bloc_loop.csv,2023-08-21_16h48.05.711,PainUncertainty,2022.2.5,143.45432270908012,
aigu,moderee,stimuli/660Hz,stimuli/moderee,bloc_1,prob20hthp_12trials.xlsx,4,48,20,80,0,,,,,0,0,0,0,0,6,6,8,,,,,,,,4.2,400.47080129999995,404.6734604999997,404.6733604199996,0.30044720000023517,405.1184238999999,405.1184238999999,n,0.5898566000000756,410.18828779999967,410.18828779999967,4,4.421,,,sub-042,30,60,700,bloc_loop.csv,2023-08-21_16h48.05.711,PainUncertainty,2022.2.5,143.45432270908012,
grave,forte,stimuli/330Hz,stimuli/forte,bloc_1,prob20hthp_12trials.xlsx,4,48,20,80,0,,,,,0,0,0,0,0,7,7,1,,,,,,,,4.8,410.18828779999967,414.99429199999986,414.9940545199999,0.30513180000025386,415.4384187999999,415.4384187999999,m,0.611037000000124,418.5489634999999,418.5489634999999,31,2.448,,,sub-042,30,60,700,bloc_loop.csv,2023-08-21_16h48.05.711,PainUncertainty,2022.2.5,143.45432270908012,
grave,forte,stimuli/330Hz,stimuli/forte,bloc_1,prob20hthp_12trials.xlsx,4,48,20,80,0,,,,,0,0,0,0,0,8,8,4,,,,,,,,3.4,418.5489634999999,421.95338319999973,421.95321622,0.30524200000036217,422.39745859999994,422.39745859999994,m,0.8724680000000262,426.30307969999967,426.30307969999967,38,2.976,,,sub-042,30,60,700,bloc_loop.csv,2023-08-21_16h48.05.711,PainUncertainty,2022.2.5,143.45432270908012,
grave,forte,stimuli/330Hz,stimuli/forte,bloc_1,prob20hthp_12trials.xlsx,4,48,20,80,0,,,,,0,0,0,0,0,9,9,0,,,,,,,,5,426.30307969999967,431.30855189999966,431.30849321999966,0.3051517999997486,431.7528275999998,431.7528275999998,m,0.702952600000117,433.96056409999983,433.96056409999983,37,1.447,,,sub-042,30,60,700,bloc_loop.csv,2023-08-21_16h48.05.711,PainUncertainty,2022.2.5,143.45432270908012,
aigu,moderee,stimuli/660Hz,stimuli/moderee,bloc_1,prob20hthp_12trials.xlsx,4,48,20,80,0,,,,,0,0,0,0,0,10,10,7,,,,,,,,3.8,433.96056409999983,437.7609253999999,437.7607313199998,0.3015074999998433,438.2056785,438.2056785,n,0.5401443000000654,440.4831473999998,440.4831473999998,5,1.677,,,sub-042,30,60,700,bloc_loop.csv,2023-08-21_16h48.05.711,PainUncertainty,2022.2.5,143.45432270908012,
aigu,moderee,stimuli/660Hz,stimuli/moderee,bloc_1,prob20hthp_12trials.xlsx,4,48,20,80,0,,,,,0,0,0,0,0,11,11,10,,,,,,,,4.3,440.4831473999998,444.78252329999987,444.78231571999976,0.30536179999990054,445.2271827999998,445.2271827999998,n,0.5003320000000713,446.86149439999963,446.86149439999963,7,1.086,,,sub-042,30,60,700,bloc_loop.csv,2023-08-21_16h48.05.711,PainUncertainty,2022.2.5,143.45432270908012,
grave,forte,stimuli/330Hz,stimuli/forte,bloc_1,prob20hthp_12trials.xlsx,4,48,20,80,0,,,,,0,0,0,0,1,0,12,0,,,,,,,,4.2,446.86149439999963,451.0615206999996,451.0613305199997,0.3049470000000838,451.5055927999997,451.5055927999997,m,0.5480176999999458,454.0553071999998,454.0553071999998,40,1.947,,,sub-042,30,60,700,bloc_loop.csv,2023-08-21_16h48.05.711,PainUncertainty,2022.2.5,143.45432270908012,
aigu,moderee,stimuli/660Hz,stimuli/moderee,bloc_1,prob20hthp_12trials.xlsx,4,48,20,80,0,,,,,0,0,0,0,1,1,13,10,,,,,,,,3.2,454.0553071999998,457.2562241999999,457.25620901999963,0.3054919000001064,457.70472979999977,457.70472979999977,n,0.44825619999983246,459.98685049999995,459.98685049999995,4,1.776,,,sub-042,30,60,700,bloc_loop.csv,2023-08-21_16h48.05.711,PainUncertainty,2022.2.5,143.45432270908012,
aigu,moderee,stimuli/660Hz,stimuli/moderee,bloc_1,prob20hthp_12trials.xlsx,4,48,20,80,0,,,,,0,0,0,0,1,2,14,8,,,,,,,,3.7,459.98685049999995,463.68767449999996,463.68757641999963,0.3047124999998232,464.1317872999998,464.1317872999998,n,0.5876047000001563,468.76338699999997,468.76338699999997,7,3.983,,,sub-042,30,60,700,bloc_loop.csv,2023-08-21_16h48.05.711,PainUncertainty,2022.2.5,143.45432270908012,
grave,moderee,stimuli/330Hz,stimuli/moderee,bloc_1,prob20hthp_12trials.xlsx,4,48,20,80,0,,,,,0,0,0,0,1,3,15,5,,,,,,,,4.6,468.76338699999997,473.3692871999997,473.36914271999984,0.3053644000001441,473.8135263999998,473.8135263999998,n,0.6209967999998298,478.56286339999997,478.56286339999997,3,4.062,,,sub-042,30,60,700,bloc_loop.csv,2023-08-21_16h48.05.711,PainUncertainty,2022.2.5,143.45432270908012,
grave,forte,stimuli/330Hz,stimuli/forte,bloc_1,prob20hthp_12trials.xlsx,4,48,20,80,0,,,,,0,0,0,0,1,4,16,4,,,,,,,,4,478.56286339999997,482.5649687,482.5649330199996,0.30487310000034995,483.01314939999975,483.01314939999975,m,0.5825388999996903,485.74066589999984,485.74066589999984,41,2.095,,,sub-042,30,60,700,bloc_loop.csv,2023-08-21_16h48.05.711,PainUncertainty,2022.2.5,143.45432270908012,
aigu,forte,stimuli/660Hz,stimuli/forte,bloc_1,prob20hthp_12trials.xlsx,4,48,20,80,0,,,,,0,0,0,0,1,5,17,11,,,,,,,,3.8,485.74066589999984,489.5453639999996,489.54547101999987,0.3047130999998444,489.99383979999993,489.99383979999993,n,0.6455637999997634,493.65410569999995,493.65410569999995,41,2.955,,,sub-042,30,60,700,bloc_loop.csv,2023-08-21_16h48.05.711,PainUncertainty,2022.2.5,143.45432270908012,
aigu,moderee,stimuli/660Hz,stimuli/moderee,bloc_1,prob20hthp_12trials.xlsx,4,48,20,80,0,,,,,0,0,0,0,1,6,18,7,,,,,,,,4.5,493.65410569999995,498.1571077999997,498.15703581999986,0.3049310000001242,498.6015834,498.6015834,n,0.49973399999998946,501.82496619999984,501.82496619999984,6,2.662,,,sub-042,30,60,700,bloc_loop.csv,2023-08-21_16h48.05.711,PainUncertainty,2022.2.5,143.45432270908012,
grave,forte,stimuli/330Hz,stimuli/forte,bloc_1,prob20hthp_12trials.xlsx,4,48,20,80,0,,,,,0,0,0,0,1,7,19,3,,,,,,,,4.1,501.82496619999984,505.92893649999996,505.92884582000005,0.3051908000002186,506.3769579,506.3769579,m,0.6968403999999282,509.5448438999997,509.5448438999997,39,2.414,,,sub-042,30,60,700,bloc_loop.csv,2023-08-21_16h48.05.711,PainUncertainty,2022.2.5,143.45432270908012,
aigu,moderee,stimuli/660Hz,stimuli/moderee,bloc_1,prob20hthp_12trials.xlsx,4,48,20,80,0,,,,,0,0,0,0,1,8,20,6,,,,,,,,4.7,509.5448438999997,514.2497306999999,514.2495805199999,0.30520419999993464,514.6962171999999,514.6962171999999,n,0.5988131999997677,518.4505998999998,518.4505998999998,5,3.093,,,sub-042,30,60,700,bloc_loop.csv,2023-08-21_16h48.05.711,PainUncertainty,2022.2.5,143.45432270908012,
grave,forte,stimuli/330Hz,stimuli/forte,bloc_1,prob20hthp_12trials.xlsx,4,48,20,80,0,,,,,0,0,0,0,1,9,21,2,,,,,,,,3.2,518.4505998999998,521.6533095,521.6533214199997,0.30469200000015917,522.0972127,522.0972127,m,0.6801522000000659,524.1886059999997,524.1886059999997,38,1.35,,,sub-042,30,60,700,bloc_loop.csv,2023-08-21_16h48.05.711,PainUncertainty,2022.2.5,143.45432270908012,
aigu,moderee,stimuli/660Hz,stimuli/moderee,bloc_1,prob20hthp_12trials.xlsx,4,48,20,80,0,,,,,0,0,0,0,1,10,22,9,,,,,,,,4.6,524.1886059999997,528.7930466999996,528.79291902,0.30511509999996633,529.2412743,529.2412743,n,0.6226238999997804,532.1180319,532.1180319,5,2.19,,,sub-042,30,60,700,bloc_loop.csv,2023-08-21_16h48.05.711,PainUncertainty,2022.2.5,143.45432270908012,
grave,forte,stimuli/330Hz,stimuli/forte,bloc_1,prob20hthp_12trials.xlsx,4,48,20,80,0,,,,,0,0,0,0,1,11,23,1,,,,,,,,4.7,532.1180319,536.821739,536.8237999199998,0.302872500000376,537.2656816999997,537.2656816999997,m,0.7676040999999714,540.3669643999997,540.3669643999997,41,2.275,,,sub-042,30,60,700,bloc_loop.csv,2023-08-21_16h48.05.711,PainUncertainty,2022.2.5,143.45432270908012,
aigu,moderee,stimuli/660Hz,stimuli/moderee,bloc_1,prob20hthp_12trials.xlsx,4,48,20,80,0,,,,,0,0,0,0,2,0,24,9,,,,,,,,4.5,540.3669643999997,544.8711252999997,544.8709834199997,0.30501849999973274,545.3155244,545.3155244,n,0.5892441999999392,549.1589962999997,549.1589962999997,2,3.166,,,sub-042,30,60,700,bloc_loop.csv,2023-08-21_16h48.05.711,PainUncertainty,2022.2.5,143.45432270908012,
aigu,moderee,stimuli/660Hz,stimuli/moderee,bloc_1,prob20hthp_12trials.xlsx,4,48,20,80,0,,,,,0,0,0,0,2,1,25,7,,,,,,,,3.1,549.1589962999997,552.2608950999997,552.2608147200001,0.3049906999999621,552.7052128999999,552.7052128999999,n,0.9639013000000887,557.2006904999998,557.2006904999998,3,3.47,,,sub-042,30,60,700,bloc_loop.csv,2023-08-21_16h48.05.711,PainUncertainty,2022.2.5,143.45432270908012,
grave,forte,stimuli/330Hz,stimuli/forte,bloc_1,prob20hthp_12trials.xlsx,4,48,20,80,0,,,,,0,0,0,0,2,2,26,4,,,,,,,,4,557.2006904999998,561.2063937999997,561.20622402,0.30519319999984873,561.6508949999998,561.6508949999998,m,0.5800692000002527,563.7725014999996,563.7725014999996,42,1.483,,,sub-042,30,60,700,bloc_loop.csv,2023-08-21_16h48.05.711,PainUncertainty,2022.2.5,143.45432270908012,
grave,forte,stimuli/330Hz,stimuli/forte,bloc_1,prob20hthp_12trials.xlsx,4,48,20,80,0,,,,,0,0,0,0,2,3,27,0,,,,,,,,4.5,563.7725014999996,568.2773008999998,568.2771208199999,0.3046660999998494,568.7212175,568.7212175,m,0.6789223000000675,571.1888796999997,571.1888796999997,41,1.734,,,sub-042,30,60,700,bloc_loop.csv,2023-08-21_16h48.05.711,PainUncertainty,2022.2.5,143.45432270908012,
grave,forte,stimuli/330Hz,stimuli/forte,bloc_1,prob20hthp_12trials.xlsx,4,48,20,80,0,,,,,0,0,0,0,2,4,28,1,,,,,,,,4.9,571.1888796999997,576.0906112999996,576.0903719199998,0.30478320000020176,576.5343319999997,576.5343319999997,m,0.4956496999998308,578.9110609999998,578.9110609999998,41,1.822,,,sub-042,30,60,700,bloc_loop.csv,2023-08-21_16h48.05.711,PainUncertainty,2022.2.5,143.45432270908012,
aigu,moderee,stimuli/660Hz,stimuli/moderee,bloc_1,prob20hthp_12trials.xlsx,4,48,20,80,0,,,,,0,0,0,0,2,5,29,8,,,,,,,,3,578.9110609999998,581.9103021999999,581.9102847199999,0.3054305000000568,582.3544872999996,582.3544872999996,n,0.3582894999999553,585.0169824999998,585.0169824999998,5,2.254,,,sub-042,30,60,700,bloc_loop.csv,2023-08-21_16h48.05.711,PainUncertainty,2022.2.5,143.45432270908012,
grave,forte,stimuli/330Hz,stimuli/forte,bloc_1,prob20hthp_12trials.xlsx,4,48,20,80,0,,,,,0,0,0,0,2,6,30,2,,,,,,,,4.4,585.0169824999998,589.4181202,589.41804312,0.3055106000001615,589.8664792,589.8664792,m,0.713955199999873,592.6605159999999,592.6605159999999,39,2.018,,,sub-042,30,60,700,bloc_loop.csv,2023-08-21_16h48.05.711,PainUncertainty,2022.2.5,143.45432270908012,
aigu,forte,stimuli/660Hz,stimuli/forte,bloc_1,prob20hthp_12trials.xlsx,4,48,20,80,0,,,,,0,0,0,0,2,7,31,11,,,,,,,,3.6,592.6605159999999,596.2663282999997,596.2661273199999,0.29968349999990096,596.7093875,596.7093875,m,0.8137368999996397,600.0286987999998,600.0286987999998,37,2.456,,,sub-042,30,60,700,bloc_loop.csv,2023-08-21_16h48.05.711,PainUncertainty,2022.2.5,143.45432270908012,
aigu,moderee,stimuli/660Hz,stimuli/moderee,bloc_1,prob20hthp_12trials.xlsx,4,48,20,80,0,,,,,0,0,0,0,2,8,32,6,,,,,,,,4.3,600.0286987999998,604.3298679,604.3297587199997,0.30468140000039057,604.7781716999998,604.7781716999998,n,0.5217791000000034,608.9665464999998,608.9665464999998,3,3.602,,,sub-042,30,60,700,bloc_loop.csv,2023-08-21_16h48.05.711,PainUncertainty,2022.2.5,143.45432270908012,
grave,moderee,stimuli/330Hz,stimuli/moderee,bloc_1,prob20hthp_12trials.xlsx,4,48,20,80,0,,,,,0,0,0,0,2,9,33,5,,,,,,,,3.3,608.9665464999998,612.2684678,612.2683368199998,0.30495750000000044,612.7124861999996,612.7124861999996,n,0.7719351999999162,615.4735720999997,615.4735720999997,3,1.928,,,sub-042,30,60,700,bloc_loop.csv,2023-08-21_16h48.05.711,PainUncertainty,2022.2.5,143.45432270908012,
aigu,moderee,stimuli/660Hz,stimuli/moderee,bloc_1,prob20hthp_12trials.xlsx,4,48,20,80,0,,,,,0,0,0,0,2,10,34,10,,,,,,,,4.4,615.4735720999997,619.8733972,619.8732399200001,0.30520879999994577,620.3199786,620.3199786,n,0.6331050000003415,624.7923017999997,624.7923017999997,4,3.782,,,sub-042,30,60,700,bloc_loop.csv,2023-08-21_16h48.05.711,PainUncertainty,2022.2.5,143.45432270908012,
grave,forte,stimuli/330Hz,stimuli/forte,bloc_1,prob20hthp_12trials.xlsx,4,48,20,80,0,,,,,0,0,0,0,2,11,35,3,,,,,,,,3.7,624.7923017999997,628.4928192999996,628.4939836199999,0.3037057999999888,628.9372672,628.9372672,m,0.5664850999996816,631.0108738999998,631.0108738999998,39,1.455,,,sub-042,30,60,700,bloc_loop.csv,2023-08-21_16h48.05.711,PainUncertainty,2022.2.5,143.45432270908012,
grave,forte,stimuli/330Hz,stimuli/forte,bloc_1,prob20hthp_12trials.xlsx,4,48,20,80,0,,,,,0,0,0,0,3,0,36,3,,,,,,,,4.5,631.0108738999998,635.5144821999997,635.5139384199999,0.3051604000002044,635.9584648999999,635.9584648999999,m,0.6312904999999773,638.6212857999999,638.6212857999999,41,1.969,,,sub-042,30,60,700,bloc_loop.csv,2023-08-21_16h48.05.711,PainUncertainty,2022.2.5,143.45432270908012,
aigu,moderee,stimuli/660Hz,stimuli/moderee,bloc_1,prob20hthp_12trials.xlsx,4,48,20,80,0,,,,,0,0,0,0,3,1,37,9,,,,,,,,3.2,638.6212857999999,641.8222112999997,641.82091762,0.3045478999997613,642.2646323999998,642.2646323999998,n,0.49911599999995815,646.1502396999999,646.1502396999999,6,3.338,,,sub-042,30,60,700,bloc_loop.csv,2023-08-21_16h48.05.711,PainUncertainty,2022.2.5,143.45432270908012,
aigu,forte,stimuli/660Hz,stimuli/forte,bloc_1,prob20hthp_12trials.xlsx,4,48,20,80,0,,,,,0,0,0,0,3,2,38,11,,,,,,,,3.8,646.1502396999999,649.9533481999997,649.95323222,0.3055718999999044,650.3984134999996,650.3984134999996,m,0.8108075999998618,653.2163220999996,653.2163220999996,41,1.955,,,sub-042,30,60,700,bloc_loop.csv,2023-08-21_16h48.05.711,PainUncertainty,2022.2.5,143.45432270908012,
aigu,moderee,stimuli/660Hz,stimuli/moderee,bloc_1,prob20hthp_12trials.xlsx,4,48,20,80,0,,,,,0,0,0,0,3,3,39,6,,,,,,,,3.2,653.2163220999996,656.4194324,656.41931322,0.2995713000000251,656.8619888999997,656.8619888999997,n,0.42040429999997286,660.9386815999997,660.9386815999997,3,3.593,,,sub-042,30,60,700,bloc_loop.csv,2023-08-21_16h48.05.711,PainUncertainty,2022.2.5,143.45432270908012,
aigu,moderee,stimuli/660Hz,stimuli/moderee,bloc_1,prob20hthp_12trials.xlsx,4,48,20,80,0,,,,,0,0,0,0,3,4,40,7,,,,,,,,4.1,660.9386815999997,665.0387198999997,665.0384039200001,0.3050717999999506,665.4827200999998,665.4827200999998,n,0.5955520000002252,669.7006902999997,669.7006902999997,4,3.56,,,sub-042,30,60,700,bloc_loop.csv,2023-08-21_16h48.05.711,PainUncertainty,2022.2.5,143.45432270908012,
grave,forte,stimuli/330Hz,stimuli/forte,bloc_1,prob20hthp_12trials.xlsx,4,48,20,80,0,,,,,0,0,0,0,3,5,41,4,,,,,,,,3.5,669.7006902999997,673.2062848999999,673.2061785200001,0.3050843999999415,673.6507798999996,673.6507798999996,m,0.4649629999998979,675.5499848,675.5499848,36,1.386,,,sub-042,30,60,700,bloc_loop.csv,2023-08-21_16h48.05.711,PainUncertainty,2022.2.5,143.45432270908012,
grave,forte,stimuli/330Hz,stimuli/forte,bloc_1,prob20hthp_12trials.xlsx,4,48,20,80,0,,,,,0,0,0,0,3,6,42,0,,,,,,,,4.6,675.5499848,680.1521084999999,680.1520153199997,0.2997210999997151,680.5963486999999,680.5963486999999,m,1.0936667999999372,683.2904048999999,683.2904048999999,44,1.531,,,sub-042,30,60,700,bloc_loop.csv,2023-08-21_16h48.05.711,PainUncertainty,2022.2.5,143.45432270908012,
grave,moderee,stimuli/330Hz,stimuli/moderee,bloc_1,prob20hthp_12trials.xlsx,4,48,20,80,0,,,,,0,0,0,0,3,7,43,5,,,,,,,,4.7,683.2904048999999,687.9930250999996,687.99302732,0.3047954000003301,688.4368901999997,688.4368901999997,n,0.5237047999999049,692.1756051999996,692.1756051999996,6,3.149,,,sub-042,30,60,700,bloc_loop.csv,2023-08-21_16h48.05.711,PainUncertainty,2022.2.5,143.45432270908012,
aigu,moderee,stimuli/660Hz,stimuli/moderee,bloc_1,prob20hthp_12trials.xlsx,4,48,20,80,0,,,,,0,0,0,0,3,8,44,10,,,,,,,,3.4,692.1756051999996,695.5769192999996,695.57683862,0.3050165999998171,696.0212855,696.0212855,n,0.5735306999999921,697.8831474999997,697.8831474999997,5,1.229,,,sub-042,30,60,700,bloc_loop.csv,2023-08-21_16h48.05.711,PainUncertainty,2022.2.5,143.45432270908012,
aigu,moderee,stimuli/660Hz,stimuli/moderee,bloc_1,prob20hthp_12trials.xlsx,4,48,20,80,0,,,,,0,0,0,0,3,9,45,8,,,,,,,,3.8,697.8831474999997,701.6888772999996,701.6887372199997,0.3055982999999287,702.1376249,702.1376249,n,0.48001879999992525,705.0774502999998,705.0774502999998,3,2.399,,,sub-042,30,60,700,bloc_loop.csv,2023-08-21_16h48.05.711,PainUncertainty,2022.2.5,143.45432270908012,
grave,forte,stimuli/330Hz,stimuli/forte,bloc_1,prob20hthp_12trials.xlsx,4,48,20,80,0,,,,,0,0,0,0,3,10,46,2,,,,,,,,4.3,705.0774502999998,709.3773600999998,709.3772348199998,0.30536439999968934,709.8239358999999,709.8239358999999,m,0.5106840999997075,713.6459110999999,713.6459110999999,38,3.261,,,sub-042,30,60,700,bloc_loop.csv,2023-08-21_16h48.05.711,PainUncertainty,2022.2.5,143.45432270908012,
grave,forte,stimuli/330Hz,stimuli/forte,bloc_1,prob20hthp_12trials.xlsx,4,48,20,80,0,,,,,0,0,0,0,3,11,47,1,,,,,,,,4.3,713.6459110999999,717.9476806999996,717.94784972,0.3049581999998736,718.3919607999997,718.3919607999997,m,0.4933610999996745,721.6556492,721.6556492,39,2.712,,,sub-042,30,60,700,bloc_loop.csv,2023-08-21_16h48.05.711,PainUncertainty,2022.2.5,143.45432270908012,
grave,forte,stimuli/330Hz,stimuli/forte,bloc_2,prob50_50_4trials.xlsx,2,8,50,50,1,,,,,0,1,1,1,0,0,0,1,,,,,,,,4.6,721.6556492,726.2612743999998,726.2612427199999,0.30504289999998946,726.7055570999996,726.7055570999996,m,0.46037939999996524,729.9367392999998,729.9367392999998,38,2.706,,,sub-042,30,60,700,bloc_loop.csv,2023-08-21_16h48.05.711,PainUncertainty,2022.2.5,143.45432270908012,
aigu,moderee,stimuli/660Hz,stimuli/moderee,bloc_2,prob50_50_4trials.xlsx,2,8,50,50,1,,,,,0,1,1,1,0,1,1,2,,,,,,,,3.1,729.9367392999998,733.0405966999997,733.04018582,0.30481620000000476,733.4844390999997,733.4844390999997,n,0.4245458000000326,736.9079721999997,736.9079721999997,3,2.943,,,sub-042,30,60,700,bloc_loop.csv,2023-08-21_16h48.05.711,PainUncertainty,2022.2.5,143.45432270908012,
grave,moderee,stimuli/330Hz,stimuli/moderee,bloc_2,prob50_50_4trials.xlsx,2,8,50,50,1,,,,,0,1,1,1,0,2,2,0,,,,,,,,3.8,736.9079721999997,740.7075624999998,740.7075354199999,0.3049117999998998,741.1525613999997,741.1525613999997,n,0.5469334000003983,745.4596469999997,745.4596469999997,7,3.706,,,sub-042,30,60,700,bloc_loop.csv,2023-08-21_16h48.05.711,PainUncertainty,2022.2.5,143.45432270908012,
aigu,forte,stimuli/660Hz,stimuli/forte,bloc_2,prob50_50_4trials.xlsx,2,8,50,50,1,,,,,0,1,1,1,0,3,3,3,,,,,,,,3,745.4596469999997,748.4653908,748.4652831199999,0.3049580000001697,748.9096562999998,748.9096562999998,m,0.4424619999999777,751.9351222,751.9351222,37,2.526,,,sub-042,30,60,700,bloc_loop.csv,2023-08-21_16h48.05.711,PainUncertainty,2022.2.5,143.45432270908012,
grave,forte,stimuli/330Hz,stimuli/forte,bloc_2,prob50_50_4trials.xlsx,2,8,50,50,1,,,,,0,1,1,1,1,0,4,1,,,,,,,,4.2,751.9351222,756.1402912999997,756.14008872,0.3005846000000929,756.5847704999996,756.5847704999996,m,0.541710299999977,760.0227606999997,760.0227606999997,39,2.843,,,sub-042,30,60,700,bloc_loop.csv,2023-08-21_16h48.05.711,PainUncertainty,2022.2.5,143.45432270908012,
aigu,forte,stimuli/660Hz,stimuli/forte,bloc_2,prob50_50_4trials.xlsx,2,8,50,50,1,,,,,0,1,1,1,1,1,5,3,,,,,,,,3.5,760.0227606999997,763.5228665999998,763.5226360199997,0.30007830000022295,763.9676369999997,763.9676369999997,m,0.6463702000000922,766.8817657,766.8817657,32,2.206,,,sub-042,30,60,700,bloc_loop.csv,2023-08-21_16h48.05.711,PainUncertainty,2022.2.5,143.45432270908012,
aigu,moderee,stimuli/660Hz,stimuli/moderee,bloc_2,prob50_50_4trials.xlsx,2,8,50,50,1,,,,,0,1,1,1,1,2,6,2,,,,,,,,4.4,766.8817657,771.2809772,771.2808695199999,0.30077010000013615,771.7252764,771.7252764,n,0.5201475999997456,774.1565226999996,774.1565226999996,7,1.858,,,sub-042,30,60,700,bloc_loop.csv,2023-08-21_16h48.05.711,PainUncertainty,2022.2.5,143.45432270908012,
grave,moderee,stimuli/330Hz,stimuli/moderee,bloc_2,prob50_50_4trials.xlsx,2,8,50,50,1,,,,,0,1,1,1,1,3,7,0,,,,,,,,3.4,774.1565226999996,777.5592494999996,777.5591716199999,0.30528019999974276,778.0039621999999,778.0039621999999,n,0.5002391000002717,782.3518869999998,782.3518869999998,9,1.816,,,sub-042,30,60,700,bloc_loop.csv,2023-08-21_16h48.05.711,PainUncertainty,2022.2.5,143.45432270908012,
,,,,bloc_2,prob50_50_4trials.xlsx,2,8,50,50,1,,,,,0,1,1,1,,,,,0,0,0,0,,,,,,,,,,,,,,,,,782.3518869999998,810.7718666999999,sub-042,30,60,700,bloc_loop.csv,2023-08-21_16h48.05.711,PainUncertainty,2022.2.5,143.45432270908012,
grave,moderee,stimuli/330Hz,stimuli/moderee,bloc_3,prob80hthp_12trials.xlsx,2,24,80,20,0,,,,,0,2,2,2,0,0,0,2,,,,,,,,3.2,811.9009652999998,815.1054919999997,815.10538092,0.30520030000025145,815.5497135,815.5497135,n,0.5419998000002124,818.869107,818.869107,5,2.725,,,sub-042,30,60,700,bloc_loop.csv,2023-08-21_16h48.05.711,PainUncertainty,2022.2.5,143.45432270908012,
aigu,forte,stimuli/660Hz,stimuli/forte,bloc_3,prob80hthp_12trials.xlsx,2,24,80,20,0,,,,,0,2,2,2,0,1,1,6,,,,,,,,4.1,818.869107,822.9744753999998,822.9744858199999,0.30491310000024896,823.4188002999999,823.4188002999999,m,0.42750459999979284,825.4876325,825.4876325,45,1.588,,,sub-042,30,60,700,bloc_loop.csv,2023-08-21_16h48.05.711,PainUncertainty,2022.2.5,143.45432270908012,
aigu,forte,stimuli/660Hz,stimuli/forte,bloc_3,prob80hthp_12trials.xlsx,2,24,80,20,0,,,,,0,2,2,2,0,2,2,7,,,,,,,,4,825.4876325,829.4892625999996,829.4890822199998,0.30497579999973823,829.9336128,829.9336128,m,0.45702520000031654,832.4900577999997,832.4900577999997,38,2.039,,,sub-042,30,60,700,bloc_loop.csv,2023-08-21_16h48.05.711,PainUncertainty,2022.2.5,143.45432270908012,
grave,moderee,stimuli/330Hz,stimuli/moderee,bloc_3,prob80hthp_12trials.xlsx,2,24,80,20,0,,,,,0,2,2,2,0,3,3,1,,,,,,,,4.7,832.4900577999997,837.1914838999996,837.1914353199998,0.3050631000000976,837.635753,837.635753,n,0.374738200000138,841.8269517999997,841.8269517999997,4,3.764,,,sub-042,30,60,700,bloc_loop.csv,2023-08-21_16h48.05.711,PainUncertainty,2022.2.5,143.45432270908012,
aigu,forte,stimuli/660Hz,stimuli/forte,bloc_3,prob80hthp_12trials.xlsx,2,24,80,20,0,,,,,0,2,2,2,0,4,4,10,,,,,,,,3.6,841.8269517999997,845.4288066999998,845.42870952,0.3049326000000292,845.8729452999996,845.8729452999996,m,0.42263880000018617,848.5081004999997,848.5081004999997,40,2.155,,,sub-042,30,60,700,bloc_loop.csv,2023-08-21_16h48.05.711,PainUncertainty,2022.2.5,143.45432270908012,
grave,moderee,stimuli/330Hz,stimuli/moderee,bloc_3,prob80hthp_12trials.xlsx,2,24,80,20,0,,,,,0,2,2,2,0,5,5,3,,,,,,,,3.8,848.5081004999997,852.3140341999997,852.3118801200001,0.3052287999998953,852.7602477,852.7602477,n,0.4131760000000213,856.8531616,856.8531616,3,3.614,,,sub-042,30,60,700,bloc_loop.csv,2023-08-21_16h48.05.711,PainUncertainty,2022.2.5,143.45432270908012,
grave,moderee,stimuli/330Hz,stimuli/moderee,bloc_3,prob80hthp_12trials.xlsx,2,24,80,20,0,,,,,0,2,2,2,0,6,6,4,,,,,,,,3.7,856.8531616,860.5555918999999,860.5554540199998,0.30513329999985217,861.0037270999997,861.0037270999997,n,0.3302888000002895,864.3990936,864.3990936,4,3.018,,,sub-042,30,60,700,bloc_loop.csv,2023-08-21_16h48.05.711,PainUncertainty,2022.2.5,143.45432270908012,
grave,forte,stimuli/330Hz,stimuli/forte,bloc_3,prob80hthp_12trials.xlsx,2,24,80,20,0,,,,,0,2,2,2,0,7,7,5,,,,,,,,3,864.3990936,867.4036372,867.4033990199998,0.3052929000000404,867.8520734999997,867.8520734999997,m,0.5348500999998578,869.8182299999999,869.8182299999999,38,1.38,,,sub-042,30,60,700,bloc_loop.csv,2023-08-21_16h48.05.711,PainUncertainty,2022.2.5,143.45432270908012,
aigu,forte,stimuli/660Hz,stimuli/forte,bloc_3,prob80hthp_12trials.xlsx,2,24,80,20,0,,,,,0,2,2,2,0,8,8,8,,,,,,,,4.5,869.8182299999999,874.3210898999996,874.3208738199999,0.3052316000002975,874.7656970999997,874.7656970999997,m,0.5552263999998104,877.0283807999999,877.0283807999999,41,1.606,,,sub-042,30,60,700,bloc_loop.csv,2023-08-21_16h48.05.711,PainUncertainty,2022.2.5,143.45432270908012,
aigu,moderee,stimuli/660Hz,stimuli/moderee,bloc_3,prob80hthp_12trials.xlsx,2,24,80,20,0,,,,,0,2,2,2,0,9,9,11,,,,,,,,4,877.0283807999999,881.030334,881.0300426199999,0.30530339999995704,881.4744329999999,881.4744329999999,n,0.5856116999998449,884.0795103,884.0795103,9,1.962,,,sub-042,30,60,700,bloc_loop.csv,2023-08-21_16h48.05.711,PainUncertainty,2022.2.5,143.45432270908012,
grave,moderee,stimuli/330Hz,stimuli/moderee,bloc_3,prob80hthp_12trials.xlsx,2,24,80,20,0,,,,,0,2,2,2,0,10,10,0,,,,,,,,4.5,884.0795103,888.5800334999999,888.5800378199999,0.3048091000000568,889.0242304999997,889.0242304999997,n,0.5373735000002853,891.6236090999996,891.6236090999996,3,2.012,,,sub-042,30,60,700,bloc_loop.csv,2023-08-21_16h48.05.711,PainUncertainty,2022.2.5,143.45432270908012,
aigu,forte,stimuli/660Hz,stimuli/forte,bloc_3,prob80hthp_12trials.xlsx,2,24,80,20,0,,,,,0,2,2,2,0,11,11,9,,,,,,,,3.7,891.6236090999996,895.3236702999998,895.3234719199997,0.30555299999969066,895.7706728999997,895.7706728999997,m,0.42266660000041156,898.0665196,898.0665196,43,1.816,,,sub-042,30,60,700,bloc_loop.csv,2023-08-21_16h48.05.711,PainUncertainty,2022.2.5,143.45432270908012,
aigu,forte,stimuli/660Hz,stimuli/forte,bloc_3,prob80hthp_12trials.xlsx,2,24,80,20,0,,,,,0,2,2,2,1,0,12,6,,,,,,,,4.3,898.0665196,902.3664884999998,902.36633732,0.30491920000031314,902.8104189999999,902.8104189999999,m,0.436276099999759,906.3317873999999,906.3317873999999,40,3.026,,,sub-042,30,60,700,bloc_loop.csv,2023-08-21_16h48.05.711,PainUncertainty,2022.2.5,143.45432270908012,
grave,moderee,stimuli/330Hz,stimuli/moderee,bloc_3,prob80hthp_12trials.xlsx,2,24,80,20,0,,,,,0,2,2,2,1,1,13,0,,,,,,,,3.1,906.3317873999999,909.4369116999997,909.4366328199997,0.30519649999996545,909.8832423999997,909.8832423999997,n,1.102930500000184,914.2767783999998,914.2767783999998,4,3.233,,,sub-042,30,60,700,bloc_loop.csv,2023-08-21_16h48.05.711,PainUncertainty,2022.2.5,143.45432270908012,
grave,moderee,stimuli/330Hz,stimuli/moderee,bloc_3,prob80hthp_12trials.xlsx,2,24,80,20,0,,,,,0,2,2,2,1,2,14,3,,,,,,,,4.7,914.2767783999998,918.9794704999999,918.9792707199997,0.30020369999965624,919.4241889,919.4241889,n,0.4293649999999616,921.1675660999999,921.1675660999999,3,1.254,,,sub-042,30,60,700,bloc_loop.csv,2023-08-21_16h48.05.711,PainUncertainty,2022.2.5,143.45432270908012,
aigu,forte,stimuli/660Hz,stimuli/forte,bloc_3,prob80hthp_12trials.xlsx,2,24,80,20,0,,,,,0,2,2,2,1,3,15,7,,,,,,,,3.6,921.1675660999999,924.7716679,924.77151652,0.3051006000000598,925.2162444,925.2162444,m,0.4491507999996429,928.2013096999999,928.2013096999999,42,2.483,,,sub-042,30,60,700,bloc_loop.csv,2023-08-21_16h48.05.711,PainUncertainty,2022.2.5,143.45432270908012,
aigu,forte,stimuli/660Hz,stimuli/forte,bloc_3,prob80hthp_12trials.xlsx,2,24,80,20,0,,,,,0,2,2,2,1,4,16,9,,,,,,,,4.2,928.2013096999999,932.4049597999997,932.4046424199998,0.305282399999669,932.8523391999997,932.8523391999997,m,0.4431773000001158,934.9808509,934.9808509,42,1.621,,,sub-042,30,60,700,bloc_loop.csv,2023-08-21_16h48.05.711,PainUncertainty,2022.2.5,143.45432270908012,
grave,forte,stimuli/330Hz,stimuli/forte,bloc_3,prob80hthp_12trials.xlsx,2,24,80,20,0,,,,,0,2,2,2,1,5,17,5,,,,,,,,4.9,934.9808509,939.8852365999996,939.88478852,0.304834000000028,940.329275,940.329275,m,0.8613125000001673,943.3405155,943.3405155,41,2.098,,,sub-042,30,60,700,bloc_loop.csv,2023-08-21_16h48.05.711,PainUncertainty,2022.2.5,143.45432270908012,
aigu,forte,stimuli/660Hz,stimuli/forte,bloc_3,prob80hthp_12trials.xlsx,2,24,80,20,0,,,,,0,2,2,2,1,6,18,10,,,,,,,,4.5,943.3405155,947.8440649999998,947.8438015199997,0.3049433000001045,948.2883821,948.2883821,m,0.6726604999998926,950.5508081999997,950.5508081999997,42,1.531,,,sub-042,30,60,700,bloc_loop.csv,2023-08-21_16h48.05.711,PainUncertainty,2022.2.5,143.45432270908012,
aigu,forte,stimuli/660Hz,stimuli/forte,bloc_3,prob80hthp_12trials.xlsx,2,24,80,20,0,,,,,0,2,2,2,1,7,19,8,,,,,,,,4.9,950.5508081999997,955.4559472999999,955.4558527199999,0.304947600000105,955.9001644999998,955.9001644999998,m,0.6339112000000569,958.1130383,958.1130383,40,1.503,,,sub-042,30,60,700,bloc_loop.csv,2023-08-21_16h48.05.711,PainUncertainty,2022.2.5,143.45432270908012,
aigu,moderee,stimuli/660Hz,stimuli/moderee,bloc_3,prob80hthp_12trials.xlsx,2,24,80,20,0,,,,,0,2,2,2,1,8,20,11,,,,,,,,3.1,958.1130383,961.2142139999996,961.2141829199998,0.30493269999988115,961.6627245999998,961.6627245999998,n,0.5084882999999536,964.5886244999997,964.5886244999997,9,2.352,,,sub-042,30,60,700,bloc_loop.csv,2023-08-21_16h48.05.711,PainUncertainty,2022.2.5,143.45432270908012,
grave,moderee,stimuli/330Hz,stimuli/moderee,bloc_3,prob80hthp_12trials.xlsx,2,24,80,20,0,,,,,0,2,2,2,1,9,21,1,,,,,,,,3.7,964.5886244999997,968.2913856,968.2913390199999,0.30112800000006246,968.7360672,968.7360672,n,0.5461132999998881,971.1425488,971.1425488,7,1.802,,,sub-042,30,60,700,bloc_loop.csv,2023-08-21_16h48.05.711,PainUncertainty,2022.2.5,143.45432270908012,
grave,moderee,stimuli/330Hz,stimuli/moderee,bloc_3,prob80hthp_12trials.xlsx,2,24,80,20,0,,,,,0,2,2,2,1,10,22,4,,,,,,,,3.1,971.1425488,974.2430479999998,974.2428958200001,0.3049407999997129,974.6874352999998,974.6874352999998,n,0.4524369000000661,977.2961461,977.2961461,3,2.101,,,sub-042,30,60,700,bloc_loop.csv,2023-08-21_16h48.05.711,PainUncertainty,2022.2.5,143.45432270908012,
grave,moderee,stimuli/330Hz,stimuli/moderee,bloc_3,prob80hthp_12trials.xlsx,2,24,80,20,0,,,,,0,2,2,2,1,11,23,2,,,,,,,,4.1,977.2961461,981.3971744999999,981.39715662,0.30486270000028526,981.8429965999999,981.8429965999999,n,0.9527801999997791,984.0107845999996,984.0107845999996,4,1.15,,,sub-042,30,60,700,bloc_loop.csv,2023-08-21_16h48.05.711,PainUncertainty,2022.2.5,143.45432270908012,
grave,forte,stimuli/330Hz,stimuli/forte,bloc_4,prob50_50_4trials.xlsx,2,8,50,50,1,,,,,0,3,3,3,0,0,0,1,,,,,,,,4.5,984.0107845999996,988.515633,988.51550612,0.30524719999993977,988.9603978999999,988.9603978999999,m,0.4988165999998273,991.7163907999998,991.7163907999998,42,2.206,,,sub-042,30,60,700,bloc_loop.csv,2023-08-21_16h48.05.711,PainUncertainty,2022.2.5,143.45432270908012,
aigu,forte,stimuli/660Hz,stimuli/forte,bloc_4,prob50_50_4trials.xlsx,2,8,50,50,1,,,,,0,3,3,3,0,1,1,3,,,,,,,,4.1,991.7163907999998,995.8222168999996,995.8222043200001,0.30511799999976574,996.2703583999996,996.2703583999996,m,0.5701790999996774,998.9261217999997,998.9261217999997,41,2.032,,,sub-042,30,60,700,bloc_loop.csv,2023-08-21_16h48.05.711,PainUncertainty,2022.2.5,143.45432270908012,
aigu,moderee,stimuli/660Hz,stimuli/moderee,bloc_4,prob50_50_4trials.xlsx,2,8,50,50,1,,,,,0,3,3,3,0,2,2,2,,,,,,,,4.9,998.9261217999997,1003.8298559,1003.8296950199999,0.3050305000001572,1004.2739966999998,1004.2739966999998,n,0.6853540000001885,1009.5252591999997,1009.5252591999997,0,4.51,,,sub-042,30,60,700,bloc_loop.csv,2023-08-21_16h48.05.711,PainUncertainty,2022.2.5,143.45432270908012,
grave,moderee,stimuli/330Hz,stimuli/moderee,bloc_4,prob50_50_4trials.xlsx,2,8,50,50,1,,,,,0,3,3,3,0,3,3,0,,,,,,,,4.1,1009.5252591999997,1013.6298918999996,1013.6297498199999,0.29921230000036303,1014.0733792999999,1014.0733792999999,n,0.5296177000000171,1015.856381,1015.856381,3,1.184,,,sub-042,30,60,700,bloc_loop.csv,2023-08-21_16h48.05.711,PainUncertainty,2022.2.5,143.45432270908012,
aigu,moderee,stimuli/660Hz,stimuli/moderee,bloc_4,prob50_50_4trials.xlsx,2,8,50,50,1,,,,,0,3,3,3,1,0,4,2,,,,,,,,3.1,1015.856381,1018.9569414999996,1018.9568431199998,0.30484260000002905,1019.4012511999999,1019.4012511999999,n,0.631485899999916,1025.2735206999996,1025.2735206999996,3,5.185,,,sub-042,30,60,700,bloc_loop.csv,2023-08-21_16h48.05.711,PainUncertainty,2022.2.5,143.45432270908012,
grave,forte,stimuli/330Hz,stimuli/forte,bloc_4,prob50_50_4trials.xlsx,2,8,50,50,1,,,,,0,3,3,3,1,1,5,1,,,,,,,,3.3,1025.2735206999996,1028.5762766999997,1028.5760797199998,0.3054075999998531,1029.0231239999998,1029.0231239999998,m,0.6201270000001387,1031.3318139999997,1031.3318139999997,43,1.636,,,sub-042,30,60,700,bloc_loop.csv,2023-08-21_16h48.05.711,PainUncertainty,2022.2.5,143.45432270908012,
grave,moderee,stimuli/330Hz,stimuli/moderee,bloc_4,prob50_50_4trials.xlsx,2,8,50,50,1,,,,,0,3,3,3,1,2,6,0,,,,,,,,3.4,1031.3318139999997,1034.7362783999997,1034.7361192199999,0.30556220000016765,1035.1844948999997,1035.1844948999997,n,0.5614129000000503,1040.3800606,1040.3800606,4,4.566,,,sub-042,30,60,700,bloc_loop.csv,2023-08-21_16h48.05.711,PainUncertainty,2022.2.5,143.45432270908012,
aigu,forte,stimuli/660Hz,stimuli/forte,bloc_4,prob50_50_4trials.xlsx,2,8,50,50,1,,,,,0,3,3,3,1,3,7,3,,,,,,,,3.3,1040.3800606,1043.6817976999996,1043.6818102199998,0.3012148999996498,1044.1264821999998,1044.1264821999998,m,0.6692250999999487,1048.7559373,1048.7559373,41,1.927,,,sub-042,30,60,700,bloc_loop.csv,2023-08-21_16h48.05.711,PainUncertainty,2022.2.5,143.45432270908012,
,,,,bloc_4,prob50_50_4trials.xlsx,2,8,50,50,1,,,,,0,3,3,3,,,,,0,0,0,0,,,,,,,,,,,,,,,,,1048.7559373,1067.4207109,sub-042,30,60,700,bloc_loop.csv,2023-08-21_16h48.05.711,PainUncertainty,2022.2.5,143.45432270908012,
aigu,forte,stimuli/660Hz,stimuli/forte,bloc_5,prob20hthp_12trials.xlsx,2,24,20,80,0,,,,,0,4,4,4,0,0,0,11,,,,,,,,4.1,1068.4062448,1072.5121900999998,1072.51316582,0.3035945999999967,1072.9558247,1072.9558247,m,0.6539043999996466,1075.8571560999999,1075.8571560999999,43,2.179,,,sub-042,30,60,700,bloc_loop.csv,2023-08-21_16h48.05.711,PainUncertainty,2022.2.5,143.45432270908012,
grave,forte,stimuli/330Hz,stimuli/forte,bloc_5,prob20hthp_12trials.xlsx,2,24,20,80,0,,,,,0,4,4,4,0,1,1,2,,,,,,,,3.4,1075.8571560999999,1079.2626784,1079.2625928199998,0.3049053000004278,1079.7068611999998,1079.7068611999998,m,0.5139537000000018,1081.1937871999999,1081.1937871999999,43,0.92,,,sub-042,30,60,700,bloc_loop.csv,2023-08-21_16h48.05.711,PainUncertainty,2022.2.5,143.45432270908012,
grave,forte,stimuli/330Hz,stimuli/forte,bloc_5,prob20hthp_12trials.xlsx,2,24,20,80,0,,,,,0,4,4,4,0,2,2,3,,,,,,,,4.8,1081.1937871999999,1085.9993743999999,1085.99917312,0.30522560000008525,1086.4441782,1086.4441782,m,1.1635322000001906,1089.908101,1089.908101,41,2.241,,,sub-042,30,60,700,bloc_loop.csv,2023-08-21_16h48.05.711,PainUncertainty,2022.2.5,143.45432270908012,
grave,forte,stimuli/330Hz,stimuli/forte,bloc_5,prob20hthp_12trials.xlsx,2,24,20,80,0,,,,,0,4,4,4,0,3,3,4,,,,,,,,3,1089.908101,1092.9103888999998,1092.9103500199997,0.30468599999994694,1093.3545586999999,1093.3545586999999,m,0.4672356999999465,1096.6878152,1096.6878152,41,2.794,,,sub-042,30,60,700,bloc_loop.csv,2023-08-21_16h48.05.711,PainUncertainty,2022.2.5,143.45432270908012,
grave,forte,stimuli/330Hz,stimuli/forte,bloc_5,prob20hthp_12trials.xlsx,2,24,20,80,0,,,,,0,4,4,4,0,4,4,0,,,,,,,,3.8,1096.6878152,1100.4873656,1100.4871599199998,0.3052332000002025,1100.9352906,1100.9352906,m,0.5725212000002102,1104.1524517999997,1104.1524517999997,39,2.58,,,sub-042,30,60,700,bloc_loop.csv,2023-08-21_16h48.05.711,PainUncertainty,2022.2.5,143.45432270908012,
aigu,moderee,stimuli/660Hz,stimuli/moderee,bloc_5,prob20hthp_12trials.xlsx,2,24,20,80,0,,,,,0,4,4,4,0,5,5,7,,,,,,,,3.5,1104.1524517999997,1107.6551676,1107.65476302,0.3049677999997584,1108.0993510999997,1108.0993510999997,n,0.7050567999999657,1111.0908439,1111.0908439,3,2.221,,,sub-042,30,60,700,bloc_loop.csv,2023-08-21_16h48.05.711,PainUncertainty,2022.2.5,143.45432270908012,
grave,moderee,stimuli/330Hz,stimuli/moderee,bloc_5,prob20hthp_12trials.xlsx,2,24,20,80,0,,,,,0,4,4,4,0,6,6,5,,,,,,,,4.2,1111.0908439,1115.2945554999997,1115.2944052199998,0.3050392999998621,1115.7386557,1115.7386557,n,0.4822331000000304,1118.7170069999997,1118.7170069999997,3,2.428,,,sub-042,30,60,700,bloc_loop.csv,2023-08-21_16h48.05.711,PainUncertainty,2022.2.5,143.45432270908012,
aigu,moderee,stimuli/660Hz,stimuli/moderee,bloc_5,prob20hthp_12trials.xlsx,2,24,20,80,0,,,,,0,4,4,4,0,7,7,6,,,,,,,,3.6,1118.7170069999997,1122.3165288,1122.31639242,0.3051304999999047,1122.7641119,1122.7641119,n,0.6556322999999793,1125.2385279999999,1125.2385279999999,0,1.759,,,sub-042,30,60,700,bloc_loop.csv,2023-08-21_16h48.05.711,PainUncertainty,2022.2.5,143.45432270908012,
aigu,moderee,stimuli/660Hz,stimuli/moderee,bloc_5,prob20hthp_12trials.xlsx,2,24,20,80,0,,,,,0,4,4,4,0,8,8,8,,,,,,,,3.9,1125.2385279999999,1129.1437443999998,1129.14363622,0.3052373999998963,1129.5911775,1129.5911775,n,0.47393949999968754,1131.1381557,1131.1381557,2,0.995,,,sub-042,30,60,700,bloc_loop.csv,2023-08-21_16h48.05.711,PainUncertainty,2022.2.5,143.45432270908012,
grave,forte,stimuli/330Hz,stimuli/forte,bloc_5,prob20hthp_12trials.xlsx,2,24,20,80,0,,,,,0,4,4,4,0,9,9,1,,,,,,,,4.2,1131.1381557,1135.3386253999997,1135.33844682,0.3051400000003923,1135.7870451999997,1135.7870451999997,m,0.39982759999975315,1137.5148943,1137.5148943,43,1.269,,,sub-042,30,60,700,bloc_loop.csv,2023-08-21_16h48.05.711,PainUncertainty,2022.2.5,143.45432270908012,
aigu,moderee,stimuli/660Hz,stimuli/moderee,bloc_5,prob20hthp_12trials.xlsx,2,24,20,80,0,,,,,0,4,4,4,0,10,10,10,,,,,,,,4.5,1137.5148943,1142.0199046999996,1142.0197529199997,0.30509790000041903,1142.4642276999998,1142.4642276999998,n,0.4698726000001443,1144.3903250999997,1144.3903250999997,3,1.4,,,sub-042,30,60,700,bloc_loop.csv,2023-08-21_16h48.05.711,PainUncertainty,2022.2.5,143.45432270908012,
aigu,moderee,stimuli/660Hz,stimuli/moderee,bloc_5,prob20hthp_12trials.xlsx,2,24,20,80,0,,,,,0,4,4,4,0,11,11,9,,,,,,,,4.9,1144.3903250999997,1149.2916206,1149.2915295199998,0.3009162999996988,1149.7360684,1149.7360684,n,0.9918545000000449,1152.7998897999996,1152.7998897999996,8,2.016,,,sub-042,30,60,700,bloc_loop.csv,2023-08-21_16h48.05.711,PainUncertainty,2022.2.5,143.45432270908012,
grave,forte,stimuli/330Hz,stimuli/forte,bloc_5,prob20hthp_12trials.xlsx,2,24,20,80,0,,,,,0,4,4,4,1,0,12,2,,,,,,,,3.5,1152.7998897999996,1156.2993597,1156.29955992,0.30484830000023067,1156.7436009999997,1156.7436009999997,m,0.44251359999998385,1159.6099083999998,1159.6099083999998,42,2.372,,,sub-042,30,60,700,bloc_loop.csv,2023-08-21_16h48.05.711,PainUncertainty,2022.2.5,143.45432270908012,
aigu,moderee,stimuli/660Hz,stimuli/moderee,bloc_5,prob20hthp_12trials.xlsx,2,24,20,80,0,,,,,0,4,4,4,1,1,13,9,,,,,,,,3,1159.6099083999998,1162.6127004,1162.61259262,0.30489829999987705,1163.0573932999996,1163.0573932999996,n,0.901896399999714,1166.0357642999998,1166.0357642999998,4,2.025,,,sub-042,30,60,700,bloc_loop.csv,2023-08-21_16h48.05.711,PainUncertainty,2022.2.5,143.45432270908012,
grave,moderee,stimuli/330Hz,stimuli/moderee,bloc_5,prob20hthp_12trials.xlsx,2,24,20,80,0,,,,,0,4,4,4,1,2,14,5,,,,,,,,4.4,1166.0357642999998,1170.4399172999997,1170.4398341199997,0.299231299999974,1170.8781332999997,1170.8781332999997,n,0.5811923000001116,1174.1558311,1174.1558311,6,2.636,,,sub-042,30,60,700,bloc_loop.csv,2023-08-21_16h48.05.711,PainUncertainty,2022.2.5,143.45432270908012,
aigu,moderee,stimuli/660Hz,stimuli/moderee,bloc_5,prob20hthp_12trials.xlsx,2,24,20,80,0,,,,,0,4,4,4,1,3,15,8,,,,,,,,4.1,1174.1558311,1178.2603885999997,1178.2604166199997,0.30487670000002254,1178.7085006999996,1178.7085006999996,n,0.5848833000000013,1181.0619115999998,1181.0619115999998,5,1.72,,,sub-042,30,60,700,bloc_loop.csv,2023-08-21_16h48.05.711,PainUncertainty,2022.2.5,143.45432270908012,
grave,forte,stimuli/330Hz,stimuli/forte,bloc_5,prob20hthp_12trials.xlsx,2,24,20,80,0,,,,,0,4,4,4,1,4,16,1,,,,,,,,3.7,1181.0619115999998,1184.761575,1184.76138732,0.3002946999999949,1185.2059698999997,1185.2059698999997,m,0.4735900999999103,1188.1137829999998,1188.1137829999998,44,2.372,,,sub-042,30,60,700,bloc_loop.csv,2023-08-21_16h48.05.711,PainUncertainty,2022.2.5,143.45432270908012,
aigu,forte,stimuli/660Hz,stimuli/forte,bloc_5,prob20hthp_12trials.xlsx,2,24,20,80,0,,,,,0,4,4,4,1,5,17,11,,,,,,,,3,1188.1137829999998,1191.1164928999997,1191.11626762,0.3050140000000283,1191.5604187999998,1191.5604187999998,m,0.6130462999999509,1194.5416114999998,1194.5416114999998,47,2.303,,,sub-042,30,60,700,bloc_loop.csv,2023-08-21_16h48.05.711,PainUncertainty,2022.2.5,143.45432270908012,
grave,forte,stimuli/330Hz,stimuli/forte,bloc_5,prob20hthp_12trials.xlsx,2,24,20,80,0,,,,,0,4,4,4,1,6,18,3,,,,,,,,3.9,1194.5416114999998,1198.4433114999997,1198.4432074199997,0.30548829999997906,1198.8913675999997,1198.8913675999997,m,0.6092843000001267,1201.0624770999998,1201.0624770999998,46,1.497,,,sub-042,30,60,700,bloc_loop.csv,2023-08-21_16h48.05.711,PainUncertainty,2022.2.5,143.45432270908012,
grave,forte,stimuli/330Hz,stimuli/forte,bloc_5,prob20hthp_12trials.xlsx,2,24,20,80,0,,,,,0,4,4,4,1,7,19,0,,,,,,,,3,1201.0624770999998,1204.0621624,1204.0620508199997,0.30537450000019817,1204.5115022999998,1204.5115022999998,m,0.4993847000000642,1206.9923228999996,1206.9923228999996,43,1.921,,,sub-042,30,60,700,bloc_loop.csv,2023-08-21_16h48.05.711,PainUncertainty,2022.2.5,143.45432270908012,
aigu,moderee,stimuli/660Hz,stimuli/moderee,bloc_5,prob20hthp_12trials.xlsx,2,24,20,80,0,,,,,0,4,4,4,1,8,20,10,,,,,,,,4.8,1206.9923228999996,1211.7922485999998,1211.7920462199997,0.30518190000020695,1212.2364969999999,1212.2364969999999,n,0.4675062000001162,1215.2917973999997,1215.2917973999997,3,2.518,,,sub-042,30,60,700,bloc_loop.csv,2023-08-21_16h48.05.711,PainUncertainty,2022.2.5,143.45432270908012,
aigu,moderee,stimuli/660Hz,stimuli/moderee,bloc_5,prob20hthp_12trials.xlsx,2,24,20,80,0,,,,,0,4,4,4,1,9,21,7,,,,,,,,4.7,1215.2917973999997,1219.9945871999998,1219.9945009199998,0.3048631000001478,1220.4386405999999,1220.4386405999999,n,0.5446197000001121,1222.6118174999997,1222.6118174999997,3,1.565,,,sub-042,30,60,700,bloc_loop.csv,2023-08-21_16h48.05.711,PainUncertainty,2022.2.5,143.45432270908012,
grave,forte,stimuli/330Hz,stimuli/forte,bloc_5,prob20hthp_12trials.xlsx,2,24,20,80,0,,,,,0,4,4,4,1,10,22,4,,,,,,,,4.4,1222.6118174999997,1227.0163401999998,1227.0161464199998,0.3048751999999695,1227.4604267,1227.4604267,m,0.6826132999999572,1230.8936039999999,1230.8936039999999,40,2.685,,,sub-042,30,60,700,bloc_loop.csv,2023-08-21_16h48.05.711,PainUncertainty,2022.2.5,143.45432270908012,
aigu,moderee,stimuli/660Hz,stimuli/moderee,bloc_5,prob20hthp_12trials.xlsx,2,24,20,80,0,,,,,0,4,4,4,1,11,23,6,,,,,,,,3,1230.8936039999999,1233.8994365999997,1233.89937342,0.30502819999992425,1234.3472161999998,1234.3472161999998,n,0.5245515999999952,1238.2460772,1238.2460772,7,3.315,,,sub-042,30,60,700,bloc_loop.csv,2023-08-21_16h48.05.711,PainUncertainty,2022.2.5,143.45432270908012,
grave,forte,stimuli/330Hz,stimuli/forte,bloc_6,prob50_50_4trials.xlsx,2,8,50,50,0,,,,,0,5,5,5,0,0,0,1,,,,,,,,4.8,1238.2460772,1243.0462448999997,1243.0462657199998,0.3054864999999154,1243.4954516999996,1243.4954516999996,n,0.5630237000000307,1245.7445644,1245.7445644,34,1.576,,,sub-042,30,60,700,bloc_loop.csv,2023-08-21_16h48.05.711,PainUncertainty,2022.2.5,143.45432270908012,
aigu,forte,stimuli/660Hz,stimuli/forte,bloc_6,prob50_50_4trials.xlsx,2,8,50,50,0,,,,,0,5,5,5,0,1,1,3,,,,,,,,3,1245.7445644,1248.7485881999996,1248.7482121199998,0.29913889999988896,1249.1865165,1249.1865165,m,0.6466245000001436,1251.4190859999999,1251.4190859999999,40,1.521,,,sub-042,30,60,700,bloc_loop.csv,2023-08-21_16h48.05.711,PainUncertainty,2022.2.5,143.45432270908012,
aigu,moderee,stimuli/660Hz,stimuli/moderee,bloc_6,prob50_50_4trials.xlsx,2,8,50,50,0,,,,,0,5,5,5,0,2,2,2,,,,,,,,3.3,1251.4190859999999,1254.7208513,1254.7207201199997,0.3050966000000699,1255.1650551999996,1255.1650551999996,n,0.6449280000001636,1258.8207217999998,1258.8207217999998,6,2.961,,,sub-042,30,60,700,bloc_loop.csv,2023-08-21_16h48.05.711,PainUncertainty,2022.2.5,143.45432270908012,
grave,moderee,stimuli/330Hz,stimuli/moderee,bloc_6,prob50_50_4trials.xlsx,2,8,50,50,0,,,,,0,5,5,5,0,3,3,0,,,,,,,,3.7,1258.8207217999998,1262.5204572999996,1262.5204729199997,0.30485829999997804,1262.9647332,1262.9647332,n,0.5530946999997468,1266.9423695,1266.9423695,9,3.374,,,sub-042,30,60,700,bloc_loop.csv,2023-08-21_16h48.05.711,PainUncertainty,2022.2.5,143.45432270908012,
grave,moderee,stimuli/330Hz,stimuli/moderee,bloc_6,prob50_50_4trials.xlsx,2,8,50,50,0,,,,,0,5,5,5,1,0,4,0,,,,,,,,3.2,1266.9423695,1270.1462702,1270.1462209199997,0.30504610000025423,1270.5906298,1270.5906298,n,0.7298776999996335,1275.0016736999996,1275.0016736999996,11,3.622,,,sub-042,30,60,700,bloc_loop.csv,2023-08-21_16h48.05.711,PainUncertainty,2022.2.5,143.45432270908012,
grave,forte,stimuli/330Hz,stimuli/forte,bloc_6,prob50_50_4trials.xlsx,2,8,50,50,0,,,,,0,5,5,5,1,1,5,1,,,,,,,,4.2,1275.0016736999996,1279.2033460999996,1279.20316472,0.3051892999997108,1279.6515935999996,1279.6515935999996,m,0.5379974000002221,1281.5067018999998,1281.5067018999998,43,1.25,,,sub-042,30,60,700,bloc_loop.csv,2023-08-21_16h48.05.711,PainUncertainty,2022.2.5,143.45432270908012,
aigu,forte,stimuli/660Hz,stimuli/forte,bloc_6,prob50_50_4trials.xlsx,2,8,50,50,0,,,,,0,5,5,5,1,2,6,3,,,,,,,,4.6,1281.5067018999998,1286.1065411999998,1286.1065161199997,0.3051522999999179,1286.5510326999997,1286.5510326999997,m,0.6763494000001629,1289.5807934999998,1289.5807934999998,43,2.297,,,sub-042,30,60,700,bloc_loop.csv,2023-08-21_16h48.05.711,PainUncertainty,2022.2.5,143.45432270908012,
aigu,moderee,stimuli/660Hz,stimuli/moderee,bloc_6,prob50_50_4trials.xlsx,2,8,50,50,0,,,,,0,5,5,5,1,3,7,2,,,,,,,,4.8,1289.5807934999998,1294.3851771999998,1294.3850838199999,0.30516990000023725,1294.8293916999996,1294.8293916999996,n,0.8695500999997421,1297.8447621,1297.8447621,2,2.081,,,sub-042,30,60,700,bloc_loop.csv,2023-08-21_16h48.05.711,PainUncertainty,2022.2.5,143.45432270908012,
grave,moderee,stimuli/330Hz,stimuli/moderee,bloc_7,prob80hthp_12trials.xlsx,2,24,80,20,1,,,,,0,6,6,6,0,0,0,4,,,,,,,,4.5,1297.8447621,1302.3445748999998,1302.3445031199997,0.3051774000000478,1302.7888324,1302.7888324,n,0.5524709000001167,1306.5736497999997,1306.5736497999997,6,3.177,,,sub-042,30,60,700,bloc_loop.csv,2023-08-21_16h48.05.711,PainUncertainty,2022.2.5,143.45432270908012,
aigu,forte,stimuli/660Hz,stimuli/forte,bloc_7,prob80hthp_12trials.xlsx,2,24,80,20,1,,,,,0,6,6,6,0,1,1,8,,,,,,,,3.6,1306.5736497999997,1310.1788007,1310.17860542,0.30548129999988305,1310.6274187,1310.6274187,m,0.733723899999859,1312.8881960999997,1312.8881960999997,46,1.463,,,sub-042,30,60,700,bloc_loop.csv,2023-08-21_16h48.05.711,PainUncertainty,2022.2.5,143.45432270908012,
aigu,forte,stimuli/660Hz,stimuli/forte,bloc_7,prob80hthp_12trials.xlsx,2,24,80,20,1,,,,,0,6,6,6,0,2,2,10,,,,,,,,4.9,1312.8881960999997,1317.7912846999998,1317.79123452,0.3047040999999808,1318.2350167,1318.2350167,m,0.5710826999998062,1320.9802246,1320.9802246,42,2.108,,,sub-042,30,60,700,bloc_loop.csv,2023-08-21_16h48.05.711,PainUncertainty,2022.2.5,143.45432270908012,
grave,moderee,stimuli/330Hz,stimuli/moderee,bloc_7,prob80hthp_12trials.xlsx,2,24,80,20,1,,,,,0,6,6,6,0,3,3,0,,,,,,,,3.8,1320.9802246,1324.7848267,1324.7848189199997,0.30536449999999604,1325.2333522999998,1325.2333522999998,n,0.45433189999994283,1327.0521813999999,1327.0521813999999,4,1.314,,,sub-042,30,60,700,bloc_loop.csv,2023-08-21_16h48.05.711,PainUncertainty,2022.2.5,143.45432270908012,
grave,forte,stimuli/330Hz,stimuli/forte,bloc_7,prob80hthp_12trials.xlsx,2,24,80,20,1,,,,,0,6,6,6,0,4,4,5,,,,,,,,3.6,1327.0521813999999,1330.6536754999997,1330.6533769199998,0.3052893000003678,1331.0976978999997,1331.0976978999997,m,0.48888209999995524,1334.2479940999997,1334.2479940999997,42,2.594,,,sub-042,30,60,700,bloc_loop.csv,2023-08-21_16h48.05.711,PainUncertainty,2022.2.5,143.45432270908012,
grave,moderee,stimuli/330Hz,stimuli/moderee,bloc_7,prob80hthp_12trials.xlsx,2,24,80,20,1,,,,,0,6,6,6,0,5,5,1,,,,,,,,3.4,1334.2479940999997,1337.6480674999998,1337.6478958199998,0.3046844999998939,1338.0941983999996,1338.0941983999996,n,0.45383240000001024,1340.9445770999996,1340.9445770999996,6,2.345,,,sub-042,30,60,700,bloc_loop.csv,2023-08-21_16h48.05.711,PainUncertainty,2022.2.5,143.45432270908012,
aigu,forte,stimuli/660Hz,stimuli/forte,bloc_7,prob80hthp_12trials.xlsx,2,24,80,20,1,,,,,0,6,6,6,0,6,6,7,,,,,,,,3.2,1340.9445770999996,1344.1483240999996,1344.14813872,0.3054739000003792,1344.5951599999999,1344.5951599999999,m,0.5103406999996878,1346.8914479999999,1346.8914479999999,42,1.726,,,sub-042,30,60,700,bloc_loop.csv,2023-08-21_16h48.05.711,PainUncertainty,2022.2.5,143.45432270908012,
grave,moderee,stimuli/330Hz,stimuli/moderee,bloc_7,prob80hthp_12trials.xlsx,2,24,80,20,1,,,,,0,6,6,6,0,7,7,2,,,,,,,,4.7,1346.8914479999999,1351.5934395999998,1351.59335722,0.305279199999859,1352.0378203999999,1352.0378203999999,n,0.5229574999998476,1354.5491149999998,1354.5491149999998,4,1.933,,,sub-042,30,60,700,bloc_loop.csv,2023-08-21_16h48.05.711,PainUncertainty,2022.2.5,143.45432270908012,
aigu,forte,stimuli/660Hz,stimuli/forte,bloc_7,prob80hthp_12trials.xlsx,2,24,80,20,1,,,,,0,6,6,6,0,8,8,6,,,,,,,,3.8,1354.5491149999998,1358.3512871999997,1358.3511550199999,0.3049270000001343,1358.7958414,1358.7958414,m,0.5286810999996305,1360.5762089999998,1360.5762089999998,44,1.197,,,sub-042,30,60,700,bloc_loop.csv,2023-08-21_16h48.05.711,PainUncertainty,2022.2.5,143.45432270908012,
aigu,moderee,stimuli/660Hz,stimuli/moderee,bloc_7,prob80hthp_12trials.xlsx,2,24,80,20,1,,,,,0,6,6,6,0,9,9,11,,,,,,,,3.7,1360.5762089999998,1364.2754708999996,1364.2753617199999,0.30521790000011606,1364.7197336,1364.7197336,n,0.4565152999998645,1366.7950222999998,1366.7950222999998,5,1.56,,,sub-042,30,60,700,bloc_loop.csv,2023-08-21_16h48.05.711,PainUncertainty,2022.2.5,143.45432270908012,
grave,moderee,stimuli/330Hz,stimuli/moderee,bloc_7,prob80hthp_12trials.xlsx,2,24,80,20,1,,,,,0,6,6,6,0,10,10,3,,,,,,,,3.7,1366.7950222999998,1370.4985585999998,1370.4983571199998,0.3048201000001427,1370.9428647999998,1370.9428647999998,n,0.8301467000001139,1373.0158537999996,1373.0158537999996,12,1.178,,,sub-042,30,60,700,bloc_loop.csv,2023-08-21_16h48.05.711,PainUncertainty,2022.2.5,143.45432270908012,
aigu,forte,stimuli/660Hz,stimuli/forte,bloc_7,prob80hthp_12trials.xlsx,2,24,80,20,1,,,,,0,6,6,6,0,11,11,9,,,,,,,,3.9,1373.0158537999996,1376.9159399999999,1376.91593872,0.30540079999991576,1377.3607445999996,1377.3607445999996,m,0.4664121000000705,1380.0801701,1380.0801701,42,2.191,,,sub-042,30,60,700,bloc_loop.csv,2023-08-21_16h48.05.711,PainUncertainty,2022.2.5,143.45432270908012,
aigu,forte,stimuli/660Hz,stimuli/forte,bloc_7,prob80hthp_12trials.xlsx,2,24,80,20,1,,,,,0,6,6,6,1,0,12,8,,,,,,,,3.9,1380.0801701,1383.9862399999997,1383.9861097199998,0.3052629999997407,1384.4310326,1384.4310326,m,0.5646103999997649,1387.4992003999996,1387.4992003999996,44,2.44,,,sub-042,30,60,700,bloc_loop.csv,2023-08-21_16h48.05.711,PainUncertainty,2022.2.5,143.45432270908012,
grave,moderee,stimuli/330Hz,stimuli/moderee,bloc_7,prob80hthp_12trials.xlsx,2,24,80,20,1,,,,,0,6,6,6,1,1,13,4,,,,,,,,4.8,1387.4992003999996,1392.2997375,1392.2995180199998,0.3049449000000095,1392.7438567999998,1392.7438567999998,n,0.4932333000001563,1396.3724029,1396.3724029,6,3.074,,,sub-042,30,60,700,bloc_loop.csv,2023-08-21_16h48.05.711,PainUncertainty,2022.2.5,143.45432270908012,
grave,moderee,stimuli/330Hz,stimuli/moderee,bloc_7,prob80hthp_12trials.xlsx,2,24,80,20,1,,,,,0,6,6,6,1,2,14,2,,,,,,,,5,1396.3724029,1401.3772605999998,1401.37698242,0.3051746000001003,1401.8213031,1401.8213031,n,0.4996860999999626,1405.5469610999999,1405.5469610999999,4,3.17,,,sub-042,30,60,700,bloc_loop.csv,2023-08-21_16h48.05.711,PainUncertainty,2022.2.5,143.45432270908012,
grave,moderee,stimuli/330Hz,stimuli/moderee,bloc_7,prob80hthp_12trials.xlsx,2,24,80,20,1,,,,,0,6,6,6,1,3,15,1,,,,,,,,3.8,1405.5469610999999,1409.3503735999998,1409.3501534199997,0.305155300000024,1409.7944513999996,1409.7944513999996,n,0.5396975000003295,1414.0524516,1414.0524516,4,3.657,,,sub-042,30,60,700,bloc_loop.csv,2023-08-21_16h48.05.711,PainUncertainty,2022.2.5,143.45432270908012,
grave,moderee,stimuli/330Hz,stimuli/moderee,bloc_7,prob80hthp_12trials.xlsx,2,24,80,20,1,,,,,0,6,6,6,1,4,16,3,,,,,,,,3.5,1414.0524516,1417.5527219,1417.55265812,0.3048907999996118,1417.9968844999999,1417.9968844999999,n,0.6537654000003386,1423.2284894,1423.2284894,6,4.518,,,sub-042,30,60,700,bloc_loop.csv,2023-08-21_16h48.05.711,PainUncertainty,2022.2.5,143.45432270908012,
grave,forte,stimuli/330Hz,stimuli/forte,bloc_7,prob80hthp_12trials.xlsx,2,24,80,20,1,,,,,0,6,6,6,1,5,17,5,,,,,,,,4.1,1423.2284894,1427.3317116999997,1427.33147472,0.30494910000015807,1427.7762260999998,1427.7762260999998,m,0.6738554000003205,1430.8388203,1430.8388203,36,2.337,,,sub-042,30,60,700,bloc_loop.csv,2023-08-21_16h48.05.711,PainUncertainty,2022.2.5,143.45432270908012,
aigu,forte,stimuli/660Hz,stimuli/forte,bloc_7,prob80hthp_12trials.xlsx,2,24,80,20,1,,,,,0,6,6,6,1,6,18,6,,,,,,,,4.2,1430.8388203,1435.0413215999997,1435.04099402,0.3018753999999717,1435.4866078,1435.4866078,m,0.4763140999998541,1437.5199847,1437.5199847,45,1.504,,,sub-042,30,60,700,bloc_loop.csv,2023-08-21_16h48.05.711,PainUncertainty,2022.2.5,143.45432270908012,
aigu,forte,stimuli/660Hz,stimuli/forte,bloc_7,prob80hthp_12trials.xlsx,2,24,80,20,1,,,,,0,6,6,6,1,7,19,7,,,,,,,,4.6,1437.5199847,1442.1250717999997,1442.12496372,0.30495169999994687,1442.5697148999998,1442.5697148999998,m,0.5598715999999513,1445.2755315999998,1445.2755315999998,44,2.081,,,sub-042,30,60,700,bloc_loop.csv,2023-08-21_16h48.05.711,PainUncertainty,2022.2.5,143.45432270908012,
aigu,moderee,stimuli/660Hz,stimuli/moderee,bloc_7,prob80hthp_12trials.xlsx,2,24,80,20,1,,,,,0,6,6,6,1,8,20,11,,,,,,,,3.3,1445.2755315999998,1448.5778028,1448.5774979199998,0.3048171000000366,1449.0219444999998,1449.0219444999998,n,0.55418520000012,1452.5659745999997,1452.5659745999997,2,2.926,,,sub-042,30,60,700,bloc_loop.csv,2023-08-21_16h48.05.711,PainUncertainty,2022.2.5,143.45432270908012,
aigu,forte,stimuli/660Hz,stimuli/forte,bloc_7,prob80hthp_12trials.xlsx,2,24,80,20,1,,,,,0,6,6,6,1,9,21,9,,,,,,,,3.8,1452.5659745999997,1456.3698074999998,1456.36969562,0.30266389999997045,1456.8146699999998,1456.8146699999998,m,0.4997908999998799,1459.8397504,1459.8397504,41,2.469,,,sub-042,30,60,700,bloc_loop.csv,2023-08-21_16h48.05.711,PainUncertainty,2022.2.5,143.45432270908012,
aigu,forte,stimuli/660Hz,stimuli/forte,bloc_7,prob80hthp_12trials.xlsx,2,24,80,20,1,,,,,0,6,6,6,1,10,22,10,,,,,,,,3.6,1459.8397504,1463.4400778999998,1463.44007232,0.3014509999998154,1463.8847542999997,1463.8847542999997,m,0.5456628000001729,1465.6085976,1465.6085976,45,1.115,,,sub-042,30,60,700,bloc_loop.csv,2023-08-21_16h48.05.711,PainUncertainty,2022.2.5,143.45432270908012,
grave,moderee,stimuli/330Hz,stimuli/moderee,bloc_7,prob80hthp_12trials.xlsx,2,24,80,20,1,,,,,0,6,6,6,1,11,23,0,,,,,,,,3,1465.6085976,1468.6076954999999,1468.60763162,0.30497120000018185,1469.0522398999997,1469.0522398999997,n,0.5153521000002002,1474.6877479,1474.6877479,6,3.087,,,sub-042,30,60,700,bloc_loop.csv,2023-08-21_16h48.05.711,PainUncertainty,2022.2.5,143.45432270908012,
,,,,bloc_7,prob80hthp_12trials.xlsx,2,24,80,20,1,,,,,0,6,6,6,,,,,0,0,0,0,,,,,,,,,,,,,,,,,1474.6877479,1507.6328277999996,sub-042,30,60,700,bloc_loop.csv,2023-08-21_16h48.05.711,PainUncertainty,2022.2.5,143.45432270908012,
aigu,moderee,stimuli/660Hz,stimuli/moderee,bloc_8,prob50_50_4trials.xlsx,3,12,50,50,0,,,,,0,7,7,7,0,0,0,2,,,,,,,,4,1508.5506311,1512.5501018,1512.55015962,0.30260130000033314,1512.9959706,1512.9959706,n,0.45526079999990543,1514.6398382999996,1514.6398382999996,5,1.13,,,sub-042,30,60,700,bloc_loop.csv,2023-08-21_16h48.05.711,PainUncertainty,2022.2.5,143.45432270908012,
grave,forte,stimuli/330Hz,stimuli/forte,bloc_8,prob50_50_4trials.xlsx,3,12,50,50,0,,,,,0,7,7,7,0,1,1,1,,,,,,,,3.7,1514.6398382999996,1518.342483,1518.34229412,0.3049599999999373,1518.7866083999997,1518.7866083999997,m,0.4168890000000829,1520.9707386,1520.9707386,45,1.705,,,sub-042,30,60,700,bloc_loop.csv,2023-08-21_16h48.05.711,PainUncertainty,2022.2.5,143.45432270908012,
aigu,forte,stimuli/660Hz,stimuli/forte,bloc_8,prob50_50_4trials.xlsx,3,12,50,50,0,,,,,0,7,7,7,0,2,2,3,,,,,,,,4.2,1520.9707386,1525.1766205,1525.1764763199997,0.3050008999998681,1525.6210127999998,1525.6210127999998,m,0.5515897000000223,1527.7165645,1527.7165645,42,1.489,,,sub-042,30,60,700,bloc_loop.csv,2023-08-21_16h48.05.711,PainUncertainty,2022.2.5,143.45432270908012,
grave,moderee,stimuli/330Hz,stimuli/moderee,bloc_8,prob50_50_4trials.xlsx,3,12,50,50,0,,,,,0,7,7,7,0,3,3,0,,,,,,,,5,1527.7165645,1532.7192542999996,1532.7190754199999,0.3049424999999246,1533.163259,1533.163259,n,0.38550359999999273,1536.7829775,1536.7829775,4,3.171,,,sub-042,30,60,700,bloc_loop.csv,2023-08-21_16h48.05.711,PainUncertainty,2022.2.5,143.45432270908012,
grave,moderee,stimuli/330Hz,stimuli/moderee,bloc_8,prob50_50_4trials.xlsx,3,12,50,50,0,,,,,0,7,7,7,1,0,4,0,,,,,,,,3,1536.7829775,1539.7824269999996,1539.7824868199998,0.3051258999998936,1540.2266479999998,1540.2266479999998,n,0.406677800000125,1543.2876072,1543.2876072,7,2.6,,,sub-042,30,60,700,bloc_loop.csv,2023-08-21_16h48.05.711,PainUncertainty,2022.2.5,143.45432270908012,
aigu,moderee,stimuli/660Hz,stimuli/moderee,bloc_8,prob50_50_4trials.xlsx,3,12,50,50,0,,,,,0,7,7,7,1,1,5,2,,,,,,,,3.7,1543.2876072,1546.9916105999996,1546.99153972,0.3052128999997876,1547.4360951999997,1547.4360951999997,n,0.7483510000001843,1552.2402155,1552.2402155,3,4.004,,,sub-042,30,60,700,bloc_loop.csv,2023-08-21_16h48.05.711,PainUncertainty,2022.2.5,143.45432270908012,
aigu,forte,stimuli/660Hz,stimuli/forte,bloc_8,prob50_50_4trials.xlsx,3,12,50,50,0,,,,,0,7,7,7,1,2,6,3,,,,,,,,3.9,1552.2402155,1556.1455314,1556.1458393199998,0.30463430000008884,1556.5897652999997,1556.5897652999997,m,0.6208110000002307,1559.0360385,1559.0360385,43,1.767,,,sub-042,30,60,700,bloc_loop.csv,2023-08-21_16h48.05.711,PainUncertainty,2022.2.5,143.45432270908012,
grave,forte,stimuli/330Hz,stimuli/forte,bloc_8,prob50_50_4trials.xlsx,3,12,50,50,0,,,,,0,7,7,7,1,3,7,1,,,,,,,,3,1559.0360385,1562.0354548,1562.03525912,0.30533969999987676,1562.4816019,1562.4816019,m,0.7269409000000451,1565.3982701999998,1565.3982701999998,40,2.127,,,sub-042,30,60,700,bloc_loop.csv,2023-08-21_16h48.05.711,PainUncertainty,2022.2.5,143.45432270908012,
aigu,forte,stimuli/660Hz,stimuli/forte,bloc_8,prob50_50_4trials.xlsx,3,12,50,50,0,,,,,0,7,7,7,2,0,8,3,,,,,,,,3,1565.3982701999998,1568.3976641999998,1568.39742812,0.305388899999798,1568.8463979999997,1568.8463979999997,m,0.5456659999999829,1571.728654,1571.728654,42,2.269,,,sub-042,30,60,700,bloc_loop.csv,2023-08-21_16h48.05.711,PainUncertainty,2022.2.5,143.45432270908012,
aigu,moderee,stimuli/660Hz,stimuli/moderee,bloc_8,prob50_50_4trials.xlsx,3,12,50,50,0,,,,,0,7,7,7,2,1,9,2,,,,,,,,4.1,1571.728654,1575.8286270999997,1575.82841902,0.30515839999998207,1576.2730738999999,1576.2730738999999,n,0.5777236999997513,1579.9146582999997,1579.9146582999997,6,2.998,,,sub-042,30,60,700,bloc_loop.csv,2023-08-21_16h48.05.711,PainUncertainty,2022.2.5,143.45432270908012,
grave,moderee,stimuli/330Hz,stimuli/moderee,bloc_8,prob50_50_4trials.xlsx,3,12,50,50,0,,,,,0,7,7,7,2,2,10,0,,,,,,,,4.1,1579.9146582999997,1584.0169127999998,1584.01681532,0.30525360000001456,1584.461272,1584.461272,n,0.4391098000000966,1586.3874800999997,1586.3874800999997,3,1.419,,,sub-042,30,60,700,bloc_loop.csv,2023-08-21_16h48.05.711,PainUncertainty,2022.2.5,143.45432270908012,
grave,forte,stimuli/330Hz,stimuli/forte,bloc_8,prob50_50_4trials.xlsx,3,12,50,50,0,,,,,0,7,7,7,2,3,11,1,,,,,,,,3.8,1586.3874800999997,1590.1913943,1590.19134912,0.3045455999999831,1590.6354078999998,1590.6354078999998,m,0.45953000000008615,1592.9737523,1592.9737523,42,1.816,,,sub-042,30,60,700,bloc_loop.csv,2023-08-21_16h48.05.711,PainUncertainty,2022.2.5,143.45432270908012,
aigu,moderee,stimuli/660Hz,stimuli/moderee,bloc_9,prob20hthp_12trials.xlsx,3,36,80,20,0,,,,,0,8,8,8,0,0,0,6,,,,,,,,4.6,1592.9737523,1597.5740028999999,1597.57387512,0.3051637999997183,1598.0182640999997,1598.0182640999997,n,0.5622724999998354,1601.0790635999997,1601.0790635999997,4,2.449,,,sub-042,30,60,700,bloc_loop.csv,2023-08-21_16h48.05.711,PainUncertainty,2022.2.5,143.45432270908012,
aigu,forte,stimuli/660Hz,stimuli/forte,bloc_9,prob20hthp_12trials.xlsx,3,36,80,20,0,,,,,0,8,8,8,0,1,1,11,,,,,,,,4.2,1601.0790635999997,1605.2832510999997,1605.2831089199997,0.30514110000012806,1605.7275412999998,1605.7275412999998,m,1.3299745999997867,1609.3620701,1609.3620701,42,2.247,,,sub-042,30,60,700,bloc_loop.csv,2023-08-21_16h48.05.711,PainUncertainty,2022.2.5,143.45432270908012,
grave,moderee,stimuli/330Hz,stimuli/moderee,bloc_9,prob20hthp_12trials.xlsx,3,36,80,20,0,,,,,0,8,8,8,0,2,2,5,,,,,,,,3.9,1609.3620701,1613.2633342,1613.26316242,0.30521409999983007,1613.7083343,1613.7083343,n,0.9957352999999785,1618.0412702999997,1618.0412702999997,5,3.275,,,sub-042,30,60,700,bloc_loop.csv,2023-08-21_16h48.05.711,PainUncertainty,2022.2.5,143.45432270908012,
grave,forte,stimuli/330Hz,stimuli/forte,bloc_9,prob20hthp_12trials.xlsx,3,36,80,20,0,,,,,0,8,8,8,0,3,3,1,,,,,,,,3.6,1618.0412702999997,1621.6467112999999,1621.6471651199997,0.30456969999977446,1622.0943248999997,1622.0943248999997,m,0.6246936000002279,1625.1564531,1625.1564531,42,2.371,,,sub-042,30,60,700,bloc_loop.csv,2023-08-21_16h48.05.711,PainUncertainty,2022.2.5,143.45432270908012,
aigu,moderee,stimuli/660Hz,stimuli/moderee,bloc_9,prob20hthp_12trials.xlsx,3,36,80,20,0,,,,,0,8,8,8,0,4,4,10,,,,,,,,4.8,1625.1564531,1629.9598667,1629.95975092,0.29934830000001966,1630.4043686999998,1630.4043686999998,n,0.5576700999999957,1633.1637889999997,1633.1637889999997,5,2.138,,,sub-042,30,60,700,bloc_loop.csv,2023-08-21_16h48.05.711,PainUncertainty,2022.2.5,143.45432270908012,
aigu,moderee,stimuli/660Hz,stimuli/moderee,bloc_9,prob20hthp_12trials.xlsx,3,36,80,20,0,,,,,0,8,8,8,0,5,5,7,,,,,,,,4.5,1633.1637889999997,1637.6694125999998,1637.6692562199999,0.304987600000004,1638.1132785999998,1638.1132785999998,n,0.461996900000031,1640.9665102,1640.9665102,6,2.33,,,sub-042,30,60,700,bloc_loop.csv,2023-08-21_16h48.05.711,PainUncertainty,2022.2.5,143.45432270908012,
aigu,moderee,stimuli/660Hz,stimuli/moderee,bloc_9,prob20hthp_12trials.xlsx,3,36,80,20,0,,,,,0,8,8,8,0,6,6,8,,,,,,,,3.7,1640.9665102,1644.6699845999997,1644.66982832,0.30093619999979637,1645.1146948,1645.1146948,n,0.5107499999999163,1648.9275659,1648.9275659,4,3.241,,,sub-042,30,60,700,bloc_loop.csv,2023-08-21_16h48.05.711,PainUncertainty,2022.2.5,143.45432270908012,
aigu,moderee,stimuli/660Hz,stimuli/moderee,bloc_9,prob20hthp_12trials.xlsx,3,36,80,20,0,,,,,0,8,8,8,0,7,7,9,,,,,,,,3.2,1648.9275659,1652.1291939999996,1652.12902362,0.30513890000020183,1652.5772465,1652.5772465,n,0.7694882000000689,1657.0500094,1657.0500094,6,3.637,,,sub-042,30,60,700,bloc_loop.csv,2023-08-21_16h48.05.711,PainUncertainty,2022.2.5,143.45432270908012,
grave,forte,stimuli/330Hz,stimuli/forte,bloc_9,prob20hthp_12trials.xlsx,3,36,80,20,0,,,,,0,8,8,8,0,8,8,4,,,,,,,,4.2,1657.0500094,1661.2556657,1661.2554702199998,0.30514860000039334,1661.7033856999997,1661.7033856999997,m,0.44508159999986674,1664.2742915999997,1664.2742915999997,43,2.065,,,sub-042,30,60,700,bloc_loop.csv,2023-08-21_16h48.05.711,PainUncertainty,2022.2.5,143.45432270908012,
grave,forte,stimuli/330Hz,stimuli/forte,bloc_9,prob20hthp_12trials.xlsx,3,36,80,20,0,,,,,0,8,8,8,0,9,9,2,,,,,,,,3.8,1664.2742915999997,1668.0759162,1668.0756721199998,0.3051445999999487,1668.5197567999999,1668.5197567999999,m,0.44748900000013236,1671.1334376999998,1671.1334376999998,40,2.108,,,sub-042,30,60,700,bloc_loop.csv,2023-08-21_16h48.05.711,PainUncertainty,2022.2.5,143.45432270908012,
grave,forte,stimuli/330Hz,stimuli/forte,bloc_9,prob20hthp_12trials.xlsx,3,36,80,20,0,,,,,0,8,8,8,0,10,10,0,,,,,,,,4.3,1671.1334376999998,1675.4374893999998,1675.4374529199997,0.3047197999999298,1675.8817368999999,1675.8817368999999,m,0.45285469999998895,1677.2248560999997,1677.2248560999997,40,0.831,,,sub-042,30,60,700,bloc_loop.csv,2023-08-21_16h48.05.711,PainUncertainty,2022.2.5,143.45432270908012,
grave,forte,stimuli/330Hz,stimuli/forte,bloc_9,prob20hthp_12trials.xlsx,3,36,80,20,0,,,,,0,8,8,8,0,11,11,3,,,,,,,,3.7,1677.2248560999997,1680.9248595,1680.9247339199999,0.304797299999791,1681.3730173999998,1681.3730173999998,m,0.6771122999998624,1684.4008731999998,1684.4008731999998,41,2.293,,,sub-042,30,60,700,bloc_loop.csv,2023-08-21_16h48.05.711,PainUncertainty,2022.2.5,143.45432270908012,
grave,forte,stimuli/330Hz,stimuli/forte,bloc_9,prob20hthp_12trials.xlsx,3,36,80,20,0,,,,,0,8,8,8,1,0,12,2,,,,,,,,3.7,1684.4008731999998,1688.1057572999998,1688.10564852,0.30534140000008847,1688.5546175999998,1688.5546175999998,m,1.445265400000153,1691.8833147,1691.8833147,42,1.828,,,sub-042,30,60,700,bloc_loop.csv,2023-08-21_16h48.05.711,PainUncertainty,2022.2.5,143.45432270908012,
grave,forte,stimuli/330Hz,stimuli/forte,bloc_9,prob20hthp_12trials.xlsx,3,36,80,20,0,,,,,0,8,8,8,1,1,13,4,,,,,,,,3.4,1691.8833147,1695.287159,1695.2870108199998,0.305359700000281,1695.7336742999996,1695.7336742999996,m,0.5139954999999645,1698.8397677999997,1698.8397677999997,42,2.525,,,sub-042,30,60,700,bloc_loop.csv,2023-08-21_16h48.05.711,PainUncertainty,2022.2.5,143.45432270908012,
grave,moderee,stimuli/330Hz,stimuli/moderee,bloc_9,prob20hthp_12trials.xlsx,3,36,80,20,0,,,,,0,8,8,8,1,2,14,5,,,,,,,,4.9,1698.8397677999997,1703.7394133999996,1703.7392899199997,0.30551070000001346,1704.1838270999997,1704.1838270999997,n,0.4636015999999472,1706.1747421,1706.1747421,6,1.47,,,sub-042,30,60,700,bloc_loop.csv,2023-08-21_16h48.05.711,PainUncertainty,2022.2.5,143.45432270908012,
grave,forte,stimuli/330Hz,stimuli/forte,bloc_9,prob20hthp_12trials.xlsx,3,36,80,20,0,,,,,0,8,8,8,1,3,15,1,,,,,,,,4.5,1706.1747421,1710.6779591999998,1710.6776484199997,0.29936399999996866,1711.1163391999999,1711.1163391999999,m,0.5465128999999251,1713.0971204999996,1713.0971204999996,42,1.385,,,sub-042,30,60,700,bloc_loop.csv,2023-08-21_16h48.05.711,PainUncertainty,2022.2.5,143.45432270908012,
grave,forte,stimuli/330Hz,stimuli/forte,bloc_9,prob20hthp_12trials.xlsx,3,36,80,20,0,,,,,0,8,8,8,1,4,16,0,,,,,,,,3,1713.0971204999996,1716.1019228,1716.1018240199999,0.3051717000003009,1716.5461711999997,1716.5461711999997,m,1.1026655999999093,1718.9818957999996,1718.9818957999996,40,1.275,,,sub-042,30,60,700,bloc_loop.csv,2023-08-21_16h48.05.711,PainUncertainty,2022.2.5,143.45432270908012,
aigu,moderee,stimuli/660Hz,stimuli/moderee,bloc_9,prob20hthp_12trials.xlsx,3,36,80,20,0,,,,,0,8,8,8,1,5,17,10,,,,,,,,4.7,1718.9818957999996,1723.6863676999997,1723.6860974199997,0.30471980000038457,1724.1304384999999,1724.1304384999999,n,0.4549904000000424,1726.9416606999998,1726.9416606999998,4,2.304,,,sub-042,30,60,700,bloc_loop.csv,2023-08-21_16h48.05.711,PainUncertainty,2022.2.5,143.45432270908012,
aigu,moderee,stimuli/660Hz,stimuli/moderee,bloc_9,prob20hthp_12trials.xlsx,3,36,80,20,0,,,,,0,8,8,8,1,6,18,9,,,,,,,,4.7,1726.9416606999998,1731.6456627999996,1731.6455024199997,0.30578349999996135,1732.0931007,1732.0931007,n,0.5161588999999367,1734.3280181999999,1734.3280181999999,4,1.657,,,sub-042,30,60,700,bloc_loop.csv,2023-08-21_16h48.05.711,PainUncertainty,2022.2.5,143.45432270908012,
aigu,moderee,stimuli/660Hz,stimuli/moderee,bloc_9,prob20hthp_12trials.xlsx,3,36,80,20,0,,,,,0,8,8,8,1,7,19,8,,,,,,,,3.1,1734.3280181999999,1737.4308541999999,1737.43079062,0.3049874999996973,1737.8756411999998,1737.8756411999998,n,0.46341149999989284,1741.9547814999996,1741.9547814999996,5,3.562,,,sub-042,30,60,700,bloc_loop.csv,2023-08-21_16h48.05.711,PainUncertainty,2022.2.5,143.45432270908012,
aigu,forte,stimuli/660Hz,stimuli/forte,bloc_9,prob20hthp_12trials.xlsx,3,36,80,20,0,,,,,0,8,8,8,1,8,20,11,,,,,,,,4.6,1741.9547814999996,1746.5570555,1746.5568175199999,0.3053023999996185,1747.0011878,1747.0011878,m,0.5110961000000316,1750.6017241,1750.6017241,43,3.037,,,sub-042,30,60,700,bloc_loop.csv,2023-08-21_16h48.05.711,PainUncertainty,2022.2.5,143.45432270908012,
aigu,moderee,stimuli/660Hz,stimuli/moderee,bloc_9,prob20hthp_12trials.xlsx,3,36,80,20,0,,,,,0,8,8,8,1,9,21,7,,,,,,,,4.6,1750.6017241,1755.2043184999998,1755.2042094199999,0.3051637000003211,1755.6521906999997,1755.6521906999997,n,0.7711917999999969,1759.4745958999997,1759.4745958999997,6,2.99,,,sub-042,30,60,700,bloc_loop.csv,2023-08-21_16h48.05.711,PainUncertainty,2022.2.5,143.45432270908012,
grave,forte,stimuli/330Hz,stimuli/forte,bloc_9,prob20hthp_12trials.xlsx,3,36,80,20,0,,,,,0,8,8,8,1,10,22,3,,,,,,,,4.4,1759.4745958999997,1763.8789675999997,1763.8803356199999,0.3035205000001042,1764.3272362999996,1764.3272362999996,m,0.5246449999999641,1767.6120959999998,1767.6120959999998,42,2.706,,,sub-042,30,60,700,bloc_loop.csv,2023-08-21_16h48.05.711,PainUncertainty,2022.2.5,143.45432270908012,
aigu,moderee,stimuli/660Hz,stimuli/moderee,bloc_9,prob20hthp_12trials.xlsx,3,36,80,20,0,,,,,0,8,8,8,1,11,23,6,,,,,,,,4.9,1767.6120959999998,1772.5119267,1772.51189822,0.3010618000002978,1772.9564547,1772.9564547,n,0.5014621000000261,1776.5160345999998,1776.5160345999998,3,2.997,,,sub-042,30,60,700,bloc_loop.csv,2023-08-21_16h48.05.711,PainUncertainty,2022.2.5,143.45432270908012,
grave,moderee,stimuli/330Hz,stimuli/moderee,bloc_9,prob20hthp_12trials.xlsx,3,36,80,20,0,,,,,0,8,8,8,2,0,24,5,,,,,,,,3.2,1776.5160345999998,1779.7207211,1779.72083842,0.30477669999982027,1780.1650179999997,1780.1650179999997,n,0.4965511999998853,1784.0781638999997,1784.0781638999997,2,3.358,,,sub-042,30,60,700,bloc_loop.csv,2023-08-21_16h48.05.711,PainUncertainty,2022.2.5,143.45432270908012,
aigu,moderee,stimuli/660Hz,stimuli/moderee,bloc_9,prob20hthp_12trials.xlsx,3,36,80,20,0,,,,,0,8,8,8,2,1,25,10,,,,,,,,4.9,1784.0781638999997,1788.9790472999998,1788.9788708199997,0.3049516000000949,1789.4228251,1789.4228251,n,0.8955633000000489,1795.2868959999996,1795.2868959999996,5,4.907,,,sub-042,30,60,700,bloc_loop.csv,2023-08-21_16h48.05.711,PainUncertainty,2022.2.5,143.45432270908012,
aigu,moderee,stimuli/660Hz,stimuli/moderee,bloc_9,prob20hthp_12trials.xlsx,3,36,80,20,0,,,,,0,8,8,8,2,2,26,6,,,,,,,,5,1795.2868959999996,1800.2926472999998,1800.2923785199998,0.30506629999990764,1800.7368090999998,1800.7368090999998,n,0.5195220000000518,1804.3810301999997,1804.3810301999997,4,3.073,,,sub-042,30,60,700,bloc_loop.csv,2023-08-21_16h48.05.711,PainUncertainty,2022.2.5,143.45432270908012,
grave,forte,stimuli/330Hz,stimuli/forte,bloc_9,prob20hthp_12trials.xlsx,3,36,80,20,0,,,,,0,8,8,8,2,3,27,3,,,,,,,,4,1804.3810301999997,1808.3838446999998,1808.3836903199997,0.30526300000019546,1808.8352959,1808.8352959,m,0.5505782000000181,1810.9046466999998,1810.9046466999998,41,1.46,,,sub-042,30,60,700,bloc_loop.csv,2023-08-21_16h48.05.711,PainUncertainty,2022.2.5,143.45432270908012,
grave,forte,stimuli/330Hz,stimuli/forte,bloc_9,prob20hthp_12trials.xlsx,3,36,80,20,0,,,,,0,8,8,8,2,4,28,1,,,,,,,,3.5,1810.9046466999998,1814.4052824999999,1814.40524622,0.30492640000011306,1814.8496320999998,1814.8496320999998,m,0.45988690000012866,1817.7795520999998,1817.7795520999998,43,2.407,,,sub-042,30,60,700,bloc_loop.csv,2023-08-21_16h48.05.711,PainUncertainty,2022.2.5,143.45432270908012,
aigu,moderee,stimuli/660Hz,stimuli/moderee,bloc_9,prob20hthp_12trials.xlsx,3,36,80,20,0,,,,,0,8,8,8,2,5,29,7,,,,,,,,3.3,1817.7795520999998,1821.0802940999997,1821.0802744199998,0.3016387000002396,1821.5254554999997,1821.5254554999997,n,0.416251199999806,1825.4513659,1825.4513659,4,3.462,,,sub-042,30,60,700,bloc_loop.csv,2023-08-21_16h48.05.711,PainUncertainty,2022.2.5,143.45432270908012,
aigu,moderee,stimuli/660Hz,stimuli/moderee,bloc_9,prob20hthp_12trials.xlsx,3,36,80,20,0,,,,,0,8,8,8,2,6,30,9,,,,,,,,4.3,1825.4513659,1829.754426,1829.75435622,0.30500519999986864,1830.203332,1830.203332,n,0.6879205000000184,1833.9736976,1833.9736976,6,3.017,,,sub-042,30,60,700,bloc_loop.csv,2023-08-21_16h48.05.711,PainUncertainty,2022.2.5,143.45432270908012,
aigu,forte,stimuli/660Hz,stimuli/forte,bloc_9,prob20hthp_12trials.xlsx,3,36,80,20,0,,,,,0,8,8,8,2,7,31,11,,,,,,,,3.2,1833.9736976,1837.1788202999996,1837.17870832,0.3051626999999826,1837.6230957999996,1837.6230957999996,m,0.5438829999998234,1840.3687977,1840.3687977,42,2.137,,,sub-042,30,60,700,bloc_loop.csv,2023-08-21_16h48.05.711,PainUncertainty,2022.2.5,143.45432270908012,
grave,forte,stimuli/330Hz,stimuli/forte,bloc_9,prob20hthp_12trials.xlsx,3,36,80,20,0,,,,,0,8,8,8,2,8,32,2,,,,,,,,4.4,1840.3687977,1844.7701293,1844.76993832,0.3049599000000853,1845.2142887,1845.2142887,m,0.431974000000082,1848.1364257999999,1848.1364257999999,40,2.425,,,sub-042,30,60,700,bloc_loop.csv,2023-08-21_16h48.05.711,PainUncertainty,2022.2.5,143.45432270908012,
grave,forte,stimuli/330Hz,stimuli/forte,bloc_9,prob20hthp_12trials.xlsx,3,36,80,20,0,,,,,0,8,8,8,2,9,33,4,,,,,,,,3.6,1848.1364257999999,1851.7361720999997,1851.73612522,0.3050575000002027,1852.1808598999996,1852.1808598999996,m,0.7342036000000007,1854.7555304999996,1854.7555304999996,43,1.782,,,sub-042,30,60,700,bloc_loop.csv,2023-08-21_16h48.05.711,PainUncertainty,2022.2.5,143.45432270908012,
aigu,moderee,stimuli/660Hz,stimuli/moderee,bloc_9,prob20hthp_12trials.xlsx,3,36,80,20,0,,,,,0,8,8,8,2,10,34,8,,,,,,,,3.8,1854.7555304999996,1858.5564295999998,1858.55631822,0.305249399999866,1859.0006828,1859.0006828,n,0.4001038999999764,1861.9194764,1861.9194764,4,2.456,,,sub-042,30,60,700,bloc_loop.csv,2023-08-21_16h48.05.711,PainUncertainty,2022.2.5,143.45432270908012,
grave,forte,stimuli/330Hz,stimuli/forte,bloc_9,prob20hthp_12trials.xlsx,3,36,80,20,0,,,,,0,8,8,8,2,11,35,0,,,,,,,,3.2,1861.9194764,1865.1201935,1865.12001562,0.3012368999998216,1865.5647725999997,1865.5647725999997,m,0.5826113999996778,1867.8960772,1867.8960772,43,1.725,,,sub-042,30,60,700,bloc_loop.csv,2023-08-21_16h48.05.711,PainUncertainty,2022.2.5,143.45432270908012,
