cue_,stimulus_,cue_fichier,stimulus_fichier,block_name,block_trials_file,block_n_reps,block_ntrials,block_prob_highP_highT,block_prob_highP_lowT,block_pause_after,Bloc_essai.thisRepN,Bloc_essai.thisTrialN,Bloc_essai.thisN,Bloc_essai.thisIndex,blocks.thisRepN,blocks.thisTrialN,blocks.thisN,blocks.thisIndex,trials.thisRepN,trials.thisTrialN,trials.thisN,trials.thisIndex,pause_loop.thisRepN,pause_loop.thisTrialN,pause_loop.thisN,pause_loop.thisIndex,key_resp_5.started,start_calib.started,key_resp_2.started,ISI_duration,pause.started,pause.stopped,cue.started,ISI.started,choice_pain.started,Choice.started,choice_pain.keys,choice_pain.rt,main_text.started,confirm_text.started,ratingScale.response,ratingScale.rt,choice_pain.stopped,Choice.stopped,key_resp_3.started,participant,low_ma,high_ma,failsafe_ma,block_file,date,expName,psychopyVersion,frameRate
aigu,moderee,stimuli/660Hz,stimuli/moderee,,,,,,,,0,0,0,2,,,,,,,,,,,,,29.1529662,188.9453542,245.4313283,3.4,248.0578098,251.4656714,251.4666865,0.3059761,251.9048184,251.9048184,m,1.9452758,258.6768528,258.6768528,38,4.743,,,,sub-036,145,235,700,bloc_loop.csv,2023-07-05_10h26.51.729,PainUncertainty,2022.2.5,142.8967457
grave,forte,stimuli/330Hz,stimuli/forte,,,,,,,,0,1,1,1,,,,,,,,,,,,,,,,4.4,258.6768528,263.0821362,263.0867432,0.304626,263.524163,263.524163,m,1.03123,266.7143372,266.7143372,55,2.08,,,,sub-036,145,235,700,bloc_loop.csv,2023-07-05_10h26.51.729,PainUncertainty,2022.2.5,142.8967457
grave,moderee,stimuli/330Hz,stimuli/moderee,,,,,,,,0,2,2,0,,,,,,,,,,,,,,,,3.4,266.7143372,270.1158156,270.1156088,0.3049415,270.5638863,270.5638863,n,0.9870532,274.3531746,274.3531746,30,2.731,,,,sub-036,145,235,700,bloc_loop.csv,2023-07-05_10h26.51.729,PainUncertainty,2022.2.5,142.8967457
aigu,forte,stimuli/660Hz,stimuli/forte,,,,,,,,0,3,3,3,,,,,,,,,,,,,,,,4.8,274.3531746,279.1578422,279.1578557,0.3049201,279.6020173,279.6020173,m,0.954677,282.5310913,282.5310913,55,1.949,,,,sub-036,145,235,700,bloc_loop.csv,2023-07-05_10h26.51.729,PainUncertainty,2022.2.5,142.8967457
aigu,moderee,stimuli/660Hz,stimuli/moderee,bloc_1,prob20hthp_12trials.xlsx,4,48,20,80,0,,,,,0,0,0,0,0,0,0,7,,,,,,,,3.8,310.8197737,314.6207894,314.6207182,0.301321,315.0650805,315.0650805,n,0.9581021,318.1192778,318.1192778,22,2.045,,,,sub-036,145,235,700,bloc_loop.csv,2023-07-05_10h26.51.729,PainUncertainty,2022.2.5,142.8967457
aigu,moderee,stimuli/660Hz,stimuli/moderee,bloc_1,prob20hthp_12trials.xlsx,4,48,20,80,0,,,,,0,0,0,0,0,1,1,6,,,,,,,,4.7,318.1192778,322.8226553,322.8227357,0.3049992,323.2669705,323.2669705,n,0.8140348,325.6298815,325.6298815,20,1.483,,,,sub-036,145,235,700,bloc_loop.csv,2023-07-05_10h26.51.729,PainUncertainty,2022.2.5,142.8967457
aigu,moderee,stimuli/660Hz,stimuli/moderee,bloc_1,prob20hthp_12trials.xlsx,4,48,20,80,0,,,,,0,0,0,0,0,2,2,9,,,,,,,,4.5,325.6298815,330.129481,330.1295672,0.3047702,330.5732499,330.5732499,n,0.7227764,334.6100648,334.6100648,18,3.253,,,,sub-036,145,235,700,bloc_loop.csv,2023-07-05_10h26.51.729,PainUncertainty,2022.2.5,142.8967457
grave,moderee,stimuli/330Hz,stimuli/moderee,bloc_1,prob20hthp_12trials.xlsx,4,48,20,80,0,,,,,0,0,0,0,0,3,3,5,,,,,,,,4.9,334.6100648,339.512704,339.5126959,0.3050943,339.9599908,339.9599908,n,1.0097842,343.0488717,343.0488717,20,2.017,,,,sub-036,145,235,700,bloc_loop.csv,2023-07-05_10h26.51.729,PainUncertainty,2022.2.5,142.8967457
aigu,moderee,stimuli/660Hz,stimuli/moderee,bloc_1,prob20hthp_12trials.xlsx,4,48,20,80,0,,,,,0,0,0,0,0,4,4,10,,,,,,,,4.3,343.0488717,347.3534775,347.353474,0.3052015,347.7977331,347.7977331,n,0.9490715,351.2303688,351.2303688,22,2.4,,,,sub-036,145,235,700,bloc_loop.csv,2023-07-05_10h26.51.729,PainUncertainty,2022.2.5,142.8967457
aigu,forte,stimuli/660Hz,stimuli/forte,bloc_1,prob20hthp_12trials.xlsx,4,48,20,80,0,,,,,0,0,0,0,0,5,5,11,,,,,,,,4.8,351.2303688,356.0354329,356.0353904,0.3051732,356.4834345,356.4834345,m,0.834764,360.4967138,360.4967138,49,3.114,,,,sub-036,145,235,700,bloc_loop.csv,2023-07-05_10h26.51.729,PainUncertainty,2022.2.5,142.8967457
grave,forte,stimuli/330Hz,stimuli/forte,bloc_1,prob20hthp_12trials.xlsx,4,48,20,80,0,,,,,0,0,0,0,0,6,6,0,,,,,,,,4.5,360.4967138,365.0014564,365.0015044,0.2996348,365.446304,365.446304,m,0.8687735,369.0458686,369.0458686,48,2.684,,,,sub-036,145,235,700,bloc_loop.csv,2023-07-05_10h26.51.729,PainUncertainty,2022.2.5,142.8967457
grave,forte,stimuli/330Hz,stimuli/forte,bloc_1,prob20hthp_12trials.xlsx,4,48,20,80,0,,,,,0,0,0,0,0,7,7,1,,,,,,,,4.2,369.0458686,373.2458478,373.2460421,0.3050374,373.6933232,373.6933232,m,0.8118892,376.8441663,376.8441663,48,2.281,,,,sub-036,145,235,700,bloc_loop.csv,2023-07-05_10h26.51.729,PainUncertainty,2022.2.5,142.8967457
grave,forte,stimuli/330Hz,stimuli/forte,bloc_1,prob20hthp_12trials.xlsx,4,48,20,80,0,,,,,0,0,0,0,0,8,8,3,,,,,,,,4.4,376.8441663,381.2469581,381.2467605,0.3051747,381.6946426,381.6946426,m,0.9420752,384.9930274,384.9930274,50,2.296,,,,sub-036,145,235,700,bloc_loop.csv,2023-07-05_10h26.51.729,PainUncertainty,2022.2.5,142.8967457
grave,forte,stimuli/330Hz,stimuli/forte,bloc_1,prob20hthp_12trials.xlsx,4,48,20,80,0,,,,,0,0,0,0,0,9,9,4,,,,,,,,4.7,384.9930274,389.6923288,389.6949125,0.302657,390.1382978,390.1382978,n,1.8342047,394.3905974,394.3905974,25,2.35,,,,sub-036,145,235,700,bloc_loop.csv,2023-07-05_10h26.51.729,PainUncertainty,2022.2.5,142.8967457
grave,forte,stimuli/330Hz,stimuli/forte,bloc_1,prob20hthp_12trials.xlsx,4,48,20,80,0,,,,,0,0,0,0,0,10,10,2,,,,,,,,4.8,394.3905974,399.1932371,399.1933036,0.304842,399.6373256,399.6373256,m,1.5286189,404.1386423,404.1386423,40,2.892,,,,sub-036,145,235,700,bloc_loop.csv,2023-07-05_10h26.51.729,PainUncertainty,2022.2.5,142.8967457
aigu,moderee,stimuli/660Hz,stimuli/moderee,bloc_1,prob20hthp_12trials.xlsx,4,48,20,80,0,,,,,0,0,0,0,0,11,11,8,,,,,,,,4.8,404.1386423,408.9444495,408.9444402,0.3048744,409.3884625,409.3884625,n,1.1419391,413.9645365,413.9645365,17,3.35,,,,sub-036,145,235,700,bloc_loop.csv,2023-07-05_10h26.51.729,PainUncertainty,2022.2.5,142.8967457
grave,forte,stimuli/330Hz,stimuli/forte,bloc_1,prob20hthp_12trials.xlsx,4,48,20,80,0,,,,,0,0,0,0,1,0,12,2,,,,,,,,5,413.9645365,418.9666648,418.9667119,0.2995029,419.411119,419.411119,m,1.1822457,423.1687114,423.1687114,44,2.497,,,,sub-036,145,235,700,bloc_loop.csv,2023-07-05_10h26.51.729,PainUncertainty,2022.2.5,142.8967457
aigu,moderee,stimuli/660Hz,stimuli/moderee,bloc_1,prob20hthp_12trials.xlsx,4,48,20,80,0,,,,,0,0,0,0,1,1,13,7,,,,,,,,4.6,423.1687114,427.773021,427.7729645,0.3052384,428.2208485,428.2208485,n,0.6907253,432.8835571,432.8835571,16,3.907,,,,sub-036,145,235,700,bloc_loop.csv,2023-07-05_10h26.51.729,PainUncertainty,2022.2.5,142.8967457
grave,forte,stimuli/330Hz,stimuli/forte,bloc_1,prob20hthp_12trials.xlsx,4,48,20,80,0,,,,,0,0,0,0,1,2,14,1,,,,,,,,3.5,432.8835571,436.3855639,436.3855198,0.3051457,436.8316805,436.8316805,m,1.319406,440.8102423,440.8102423,51,2.587,,,,sub-036,145,235,700,bloc_loop.csv,2023-07-05_10h26.51.729,PainUncertainty,2022.2.5,142.8967457
aigu,moderee,stimuli/660Hz,stimuli/moderee,bloc_1,prob20hthp_12trials.xlsx,4,48,20,80,0,,,,,0,0,0,0,1,3,15,9,,,,,,,,5,440.8102423,445.8098646,445.8098678,0.300237,446.2544295,446.2544295,n,1.5323236,450.9098622,450.9098622,18,3.046,,,,sub-036,145,235,700,bloc_loop.csv,2023-07-05_10h26.51.729,PainUncertainty,2022.2.5,142.8967457
grave,forte,stimuli/330Hz,stimuli/forte,bloc_1,prob20hthp_12trials.xlsx,4,48,20,80,0,,,,,0,0,0,0,1,4,16,4,,,,,,,,3.6,450.9098622,454.5123819,454.5124057,0.3049852,454.9606327,454.9606327,m,1.1818673,458.5788487,458.5788487,49,2.365,,,,sub-036,145,235,700,bloc_loop.csv,2023-07-05_10h26.51.729,PainUncertainty,2022.2.5,142.8967457
aigu,moderee,stimuli/660Hz,stimuli/moderee,bloc_1,prob20hthp_12trials.xlsx,4,48,20,80,0,,,,,0,0,0,0,1,5,17,6,,,,,,,,4.1,458.5788487,462.6801112,462.6800754,0.3011219,463.1246011,463.1246011,n,0.8711847,468.0226902,468.0226902,19,3.971,,,,sub-036,145,235,700,bloc_loop.csv,2023-07-05_10h26.51.729,PainUncertainty,2022.2.5,142.8967457
aigu,moderee,stimuli/660Hz,stimuli/moderee,bloc_1,prob20hthp_12trials.xlsx,4,48,20,80,0,,,,,0,0,0,0,1,6,18,8,,,,,,,,5,468.0226902,473.0219018,473.0221641,0.3003418,473.4661466,473.4661466,n,0.9329071,477.0977994,477.0977994,13,2.622,,,,sub-036,145,235,700,bloc_loop.csv,2023-07-05_10h26.51.729,PainUncertainty,2022.2.5,142.8967457
aigu,forte,stimuli/660Hz,stimuli/forte,bloc_1,prob20hthp_12trials.xlsx,4,48,20,80,0,,,,,0,0,0,0,1,7,19,11,,,,,,,,4.1,477.0977994,481.20312,481.203223,0.3048827,481.6477258,481.6477258,m,1.1083622,486.3994543,486.3994543,50,3.568,,,,sub-036,145,235,700,bloc_loop.csv,2023-07-05_10h26.51.729,PainUncertainty,2022.2.5,142.8967457
grave,moderee,stimuli/330Hz,stimuli/moderee,bloc_1,prob20hthp_12trials.xlsx,4,48,20,80,0,,,,,0,0,0,0,1,8,20,5,,,,,,,,4.5,486.3994543,490.8987245,490.8987852,0.3047699,491.3429147,491.3429147,n,0.9103926,496.7851865,496.7851865,18,4.462,,,,sub-036,145,235,700,bloc_loop.csv,2023-07-05_10h26.51.729,PainUncertainty,2022.2.5,142.8967457
grave,forte,stimuli/330Hz,stimuli/forte,bloc_1,prob20hthp_12trials.xlsx,4,48,20,80,0,,,,,0,0,0,0,1,9,21,3,,,,,,,,3.8,496.7851865,500.5874495,500.5874375,0.3050796,501.0316567,501.0316567,m,0.8315755,505.8279538,505.8279538,51,3.907,,,,sub-036,145,235,700,bloc_loop.csv,2023-07-05_10h26.51.729,PainUncertainty,2022.2.5,142.8967457
grave,forte,stimuli/330Hz,stimuli/forte,bloc_1,prob20hthp_12trials.xlsx,4,48,20,80,0,,,,,0,0,0,0,1,10,22,0,,,,,,,,3.1,505.8279538,508.9288408,508.9288915,0.3048219,509.3730517,509.3730517,m,0.8241705,513.9464897,513.9464897,52,3.671,,,,sub-036,145,235,700,bloc_loop.csv,2023-07-05_10h26.51.729,PainUncertainty,2022.2.5,142.8967457
aigu,moderee,stimuli/660Hz,stimuli/moderee,bloc_1,prob20hthp_12trials.xlsx,4,48,20,80,0,,,,,0,0,0,0,1,11,23,10,,,,,,,,4,513.9464897,517.9508409,517.9507745,0.3048401,518.394875,518.394875,n,1.0203379,521.7919765,521.7919765,13,2.293,,,,sub-036,145,235,700,bloc_loop.csv,2023-07-05_10h26.51.729,PainUncertainty,2022.2.5,142.8967457
grave,forte,stimuli/330Hz,stimuli/forte,bloc_1,prob20hthp_12trials.xlsx,4,48,20,80,0,,,,,0,0,0,0,2,0,24,1,,,,,,,,3,521.7919765,524.7919049,524.7919898,0.3049224,525.2360355,525.2360355,n,1.4465118,530.6450352,530.6450352,27,3.877,,,,sub-036,145,235,700,bloc_loop.csv,2023-07-05_10h26.51.729,PainUncertainty,2022.2.5,142.8967457
aigu,moderee,stimuli/660Hz,stimuli/moderee,bloc_1,prob20hthp_12trials.xlsx,4,48,20,80,0,,,,,0,0,0,0,2,1,25,9,,,,,,,,4.2,530.6450352,534.8489218,534.848849,0.3048032,535.2927343,535.2927343,n,1.1224725,538.3127375,538.3127375,19,1.843,,,,sub-036,145,235,700,bloc_loop.csv,2023-07-05_10h26.51.729,PainUncertainty,2022.2.5,142.8967457
aigu,moderee,stimuli/660Hz,stimuli/moderee,bloc_1,prob20hthp_12trials.xlsx,4,48,20,80,0,,,,,0,0,0,0,2,2,26,10,,,,,,,,3.5,538.3127375,541.8148625,541.8147583,0.305034,542.2626531,542.2626531,n,0.8835746,547.0870086,547.0870086,27,3.865,,,,sub-036,145,235,700,bloc_loop.csv,2023-07-05_10h26.51.729,PainUncertainty,2022.2.5,142.8967457
aigu,forte,stimuli/660Hz,stimuli/forte,bloc_1,prob20hthp_12trials.xlsx,4,48,20,80,0,,,,,0,0,0,0,2,3,27,11,,,,,,,,4.8,547.0870086,551.8926307,551.8925367,0.3048204,552.3364103,552.3364103,m,1.1153471,556.6419929,556.6419929,53,3.128,,,,sub-036,145,235,700,bloc_loop.csv,2023-07-05_10h26.51.729,PainUncertainty,2022.2.5,142.8967457
grave,forte,stimuli/330Hz,stimuli/forte,bloc_1,prob20hthp_12trials.xlsx,4,48,20,80,0,,,,,0,0,0,0,2,4,28,0,,,,,,,,4.1,556.6419929,560.7475302,560.7475673,0.3050885,561.1917391,561.1917391,m,1.1125155,565.8954117,565.8954117,57,3.511,,,,sub-036,145,235,700,bloc_loop.csv,2023-07-05_10h26.51.729,PainUncertainty,2022.2.5,142.8967457
aigu,moderee,stimuli/660Hz,stimuli/moderee,bloc_1,prob20hthp_12trials.xlsx,4,48,20,80,0,,,,,0,0,0,0,2,5,29,7,,,,,,,,3.5,565.8954117,569.3945027,569.3945012,0.3050819,569.8423136,569.8423136,n,0.8704097,572.3502561,572.3502561,23,1.586,,,,sub-036,145,235,700,bloc_loop.csv,2023-07-05_10h26.51.729,PainUncertainty,2022.2.5,142.8967457
aigu,moderee,stimuli/660Hz,stimuli/moderee,bloc_1,prob20hthp_12trials.xlsx,4,48,20,80,0,,,,,0,0,0,0,2,6,30,6,,,,,,,,4.1,572.3502561,576.451284,576.451262,0.3007125,576.8954281,576.8954281,n,0.9360382,580.7866789,580.7866789,15,2.903,,,,sub-036,145,235,700,bloc_loop.csv,2023-07-05_10h26.51.729,PainUncertainty,2022.2.5,142.8967457
aigu,moderee,stimuli/660Hz,stimuli/moderee,bloc_1,prob20hthp_12trials.xlsx,4,48,20,80,0,,,,,0,0,0,0,2,7,31,8,,,,,,,,4.1,580.7866789,584.889684,584.8915657,0.3031609,585.3336016,585.3336016,n,0.8566133,589.1752104,589.1752104,19,2.914,,,,sub-036,145,235,700,bloc_loop.csv,2023-07-05_10h26.51.729,PainUncertainty,2022.2.5,142.8967457
grave,forte,stimuli/330Hz,stimuli/forte,bloc_1,prob20hthp_12trials.xlsx,4,48,20,80,0,,,,,0,0,0,0,2,8,32,4,,,,,,,,4,589.1752104,593.1751237,593.175098,0.305081,593.6192613,593.6192613,m,0.9094343,598.2530597,598.2530597,61,3.651,,,,sub-036,145,235,700,bloc_loop.csv,2023-07-05_10h26.51.729,PainUncertainty,2022.2.5,142.8967457
grave,moderee,stimuli/330Hz,stimuli/moderee,bloc_1,prob20hthp_12trials.xlsx,4,48,20,80,0,,,,,0,0,0,0,2,9,33,5,,,,,,,,3.4,598.2530597,601.6557709,601.6557057,0.3051638,602.1015685,602.1015685,n,0.8506488,606.3690753,606.3690753,26,3.337,,,,sub-036,145,235,700,bloc_loop.csv,2023-07-05_10h26.51.729,PainUncertainty,2022.2.5,142.8967457
grave,forte,stimuli/330Hz,stimuli/forte,bloc_1,prob20hthp_12trials.xlsx,4,48,20,80,0,,,,,0,0,0,0,2,10,34,3,,,,,,,,4.5,606.3690753,610.8717383,610.87179,0.3053925,611.318325,611.318325,m,1.8262453,616.6599001,616.6599001,57,3.448,,,,sub-036,145,235,700,bloc_loop.csv,2023-07-05_10h26.51.729,PainUncertainty,2022.2.5,142.8967457
grave,forte,stimuli/330Hz,stimuli/forte,bloc_1,prob20hthp_12trials.xlsx,4,48,20,80,0,,,,,0,0,0,0,2,11,35,2,,,,,,,,4.4,616.6599001,621.0604435,621.0604987,0.3052365,621.5084035,621.5084035,m,1.561432,625.4797455,625.4797455,50,2.351,,,,sub-036,145,235,700,bloc_loop.csv,2023-07-05_10h26.51.729,PainUncertainty,2022.2.5,142.8967457
grave,forte,stimuli/330Hz,stimuli/forte,bloc_1,prob20hthp_12trials.xlsx,4,48,20,80,0,,,,,0,0,0,0,3,0,36,0,,,,,,,,4,625.4797455,629.4852019,629.4856181,0.3044191,629.9294677,629.9294677,m,1.5952569,634.4119413,634.4119413,57,2.823,,,,sub-036,145,235,700,bloc_loop.csv,2023-07-05_10h26.51.729,PainUncertainty,2022.2.5,142.8967457
grave,forte,stimuli/330Hz,stimuli/forte,bloc_1,prob20hthp_12trials.xlsx,4,48,20,80,0,,,,,0,0,0,0,3,1,37,3,,,,,,,,4.9,634.4119413,639.3133007,639.3139676,0.3043703,639.7616076,639.7616076,m,0.9137892,643.681073,643.681073,56,2.935,,,,sub-036,145,235,700,bloc_loop.csv,2023-07-05_10h26.51.729,PainUncertainty,2022.2.5,142.8967457
aigu,moderee,stimuli/660Hz,stimuli/moderee,bloc_1,prob20hthp_12trials.xlsx,4,48,20,80,0,,,,,0,0,0,0,3,2,38,10,,,,,,,,4.1,643.681073,647.7861944,647.786112,0.3050811,648.2302255,648.2302255,n,0.8717955,650.9517401,650.9517401,20,1.766,,,,sub-036,145,235,700,bloc_loop.csv,2023-07-05_10h26.51.729,PainUncertainty,2022.2.5,142.8967457
grave,forte,stimuli/330Hz,stimuli/forte,bloc_1,prob20hthp_12trials.xlsx,4,48,20,80,0,,,,,0,0,0,0,3,3,39,1,,,,,,,,3.4,650.9517401,654.3563475,654.3562562,0.3052024,654.8004133,654.8004133,m,1.1845412,659.1965129,659.1965129,58,3.128,,,,sub-036,145,235,700,bloc_loop.csv,2023-07-05_10h26.51.729,PainUncertainty,2022.2.5,142.8967457
aigu,moderee,stimuli/660Hz,stimuli/moderee,bloc_1,prob20hthp_12trials.xlsx,4,48,20,80,0,,,,,0,0,0,0,3,4,40,6,,,,,,,,3,659.1965129,662.1974413,662.1974341,0.3081299,662.6506215,662.6506215,n,1.7428755,666.1160014,666.1160014,24,1.657,,,,sub-036,145,235,700,bloc_loop.csv,2023-07-05_10h26.51.729,PainUncertainty,2022.2.5,142.8967457
aigu,moderee,stimuli/660Hz,stimuli/moderee,bloc_1,prob20hthp_12trials.xlsx,4,48,20,80,0,,,,,0,0,0,0,3,5,41,9,,,,,,,,5,666.1160014,671.1153561,671.1152808,0.3050479,671.5631902,671.5631902,n,0.862492,675.8620765,675.8620765,18,3.378,,,,sub-036,145,235,700,bloc_loop.csv,2023-07-05_10h26.51.729,PainUncertainty,2022.2.5,142.8967457
aigu,moderee,stimuli/660Hz,stimuli/moderee,bloc_1,prob20hthp_12trials.xlsx,4,48,20,80,0,,,,,0,0,0,0,3,6,42,8,,,,,,,,4.2,675.8620765,680.0611244,680.061085,0.3047983,680.5050467,680.5050467,n,1.1022775,684.1570569,684.1570569,21,2.47,,,,sub-036,145,235,700,bloc_loop.csv,2023-07-05_10h26.51.729,PainUncertainty,2022.2.5,142.8967457
aigu,forte,stimuli/660Hz,stimuli/forte,bloc_1,prob20hthp_12trials.xlsx,4,48,20,80,0,,,,,0,0,0,0,3,7,43,11,,,,,,,,4.2,684.1570569,688.3603851,688.3604346,0.3051883,688.8045777,688.8045777,m,0.8019198,692.0179205,692.0179205,42,2.343,,,,sub-036,145,235,700,bloc_loop.csv,2023-07-05_10h26.51.729,PainUncertainty,2022.2.5,142.8967457
grave,forte,stimuli/330Hz,stimuli/forte,bloc_1,prob20hthp_12trials.xlsx,4,48,20,80,0,,,,,0,0,0,0,3,8,44,2,,,,,,,,4.8,692.0179205,696.8197569,696.81981,0.3049077,697.2640277,697.2640277,m,0.8865556,701.0788226,701.0788226,59,2.873,,,,sub-036,145,235,700,bloc_loop.csv,2023-07-05_10h26.51.729,PainUncertainty,2022.2.5,142.8967457
grave,forte,stimuli/330Hz,stimuli/forte,bloc_1,prob20hthp_12trials.xlsx,4,48,20,80,0,,,,,0,0,0,0,3,9,45,4,,,,,,,,4.6,701.0788226,705.6820458,705.6818807,0.3053405,706.1261575,706.1261575,m,1.0708383,710.1543776,710.1543776,53,2.886,,,,sub-036,145,235,700,bloc_loop.csv,2023-07-05_10h26.51.729,PainUncertainty,2022.2.5,142.8967457
aigu,moderee,stimuli/660Hz,stimuli/moderee,bloc_1,prob20hthp_12trials.xlsx,4,48,20,80,0,,,,,0,0,0,0,3,10,46,7,,,,,,,,4.8,710.1543776,714.9539866,714.9540713,0.3050074,715.3982108,715.3982108,n,1.5952221,718.6223787,718.6223787,33,1.574,,,,sub-036,145,235,700,bloc_loop.csv,2023-07-05_10h26.51.729,PainUncertainty,2022.2.5,142.8967457
grave,moderee,stimuli/330Hz,stimuli/moderee,bloc_1,prob20hthp_12trials.xlsx,4,48,20,80,0,,,,,0,0,0,0,3,11,47,5,,,,,,,,5,718.6223787,723.621725,723.6216431,0.3051505,724.0659914,724.0659914,n,0.8854416,727.1093407,727.1093407,25,2.08,,,,sub-036,145,235,700,bloc_loop.csv,2023-07-05_10h26.51.729,PainUncertainty,2022.2.5,142.8967457
grave,forte,stimuli/330Hz,stimuli/forte,bloc_2,prob50_50_4trials.xlsx,2,8,50,50,1,,,,,0,1,1,1,0,0,0,1,,,,,,,,4.2,727.1093407,731.3105091,731.3104265,0.3004666,731.7550318,731.7550318,m,0.9518079,736.2814842,736.2814842,53,3.498,,,,sub-036,145,235,700,bloc_loop.csv,2023-07-05_10h26.51.729,PainUncertainty,2022.2.5,142.8967457
grave,moderee,stimuli/330Hz,stimuli/moderee,bloc_2,prob50_50_4trials.xlsx,2,8,50,50,1,,,,,0,1,1,1,0,1,1,0,,,,,,,,3.9,736.2814842,740.1795747,740.1807914,0.2994365,740.6241896,740.6241896,n,0.9417372,744.9092704,744.9092704,28,3.268,,,,sub-036,145,235,700,bloc_loop.csv,2023-07-05_10h26.51.729,PainUncertainty,2022.2.5,142.8967457
aigu,forte,stimuli/660Hz,stimuli/forte,bloc_2,prob50_50_4trials.xlsx,2,8,50,50,1,,,,,0,1,1,1,0,2,2,3,,,,,,,,4.7,744.9092704,749.6109616,749.6111383,0.3047617,750.0594393,750.0594393,m,1.196069,753.9077111,753.9077111,60,2.58,,,,sub-036,145,235,700,bloc_loop.csv,2023-07-05_10h26.51.729,PainUncertainty,2022.2.5,142.8967457
aigu,moderee,stimuli/660Hz,stimuli/moderee,bloc_2,prob50_50_4trials.xlsx,2,8,50,50,1,,,,,0,1,1,1,0,3,3,2,,,,,,,,3.3,753.9077111,757.2098623,757.2098328,0.3045627,757.6534235,757.6534235,n,0.7023079,761.0169462,761.0169462,36,2.609,,,,sub-036,145,235,700,bloc_loop.csv,2023-07-05_10h26.51.729,PainUncertainty,2022.2.5,142.8967457
aigu,moderee,stimuli/660Hz,stimuli/moderee,bloc_2,prob50_50_4trials.xlsx,2,8,50,50,1,,,,,0,1,1,1,1,0,4,2,,,,,,,,3.4,761.0169462,764.418451,764.4184703,0.305739,764.8668419,764.8668419,n,1.4774527,768.1592052,768.1592052,30,1.74,,,,sub-036,145,235,700,bloc_loop.csv,2023-07-05_10h26.51.729,PainUncertainty,2022.2.5,142.8967457
grave,forte,stimuli/330Hz,stimuli/forte,bloc_2,prob50_50_4trials.xlsx,2,8,50,50,1,,,,,0,1,1,1,1,1,5,1,,,,,,,,3.3,768.1592052,771.4610871,771.4610821,0.2999358,771.9058956,771.9058956,m,1.6237333,775.7021157,775.7021157,61,2.06,,,,sub-036,145,235,700,bloc_loop.csv,2023-07-05_10h26.51.729,PainUncertainty,2022.2.5,142.8967457
grave,moderee,stimuli/330Hz,stimuli/moderee,bloc_2,prob50_50_4trials.xlsx,2,8,50,50,1,,,,,0,1,1,1,1,2,6,0,,,,,,,,4.5,775.7021157,780.2050147,780.2049682,0.3053037,780.6492065,780.6492065,None,,785.3054985,785.3054985,24,2.135,783.1173331,783.1173331,,sub-036,145,235,700,bloc_loop.csv,2023-07-05_10h26.51.729,PainUncertainty,2022.2.5,142.8967457
aigu,forte,stimuli/660Hz,stimuli/forte,bloc_2,prob50_50_4trials.xlsx,2,8,50,50,1,,,,,0,1,1,1,1,3,7,3,,,,,,,,4.5,785.3054985,789.8104856,789.8104259,0.301905,790.2565087,790.2565087,m,1.1451243,797.9940905,797.9940905,67,4.559,,,,sub-036,145,235,700,bloc_loop.csv,2023-07-05_10h26.51.729,PainUncertainty,2022.2.5,142.8967457
aigu,forte,stimuli/660Hz,stimuli/forte,bloc_3,prob80hthp_12trials.xlsx,2,24,80,20,0,,,,,0,0,0,0,0,0,0,7,30.5381398,33.5202558,,,,,,3.7,45.522717,49.2265194,49.22400082,0.3049491,49.6684,49.6684,n,1.0791817,54.9949774,54.9949774,16,4.158,,,,sub-036,130,200,700,bloc_loopcontinue.csv,2023-07-05_10h45.44.119,PainUncertainty,2022.2.5,144.0994863
grave,moderee,stimuli/330Hz,stimuli/moderee,bloc_3,prob80hthp_12trials.xlsx,2,24,80,20,0,,,,,0,0,0,0,0,1,1,4,,,,,,,,4.7,54.9949774,59.6973347,59.69711352,0.3048081,60.1414248,60.1414248,n,1.3691671,65.3971847,65.3971847,20,3.809,,,,sub-036,130,200,700,bloc_loopcontinue.csv,2023-07-05_10h45.44.119,PainUncertainty,2022.2.5,144.0994863
grave,forte,stimuli/330Hz,stimuli/forte,bloc_3,prob80hthp_12trials.xlsx,2,24,80,20,0,,,,,0,0,0,0,0,2,2,5,,,,,,,,3.6,65.3971847,68.9971824,68.99682062,0.3051665,69.4451779,69.4451779,m,2.2631333,74.4252353,74.4252353,47,2.636,,,,sub-036,130,200,700,bloc_loopcontinue.csv,2023-07-05_10h45.44.119,PainUncertainty,2022.2.5,144.0994863
grave,moderee,stimuli/330Hz,stimuli/moderee,bloc_3,prob80hthp_12trials.xlsx,2,24,80,20,0,,,,,0,0,0,0,0,3,3,3,,,,,,,,4.6,74.4252353,79.0260059,79.02576722,0.3049063,79.4701714,79.4701714,n,1.3546227,84.9720778,84.9720778,23,4.079,,,,sub-036,130,200,700,bloc_loopcontinue.csv,2023-07-05_10h45.44.119,PainUncertainty,2022.2.5,144.0994863
aigu,forte,stimuli/660Hz,stimuli/forte,bloc_3,prob80hthp_12trials.xlsx,2,24,80,20,0,,,,,0,0,0,0,0,4,4,9,,,,,,,,3.6,84.9720778,88.5759634,88.57549922,0.305313,89.0202432,89.0202432,m,1.2758178,93.8873716,93.8873716,53,3.538,,,,sub-036,130,200,700,bloc_loopcontinue.csv,2023-07-05_10h45.44.119,PainUncertainty,2022.2.5,144.0994863
aigu,forte,stimuli/660Hz,stimuli/forte,bloc_3,prob80hthp_12trials.xlsx,2,24,80,20,0,,,,,0,0,0,0,0,5,5,6,,,,,,,,4.6,93.8873716,98.4866072,98.48637732,0.3050485,98.9308235,98.9308235,m,1.1099125,102.2112475,102.2112475,53,2.119,,,,sub-036,130,200,700,bloc_loopcontinue.csv,2023-07-05_10h45.44.119,PainUncertainty,2022.2.5,144.0994863
aigu,forte,stimuli/660Hz,stimuli/forte,bloc_3,prob80hthp_12trials.xlsx,2,24,80,20,0,,,,,0,0,0,0,0,6,6,10,,,,,,,,3.3,102.2112475,105.5153999,105.5150345,0.3011101,105.9600737,105.9600737,m,1.3775291,109.370246,109.370246,55,1.961,,,,sub-036,130,200,700,bloc_loopcontinue.csv,2023-07-05_10h45.44.119,PainUncertainty,2022.2.5,144.0994863
aigu,moderee,stimuli/660Hz,stimuli/moderee,bloc_3,prob80hthp_12trials.xlsx,2,24,80,20,0,,,,,0,0,0,0,0,7,7,11,,,,,,,,3.5,109.370246,112.8704829,112.8702908,0.3050424,113.3146314,113.3146314,n,1.5559541,117.215627,117.215627,27,2.288,,,,sub-036,130,200,700,bloc_loopcontinue.csv,2023-07-05_10h45.44.119,PainUncertainty,2022.2.5,144.0994863
grave,moderee,stimuli/330Hz,stimuli/moderee,bloc_3,prob80hthp_12trials.xlsx,2,24,80,20,0,,,,,0,0,0,0,0,8,8,0,,,,,,,,4.3,117.215627,121.5171517,121.5169514,0.3047548,121.961397,121.961397,n,1.1757846,127.3466579,127.3466579,21,4.148,,,,sub-036,130,200,700,bloc_loopcontinue.csv,2023-07-05_10h45.44.119,PainUncertainty,2022.2.5,144.0994863
grave,moderee,stimuli/330Hz,stimuli/moderee,bloc_3,prob80hthp_12trials.xlsx,2,24,80,20,0,,,,,0,0,0,0,0,9,9,2,,,,,,,,4.3,127.3466579,131.6504549,131.650124,0.3053557,132.0990879,132.0990879,n,1.2511484,136.2643277,136.2643277,18,2.838,,,,sub-036,130,200,700,bloc_loopcontinue.csv,2023-07-05_10h45.44.119,PainUncertainty,2022.2.5,144.0994863
aigu,forte,stimuli/660Hz,stimuli/forte,bloc_3,prob80hthp_12trials.xlsx,2,24,80,20,0,,,,,0,0,0,0,0,10,10,8,,,,,,,,4.9,136.2643277,141.1654363,141.165203,0.3050541,141.6098381,141.6098381,m,1.220992,145.0050662,145.0050662,50,2.094,,,,sub-036,130,200,700,bloc_loopcontinue.csv,2023-07-05_10h45.44.119,PainUncertainty,2022.2.5,144.0994863
grave,moderee,stimuli/330Hz,stimuli/moderee,bloc_3,prob80hthp_12trials.xlsx,2,24,80,20,0,,,,,0,0,0,0,0,11,11,1,,,,,,,,5,145.0050662,150.0068894,150.0065447,0.3047782,150.4513352,150.4513352,n,1.2049693,153.6176995,153.6176995,14,1.9,,,,sub-036,130,200,700,bloc_loopcontinue.csv,2023-07-05_10h45.44.119,PainUncertainty,2022.2.5,144.0994863
grave,moderee,stimuli/330Hz,stimuli/moderee,bloc_3,prob80hthp_12trials.xlsx,2,24,80,20,0,,,,,0,0,0,0,1,0,12,4,,,,,,,,3.4,153.6176995,157.0218656,157.0215,0.3070427,157.4732299,157.4732299,n,1.5873043,161.5278408,161.5278408,14,2.393,,,,sub-036,130,200,700,bloc_loopcontinue.csv,2023-07-05_10h45.44.119,PainUncertainty,2022.2.5,144.0994863
aigu,forte,stimuli/660Hz,stimuli/forte,bloc_3,prob80hthp_12trials.xlsx,2,24,80,20,0,,,,,0,0,0,0,1,1,13,6,,,,,,,,3.8,161.5278408,165.3284612,165.3281674,0.3050812,165.7763537,165.7763537,m,1.0136759,170.2205676,170.2205676,49,3.358,,,,sub-036,130,200,700,bloc_loopcontinue.csv,2023-07-05_10h45.44.119,PainUncertainty,2022.2.5,144.0994863
grave,moderee,stimuli/330Hz,stimuli/moderee,bloc_3,prob80hthp_12trials.xlsx,2,24,80,20,0,,,,,0,0,0,0,1,2,14,2,,,,,,,,4.6,170.2205676,174.8222361,174.8220634,0.3050011,175.2668747,175.2668747,n,1.2540143,178.2581706,178.2581706,18,1.663,,,,sub-036,130,200,700,bloc_loopcontinue.csv,2023-07-05_10h45.44.119,PainUncertainty,2022.2.5,144.0994863
aigu,forte,stimuli/660Hz,stimuli/forte,bloc_3,prob80hthp_12trials.xlsx,2,24,80,20,0,,,,,0,0,0,0,1,3,15,8,,,,,,,,3.7,178.2581706,181.9619986,181.9617228,0.3052629,182.4062611,182.4062611,m,1.2703678,186.8552228,186.8552228,52,3.108,,,,sub-036,130,200,700,bloc_loopcontinue.csv,2023-07-05_10h45.44.119,PainUncertainty,2022.2.5,144.0994863
grave,moderee,stimuli/330Hz,stimuli/moderee,bloc_3,prob80hthp_12trials.xlsx,2,24,80,20,0,,,,,0,0,0,0,1,4,16,0,,,,,,,,4.8,186.8552228,191.6577376,191.6573233,0.3051776,192.1018384,192.1018384,n,1.3352551,195.8014722,195.8014722,19,2.303,,,,sub-036,130,200,700,bloc_loopcontinue.csv,2023-07-05_10h45.44.119,PainUncertainty,2022.2.5,144.0994863
grave,moderee,stimuli/330Hz,stimuli/moderee,bloc_3,prob80hthp_12trials.xlsx,2,24,80,20,0,,,,,0,0,0,0,1,5,17,1,,,,,,,,3.5,195.8014722,199.3048362,199.3046411,0.3003541,199.7493358,199.7493358,n,0.8973498,205.1513018,205.1513018,17,4.427,,,,sub-036,130,200,700,bloc_loopcontinue.csv,2023-07-05_10h45.44.119,PainUncertainty,2022.2.5,144.0994863
aigu,forte,stimuli/660Hz,stimuli/forte,bloc_3,prob80hthp_12trials.xlsx,2,24,80,20,0,,,,,0,0,0,0,1,6,18,7,,,,,,,,4.1,205.1513018,209.2569163,209.2566416,0.3054508,209.7014089,209.7014089,m,1.257259,213.6995703,213.6995703,50,2.663,,,,sub-036,130,200,700,bloc_loopcontinue.csv,2023-07-05_10h45.44.119,PainUncertainty,2022.2.5,144.0994863
grave,moderee,stimuli/330Hz,stimuli/moderee,bloc_3,prob80hthp_12trials.xlsx,2,24,80,20,0,,,,,0,0,0,0,1,7,19,3,,,,,,,,3.1,213.6995703,216.799613,216.7994265,0.3053401,217.2443554,217.2443554,n,1.2661702,222.7122474,222.7122474,20,4.13,,,,sub-036,130,200,700,bloc_loopcontinue.csv,2023-07-05_10h45.44.119,PainUncertainty,2022.2.5,144.0994863
aigu,forte,stimuli/660Hz,stimuli/forte,bloc_3,prob80hthp_12trials.xlsx,2,24,80,20,0,,,,,0,0,0,0,1,8,20,10,,,,,,,,3.9,222.7122474,226.6132721,226.6130447,0.3049316,227.0574253,227.0574253,m,1.2034678,231.3067143,231.3067143,56,2.991,,,,sub-036,130,200,700,bloc_loopcontinue.csv,2023-07-05_10h45.44.119,PainUncertainty,2022.2.5,144.0994863
aigu,forte,stimuli/660Hz,stimuli/forte,bloc_3,prob80hthp_12trials.xlsx,2,24,80,20,0,,,,,0,0,0,0,1,9,21,9,,,,,,,,3.4,231.3067143,234.7117042,234.7117613,0.3051958,235.158226,235.158226,m,0.9092095,239.5377358,239.5377358,57,3.385,,,,sub-036,130,200,700,bloc_loopcontinue.csv,2023-07-05_10h45.44.119,PainUncertainty,2022.2.5,144.0994863
aigu,moderee,stimuli/660Hz,stimuli/moderee,bloc_3,prob80hthp_12trials.xlsx,2,24,80,20,0,,,,,0,0,0,0,1,10,22,11,,,,,,,,4.8,239.5377358,244.3377445,244.3372521,0.3051879,244.7817217,244.7817217,n,0.8423245,249.1408408,249.1408408,20,3.435,,,,sub-036,130,200,700,bloc_loopcontinue.csv,2023-07-05_10h45.44.119,PainUncertainty,2022.2.5,144.0994863
grave,forte,stimuli/330Hz,stimuli/forte,bloc_3,prob80hthp_12trials.xlsx,2,24,80,20,0,,,,,0,0,0,0,1,11,23,5,,,,,,,,3.6,249.1408408,252.7413684,252.7412095,0.305211,253.1858069,253.1858069,m,1.246805,258.2662967,258.2662967,53,3.748,,,,sub-036,130,200,700,bloc_loopcontinue.csv,2023-07-05_10h45.44.119,PainUncertainty,2022.2.5,144.0994863
grave,moderee,stimuli/330Hz,stimuli/moderee,bloc_4,prob50_50_4trials.xlsx,2,8,50,50,1,,,,,0,1,1,1,0,0,0,0,,,,,,,,3.8,258.2662967,262.0690489,262.068709,0.3055323,262.5170913,262.5170913,n,1.2657066,267.7562777,267.7562777,18,3.907,,,,sub-036,130,200,700,bloc_loopcontinue.csv,2023-07-05_10h45.44.119,PainUncertainty,2022.2.5,144.0994863
aigu,forte,stimuli/660Hz,stimuli/forte,bloc_4,prob50_50_4trials.xlsx,2,8,50,50,1,,,,,0,1,1,1,0,1,1,3,,,,,,,,3.3,267.7562777,271.056252,271.0560091,0.3049654,271.5003762,271.5003762,m,0.8450429,275.2502421,275.2502421,53,2.83,,,,sub-036,130,200,700,bloc_loopcontinue.csv,2023-07-05_10h45.44.119,PainUncertainty,2022.2.5,144.0994863
aigu,moderee,stimuli/660Hz,stimuli/moderee,bloc_4,prob50_50_4trials.xlsx,2,8,50,50,1,,,,,0,1,1,1,0,2,2,2,,,,,,,,4,275.2502421,279.251873,279.2515319,0.3051052,279.6982384,279.6982384,n,0.9894928,283.7049662,283.7049662,17,2.949,,,,sub-036,130,200,700,bloc_loopcontinue.csv,2023-07-05_10h45.44.119,PainUncertainty,2022.2.5,144.0994863
grave,forte,stimuli/330Hz,stimuli/forte,bloc_4,prob50_50_4trials.xlsx,2,8,50,50,1,,,,,0,1,1,1,0,3,3,1,,,,,,,,3.1,283.7049662,286.8085201,286.8083064,0.3049925,287.2548133,287.2548133,m,0.7281748,292.4762474,292.4762474,53,4.427,,,,sub-036,130,200,700,bloc_loopcontinue.csv,2023-07-05_10h45.44.119,PainUncertainty,2022.2.5,144.0994863
grave,forte,stimuli/330Hz,stimuli/forte,bloc_4,prob50_50_4trials.xlsx,2,8,50,50,1,,,,,0,1,1,1,1,0,4,1,,,,,,,,3,292.4762474,295.4776681,295.4756749,0.3052345,295.9200153,295.9200153,m,2.275896,299.8594802,299.8594802,45,1.58,,,,sub-036,130,200,700,bloc_loopcontinue.csv,2023-07-05_10h45.44.119,PainUncertainty,2022.2.5,144.0994863
aigu,moderee,stimuli/660Hz,stimuli/moderee,bloc_4,prob50_50_4trials.xlsx,2,8,50,50,1,,,,,0,1,1,1,1,1,5,2,,,,,,,,4.6,299.8594802,304.4629801,304.4628074,0.2991548,304.9015936,304.9015936,n,0.8967367,307.7672356,307.7672356,18,1.908,,,,sub-036,130,200,700,bloc_loopcontinue.csv,2023-07-05_10h45.44.119,PainUncertainty,2022.2.5,144.0994863
grave,moderee,stimuli/330Hz,stimuli/moderee,bloc_4,prob50_50_4trials.xlsx,2,8,50,50,1,,,,,0,1,1,1,1,2,6,0,,,,,,,,4.3,307.7672356,312.0680494,312.0677067,0.3051982,312.5123857,312.5123857,n,0.8058588,315.0726735,315.0726735,22,1.677,,,,sub-036,130,200,700,bloc_loopcontinue.csv,2023-07-05_10h45.44.119,PainUncertainty,2022.2.5,144.0994863
aigu,forte,stimuli/660Hz,stimuli/forte,bloc_4,prob50_50_4trials.xlsx,2,8,50,50,1,,,,,0,1,1,1,1,3,7,3,,,,,,,,4.8,315.0726735,319.8744923,319.874354,0.3048708,320.3187049,320.3187049,m,1.0636214,325.4621702,325.4621702,52,2.053,,,,sub-036,130,200,700,bloc_loopcontinue.csv,2023-07-05_10h45.44.119,PainUncertainty,2022.2.5,144.0994863
,,,,bloc_4,prob50_50_4trials.xlsx,2,8,50,50,1,,,,,0,1,1,1,0,0,0,0,,,,,,,,,,,,,,,,,,,,,325.4621702,386.2302307,,sub-036,130,200,700,bloc_loopcontinue.csv,2023-07-05_10h45.44.119,PainUncertainty,2022.2.5,144.0994863
grave,forte,stimuli/330Hz,stimuli/forte,bloc_5,prob20hthp_12trials.xlsx,2,24,20,80,0,,,,,0,2,2,2,0,0,0,3,,,,,,,,4.7,387.2486277,391.9531323,391.9529417,0.3047364,392.39704,392.39704,m,1.5427262,395.9551439,395.9551439,50,1.969,,,,sub-036,130,200,700,bloc_loopcontinue.csv,2023-07-05_10h45.44.119,PainUncertainty,2022.2.5,144.0994863
grave,forte,stimuli/330Hz,stimuli/forte,bloc_5,prob20hthp_12trials.xlsx,2,24,20,80,0,,,,,0,2,2,2,0,1,1,1,,,,,,,,3.7,395.9551439,399.655174,399.6548235,0.3050788,400.0998465,400.0998465,m,0.8846793,402.6215477,402.6215477,53,1.551,,,,sub-036,130,200,700,bloc_loopcontinue.csv,2023-07-05_10h45.44.119,PainUncertainty,2022.2.5,144.0994863
aigu,moderee,stimuli/660Hz,stimuli/moderee,bloc_5,prob20hthp_12trials.xlsx,2,24,20,80,0,,,,,0,2,2,2,0,2,2,8,,,,,,,,4.7,402.6215477,407.3230083,407.3227017,0.2991967,407.7655818,407.7655818,n,1.394831,412.462519,412.462519,25,3.225,,,,sub-036,130,200,700,bloc_loopcontinue.csv,2023-07-05_10h45.44.119,PainUncertainty,2022.2.5,144.0994863
grave,forte,stimuli/330Hz,stimuli/forte,bloc_5,prob20hthp_12trials.xlsx,2,24,20,80,0,,,,,0,2,2,2,0,3,3,0,,,,,,,,3.8,412.462519,416.2682801,416.267975,0.3048243,416.7123868,416.7123868,m,1.7087786,422.240874,422.240874,54,3.769,,,,sub-036,130,200,700,bloc_loopcontinue.csv,2023-07-05_10h45.44.119,PainUncertainty,2022.2.5,144.0994863
grave,forte,stimuli/330Hz,stimuli/forte,bloc_5,prob20hthp_12trials.xlsx,2,24,20,80,0,,,,,0,2,2,2,0,4,4,2,,,,,,,,4.2,422.240874,426.4437047,426.4432305,0.3023879,426.8888444,426.8888444,m,1.0380567,431.0785191,431.0785191,59,3.079,,,,sub-036,130,200,700,bloc_loopcontinue.csv,2023-07-05_10h45.44.119,PainUncertainty,2022.2.5,144.0994863
aigu,moderee,stimuli/660Hz,stimuli/moderee,bloc_5,prob20hthp_12trials.xlsx,2,24,20,80,0,,,,,0,2,2,2,0,5,5,9,,,,,,,,3.6,431.0785191,434.6806123,434.6803589,0.3052052,435.1293909,435.1293909,n,0.843426,439.3867164,439.3867164,23,3.351,,,,sub-036,130,200,700,bloc_loopcontinue.csv,2023-07-05_10h45.44.119,PainUncertainty,2022.2.5,144.0994863
grave,moderee,stimuli/330Hz,stimuli/moderee,bloc_5,prob20hthp_12trials.xlsx,2,24,20,80,0,,,,,0,2,2,2,0,6,6,5,,,,,,,,4.7,439.3867164,444.0910916,444.0908076,0.305378,444.5356708,444.5356708,n,1.2548562,447.5994516,447.5994516,26,1.755,,,,sub-036,130,200,700,bloc_loopcontinue.csv,2023-07-05_10h45.44.119,PainUncertainty,2022.2.5,144.0994863
aigu,moderee,stimuli/660Hz,stimuli/moderee,bloc_5,prob20hthp_12trials.xlsx,2,24,20,80,0,,,,,0,2,2,2,0,7,7,7,,,,,,,,3.3,447.5994516,450.9045727,450.9041923,0.3050215,451.3486853,451.3486853,n,0.8916709,453.6238592,453.6238592,20,1.324,,,,sub-036,130,200,700,bloc_loopcontinue.csv,2023-07-05_10h45.44.119,PainUncertainty,2022.2.5,144.0994863
aigu,moderee,stimuli/660Hz,stimuli/moderee,bloc_5,prob20hthp_12trials.xlsx,2,24,20,80,0,,,,,0,2,2,2,0,8,8,10,,,,,,,,4.5,453.6238592,458.1276337,458.1275231,0.30523,458.5770963,458.5770963,n,1.1322189,461.1196304,461.1196304,26,1.344,,,,sub-036,130,200,700,bloc_loopcontinue.csv,2023-07-05_10h45.44.119,PainUncertainty,2022.2.5,144.0994863
aigu,forte,stimuli/660Hz,stimuli/forte,bloc_5,prob20hthp_12trials.xlsx,2,24,20,80,0,,,,,0,2,2,2,0,9,9,11,,,,,,,,5,461.1196304,466.1217134,466.1214269,0.3061354,466.5694624,466.5694624,m,1.2387078,470.8975634,470.8975634,56,3.039,,,,sub-036,130,200,700,bloc_loopcontinue.csv,2023-07-05_10h45.44.119,PainUncertainty,2022.2.5,144.0994863
grave,forte,stimuli/330Hz,stimuli/forte,bloc_5,prob20hthp_12trials.xlsx,2,24,20,80,0,,,,,0,2,2,2,0,10,10,4,,,,,,,,4.7,470.8975634,475.6019979,475.6017541,0.3048907,476.0464799,476.0464799,m,1.4918211,480.1339571,480.1339571,54,2.524,,,,sub-036,130,200,700,bloc_loopcontinue.csv,2023-07-05_10h45.44.119,PainUncertainty,2022.2.5,144.0994863
aigu,moderee,stimuli/660Hz,stimuli/moderee,bloc_5,prob20hthp_12trials.xlsx,2,24,20,80,0,,,,,0,2,2,2,0,11,11,6,,,,,,,,5,480.1339571,485.1378999,485.1376295,0.3054889,485.58488,485.58488,n,0.9336764,489.385888,489.385888,32,2.802,,,,sub-036,130,200,700,bloc_loopcontinue.csv,2023-07-05_10h45.44.119,PainUncertainty,2022.2.5,144.0994863
aigu,moderee,stimuli/660Hz,stimuli/moderee,bloc_5,prob20hthp_12trials.xlsx,2,24,20,80,0,,,,,0,2,2,2,1,0,12,7,,,,,,,,4.8,489.385888,494.1879166,494.187609,0.3052229,494.6356165,494.6356165,m,1.1913939,497.4086248,497.4086248,39,1.511,,,,sub-036,130,200,700,bloc_loopcontinue.csv,2023-07-05_10h45.44.119,PainUncertainty,2022.2.5,144.0994863
aigu,moderee,stimuli/660Hz,stimuli/moderee,bloc_5,prob20hthp_12trials.xlsx,2,24,20,80,0,,,,,0,2,2,2,1,1,13,9,,,,,,,,5,497.4086248,502.4107334,502.4103761,0.3052688,502.854863,502.854863,m,2.4382586,507.2038453,507.2038453,37,1.844,,,,sub-036,130,200,700,bloc_loopcontinue.csv,2023-07-05_10h45.44.119,PainUncertainty,2022.2.5,144.0994863
grave,forte,stimuli/330Hz,stimuli/forte,bloc_5,prob20hthp_12trials.xlsx,2,24,20,80,0,,,,,0,2,2,2,1,2,14,1,,,,,,,,4.6,507.2038453,511.8077534,511.8074261,0.3050039,512.2518956,512.2518956,m,0.9004409,515.5604532,515.5604532,58,2.33,,,,sub-036,130,200,700,bloc_loopcontinue.csv,2023-07-05_10h45.44.119,PainUncertainty,2022.2.5,144.0994863
aigu,moderee,stimuli/660Hz,stimuli/moderee,bloc_5,prob20hthp_12trials.xlsx,2,24,20,80,0,,,,,0,2,2,2,1,3,15,6,,,,,,,,3.2,515.5604532,518.7603944,518.7602089,0.3047007,519.2041611,519.2041611,n,0.8852088,522.8965086,522.8965086,35,2.724,,,,sub-036,130,200,700,bloc_loopcontinue.csv,2023-07-05_10h45.44.119,PainUncertainty,2022.2.5,144.0994863
grave,forte,stimuli/330Hz,stimuli/forte,bloc_5,prob20hthp_12trials.xlsx,2,24,20,80,0,,,,,0,2,2,2,1,4,16,0,,,,,,,,4.6,522.8965086,527.497392,527.497318,0.3046626,527.9413183,527.9413183,m,1.4079296,531.7456036,531.7456036,56,2.338,,,,sub-036,130,200,700,bloc_loopcontinue.csv,2023-07-05_10h45.44.119,PainUncertainty,2022.2.5,144.0994863
grave,forte,stimuli/330Hz,stimuli/forte,bloc_5,prob20hthp_12trials.xlsx,2,24,20,80,0,,,,,0,2,2,2,1,5,17,2,,,,,,,,4.2,531.7456036,535.9495331,535.9494317,0.3047784,536.394092,536.394092,m,1.1070493,539.1922274,539.1922274,62,1.629,,,,sub-036,130,200,700,bloc_loopcontinue.csv,2023-07-05_10h45.44.119,PainUncertainty,2022.2.5,144.0994863
grave,forte,stimuli/330Hz,stimuli/forte,bloc_5,prob20hthp_12trials.xlsx,2,24,20,80,0,,,,,0,2,2,2,1,6,18,3,,,,,,,,4.5,539.1922274,543.6936179,543.6933187,0.2997887,544.1384913,544.1384913,m,0.9405856,546.8795972,546.8795972,57,1.719,,,,sub-036,130,200,700,bloc_loopcontinue.csv,2023-07-05_10h45.44.119,PainUncertainty,2022.2.5,144.0994863
aigu,moderee,stimuli/660Hz,stimuli/moderee,bloc_5,prob20hthp_12trials.xlsx,2,24,20,80,0,,,,,0,2,2,2,1,7,19,8,,,,,,,,3.9,546.8795972,550.7847693,550.7843,0.3054733,551.2289801,551.2289801,n,0.7718386,554.3898922,554.3898922,30,2.323,,,,sub-036,130,200,700,bloc_loopcontinue.csv,2023-07-05_10h45.44.119,PainUncertainty,2022.2.5,144.0994863
grave,moderee,stimuli/330Hz,stimuli/moderee,bloc_5,prob20hthp_12trials.xlsx,2,24,20,80,0,,,,,0,2,2,2,1,8,20,5,,,,,,,,4.6,554.3898922,558.9939979,558.9937749,0.3051602,559.4382379,559.4382379,n,1.1468768,562.2336971,562.2336971,31,1.594,,,,sub-036,130,200,700,bloc_loopcontinue.csv,2023-07-05_10h45.44.119,PainUncertainty,2022.2.5,144.0994863
aigu,moderee,stimuli/660Hz,stimuli/moderee,bloc_5,prob20hthp_12trials.xlsx,2,24,20,80,0,,,,,0,2,2,2,1,9,21,10,,,,,,,,3.4,562.2336971,565.6337414,565.6335207,0.3050522,566.0851549,566.0851549,n,1.0465461,568.8348055,568.8348055,26,1.622,,,,sub-036,130,200,700,bloc_loopcontinue.csv,2023-07-05_10h45.44.119,PainUncertainty,2022.2.5,144.0994863
grave,forte,stimuli/330Hz,stimuli/forte,bloc_5,prob20hthp_12trials.xlsx,2,24,20,80,0,,,,,0,2,2,2,1,10,22,4,,,,,,,,4.3,568.8348055,573.1348054,573.1348342,0.3011948,573.5804134,573.5804134,m,1.5874252,578.0053323,578.0053323,53,2.78,,,,sub-036,130,200,700,bloc_loopcontinue.csv,2023-07-05_10h45.44.119,PainUncertainty,2022.2.5,144.0994863
aigu,forte,stimuli/660Hz,stimuli/forte,bloc_5,prob20hthp_12trials.xlsx,2,24,20,80,0,,,,,0,2,2,2,1,11,23,11,,,,,,,,4.4,578.0053323,582.4068359,582.4065759,0.3048559,582.8508818,582.8508818,m,1.2922199,586.2184863,586.2184863,64,2.017,,,,sub-036,130,200,700,bloc_loopcontinue.csv,2023-07-05_10h45.44.119,PainUncertainty,2022.2.5,144.0994863
aigu,forte,stimuli/660Hz,stimuli/forte,bloc_6,prob50_50_4trials.xlsx,2,8,50,50,0,,,,,0,3,3,3,0,0,0,3,,,,,,,,4.9,586.2184863,591.1230366,591.1227567,0.2992166,591.565634,591.565634,m,1.2529687,595.6160743,595.6160743,65,2.71,,,,sub-036,130,200,700,bloc_loopcontinue.csv,2023-07-05_10h45.44.119,PainUncertainty,2022.2.5,144.0994863
grave,moderee,stimuli/330Hz,stimuli/moderee,bloc_6,prob50_50_4trials.xlsx,2,8,50,50,0,,,,,0,3,3,3,0,1,1,0,,,,,,,,4,595.6160743,599.617068,599.6167896,0.2990002,600.0593253,600.0593253,n,0.7619653,602.4375903,602.4375903,26,1.537,,,,sub-036,130,200,700,bloc_loopcontinue.csv,2023-07-05_10h45.44.119,PainUncertainty,2022.2.5,144.0994863
grave,forte,stimuli/330Hz,stimuli/forte,bloc_6,prob50_50_4trials.xlsx,2,8,50,50,0,,,,,0,3,3,3,0,2,2,1,,,,,,,,4.5,602.4375903,606.9377874,606.9375222,0.3048346,607.3816952,607.3816952,m,0.6854331,611.4192716,611.4192716,61,3.283,,,,sub-036,130,200,700,bloc_loopcontinue.csv,2023-07-05_10h45.44.119,PainUncertainty,2022.2.5,144.0994863
aigu,moderee,stimuli/660Hz,stimuli/moderee,bloc_6,prob50_50_4trials.xlsx,2,8,50,50,0,,,,,0,3,3,3,0,3,3,2,,,,,,,,4.3,611.4192716,615.7235667,615.7231754,0.3004448,616.1679649,616.1679649,n,1.0947946,619.1052096,619.1052096,33,1.789,,,,sub-036,130,200,700,bloc_loopcontinue.csv,2023-07-05_10h45.44.119,PainUncertainty,2022.2.5,144.0994863
aigu,moderee,stimuli/660Hz,stimuli/moderee,bloc_6,prob50_50_4trials.xlsx,2,8,50,50,0,,,,,0,3,3,3,1,0,4,2,,,,,,,,4.4,619.1052096,623.5089509,623.508649,0.3050288,623.9531908,623.9531908,n,0.6834877,626.9660039,626.9660039,21,2.267,,,,sub-036,130,200,700,bloc_loopcontinue.csv,2023-07-05_10h45.44.119,PainUncertainty,2022.2.5,144.0994863
grave,moderee,stimuli/330Hz,stimuli/moderee,bloc_6,prob50_50_4trials.xlsx,2,8,50,50,0,,,,,0,3,3,3,1,1,5,0,,,,,,,,3.4,626.9660039,630.3708275,630.3705764,0.3053475,630.8222748,630.8222748,n,0.7705745,633.6634045,633.6634045,21,1.989,,,,sub-036,130,200,700,bloc_loopcontinue.csv,2023-07-05_10h45.44.119,PainUncertainty,2022.2.5,144.0994863
grave,forte,stimuli/330Hz,stimuli/forte,bloc_6,prob50_50_4trials.xlsx,2,8,50,50,0,,,,,0,3,3,3,1,2,6,1,,,,,,,,3.7,633.6634045,637.3647794,637.3646096,0.3047733,637.8098182,637.8098182,m,1.0073937,642.4501422,642.4501422,60,3.566,,,,sub-036,130,200,700,bloc_loopcontinue.csv,2023-07-05_10h45.44.119,PainUncertainty,2022.2.5,144.0994863
aigu,forte,stimuli/660Hz,stimuli/forte,bloc_6,prob50_50_4trials.xlsx,2,8,50,50,0,,,,,0,3,3,3,1,3,7,3,,,,,,,,3.2,642.4501422,645.6507491,645.6505949,0.3052781,646.0988374,646.0988374,m,0.7377479,648.9708914,648.9708914,68,2.06,,,,sub-036,130,200,700,bloc_loopcontinue.csv,2023-07-05_10h45.44.119,PainUncertainty,2022.2.5,144.0994863
aigu,moderee,stimuli/660Hz,stimuli/moderee,bloc_7,prob80hthp_12trials.xlsx,2,24,80,20,0,,,,,0,4,4,4,0,0,0,11,,,,,,,,3.4,648.9708914,652.3741301,652.3736397,0.301525,652.8179587,652.8179587,n,0.6388117,654.9141639,654.9141639,33,1.392,,,,sub-036,130,200,700,bloc_loopcontinue.csv,2023-07-05_10h45.44.119,PainUncertainty,2022.2.5,144.0994863
aigu,forte,stimuli/660Hz,stimuli/forte,bloc_7,prob80hthp_12trials.xlsx,2,24,80,20,0,,,,,0,4,4,4,0,1,1,8,,,,,,,,3.7,654.9141639,658.6185226,658.6175519,0.3050838,659.0688978,659.0688978,m,1.0032273,662.2318425,662.2318425,66,2.099,,,,sub-036,130,200,700,bloc_loopcontinue.csv,2023-07-05_10h45.44.119,PainUncertainty,2022.2.5,144.0994863
aigu,forte,stimuli/660Hz,stimuli/forte,bloc_7,prob80hthp_12trials.xlsx,2,24,80,20,0,,,,,0,4,4,4,0,2,2,7,,,,,,,,3.6,662.2318425,665.833591,665.8332712,0.2990824,666.2721523,666.2721523,m,1.2963279,670.9748217,670.9748217,61,3.335,,,,sub-036,130,200,700,bloc_loopcontinue.csv,2023-07-05_10h45.44.119,PainUncertainty,2022.2.5,144.0994863
grave,moderee,stimuli/330Hz,stimuli/moderee,bloc_7,prob80hthp_12trials.xlsx,2,24,80,20,0,,,,,0,4,4,4,0,3,3,3,,,,,,,,4.2,670.9748217,675.1750004,675.1746455,0.3051774,675.6191222,675.6191222,n,1.0043255,678.7075777,678.7075777,23,2.011,,,,sub-036,130,200,700,bloc_loopcontinue.csv,2023-07-05_10h45.44.119,PainUncertainty,2022.2.5,144.0994863
grave,forte,stimuli/330Hz,stimuli/forte,bloc_7,prob80hthp_12trials.xlsx,2,24,80,20,0,,,,,0,4,4,4,0,4,4,5,,,,,,,,4.2,678.7075777,682.9122671,682.9120676,0.3052943,683.3598623,683.3598623,m,1.0847696,686.6960624,686.6960624,62,2.191,,,,sub-036,130,200,700,bloc_loopcontinue.csv,2023-07-05_10h45.44.119,PainUncertainty,2022.2.5,144.0994863
aigu,forte,stimuli/660Hz,stimuli/forte,bloc_7,prob80hthp_12trials.xlsx,2,24,80,20,0,,,,,0,4,4,4,0,5,5,6,,,,,,,,3.5,686.6960624,690.1978236,690.197511,0.3053063,690.6459898,690.6459898,m,0.7337625,693.0080622,693.0080622,73,1.56,,,,sub-036,130,200,700,bloc_loopcontinue.csv,2023-07-05_10h45.44.119,PainUncertainty,2022.2.5,144.0994863
aigu,forte,stimuli/660Hz,stimuli/forte,bloc_7,prob80hthp_12trials.xlsx,2,24,80,20,0,,,,,0,4,4,4,0,6,6,9,,,,,,,,4.7,693.0080622,697.7128557,697.7124568,0.305319,698.1571175,698.1571175,m,0.7106335,700.7117076,700.7117076,69,1.76,,,,sub-036,130,200,700,bloc_loopcontinue.csv,2023-07-05_10h45.44.119,PainUncertainty,2022.2.5,144.0994863
grave,moderee,stimuli/330Hz,stimuli/moderee,bloc_7,prob80hthp_12trials.xlsx,2,24,80,20,0,,,,,0,4,4,4,0,7,7,4,,,,,,,,4.3,700.7117076,705.0123667,705.0119947,0.3051071,705.4563171,705.4563171,n,0.7261324,708.3328796,708.3328796,30,2.072,,,,sub-036,130,200,700,bloc_loopcontinue.csv,2023-07-05_10h45.44.119,PainUncertainty,2022.2.5,144.0994863
aigu,forte,stimuli/660Hz,stimuli/forte,bloc_7,prob80hthp_12trials.xlsx,2,24,80,20,0,,,,,0,4,4,4,0,8,8,10,,,,,,,,3.3,708.3328796,711.6382016,711.6378099,0.305107,712.0866781,712.0866781,m,0.6393247,715.3627665,715.3627665,51,2.566,,,,sub-036,130,200,700,bloc_loopcontinue.csv,2023-07-05_10h45.44.119,PainUncertainty,2022.2.5,144.0994863
grave,moderee,stimuli/330Hz,stimuli/moderee,bloc_7,prob80hthp_12trials.xlsx,2,24,80,20,0,,,,,0,4,4,4,0,9,9,0,,,,,,,,3.4,715.3627665,718.7638503,718.763381,0.3051048,719.2078463,719.2078463,n,0.644257,722.3458991,722.3458991,30,2.436,,,,sub-036,130,200,700,bloc_loopcontinue.csv,2023-07-05_10h45.44.119,PainUncertainty,2022.2.5,144.0994863
grave,moderee,stimuli/330Hz,stimuli/moderee,bloc_7,prob80hthp_12trials.xlsx,2,24,80,20,0,,,,,0,4,4,4,0,10,10,2,,,,,,,,4.1,722.3458991,726.4456941,726.4451546,0.3051012,726.8966791,726.8966791,n,0.7060017,729.8862146,729.8862146,29,2.233,,,,sub-036,130,200,700,bloc_loopcontinue.csv,2023-07-05_10h45.44.119,PainUncertainty,2022.2.5,144.0994863
grave,moderee,stimuli/330Hz,stimuli/moderee,bloc_7,prob80hthp_12trials.xlsx,2,24,80,20,0,,,,,0,4,4,4,0,11,11,1,,,,,,,,3.6,729.8862146,733.487635,733.4875734,0.3046737,733.9319397,733.9319397,n,0.9557982,736.7765958,736.7765958,27,1.817,,,,sub-036,130,200,700,bloc_loopcontinue.csv,2023-07-05_10h45.44.119,PainUncertainty,2022.2.5,144.0994863
aigu,forte,stimuli/660Hz,stimuli/forte,bloc_7,prob80hthp_12trials.xlsx,2,24,80,20,0,,,,,0,4,4,4,1,0,12,8,,,,,,,,3.1,736.7765958,739.8773846,739.8771342,0.3052843,740.3217291,740.3217291,m,0.9158198,744.6849338,744.6849338,59,3.372,,,,sub-036,130,200,700,bloc_loopcontinue.csv,2023-07-05_10h45.44.119,PainUncertainty,2022.2.5,144.0994863
grave,moderee,stimuli/330Hz,stimuli/moderee,bloc_7,prob80hthp_12trials.xlsx,2,24,80,20,0,,,,,0,4,4,4,1,1,13,1,,,,,,,,3.1,744.6849338,747.7881746,747.787768,0.305251,748.2325803,748.2325803,n,0.719689,752.0175801,752.0175801,36,3.004,,,,sub-036,130,200,700,bloc_loopcontinue.csv,2023-07-05_10h45.44.119,PainUncertainty,2022.2.5,144.0994863
grave,moderee,stimuli/330Hz,stimuli/moderee,bloc_7,prob80hthp_12trials.xlsx,2,24,80,20,0,,,,,0,4,4,4,1,2,14,3,,,,,,,,3.5,752.0175801,755.5185314,755.5181173,0.3053164,755.9657475,755.9657475,n,1.0676634,758.4428892,758.4428892,30,1.325,,,,sub-036,130,200,700,bloc_loopcontinue.csv,2023-07-05_10h45.44.119,PainUncertainty,2022.2.5,144.0994863
aigu,forte,stimuli/660Hz,stimuli/forte,bloc_7,prob80hthp_12trials.xlsx,2,24,80,20,0,,,,,0,4,4,4,1,3,15,10,,,,,,,,3.5,758.4428892,761.9448881,761.9428102,0.30522,762.3911673,762.3911673,m,0.771666,766.081769,766.081769,62,2.844,,,,sub-036,130,200,700,bloc_loopcontinue.csv,2023-07-05_10h45.44.119,PainUncertainty,2022.2.5,144.0994863
aigu,moderee,stimuli/660Hz,stimuli/moderee,bloc_7,prob80hthp_12trials.xlsx,2,24,80,20,0,,,,,0,4,4,4,1,4,16,11,,,,,,,,4.3,766.081769,770.3810753,770.3807965,0.2997716,770.8256261,770.8256261,n,0.6886237,774.2305219,774.2305219,22,2.643,,,,sub-036,130,200,700,bloc_loopcontinue.csv,2023-07-05_10h45.44.119,PainUncertainty,2022.2.5,144.0994863
aigu,forte,stimuli/660Hz,stimuli/forte,bloc_7,prob80hthp_12trials.xlsx,2,24,80,20,0,,,,,0,4,4,4,1,5,17,9,,,,,,,,3.9,774.2305219,778.1321111,778.1318413,0.3053467,778.5765809,778.5765809,m,0.6910983,781.5476701,781.5476701,59,2.213,,,,sub-036,130,200,700,bloc_loopcontinue.csv,2023-07-05_10h45.44.119,PainUncertainty,2022.2.5,144.0994863
grave,moderee,stimuli/330Hz,stimuli/moderee,bloc_7,prob80hthp_12trials.xlsx,2,24,80,20,0,,,,,0,4,4,4,1,6,18,2,,,,,,,,4,781.5476701,785.5496651,785.5494232,0.3054921,785.9981264,785.9981264,n,1.0104799,789.0265224,789.0265224,23,1.934,,,,sub-036,130,200,700,bloc_loopcontinue.csv,2023-07-05_10h45.44.119,PainUncertainty,2022.2.5,144.0994863
grave,forte,stimuli/330Hz,stimuli/forte,bloc_7,prob80hthp_12trials.xlsx,2,24,80,20,0,,,,,0,4,4,4,1,7,19,5,,,,,,,,4.1,789.0265224,793.1273439,793.1270074,0.305131,793.5750812,793.5750812,m,0.8846563,796.839353,796.839353,64,2.316,,,,sub-036,130,200,700,bloc_loopcontinue.csv,2023-07-05_10h45.44.119,PainUncertainty,2022.2.5,144.0994863
aigu,forte,stimuli/660Hz,stimuli/forte,bloc_7,prob80hthp_12trials.xlsx,2,24,80,20,0,,,,,0,4,4,4,1,8,20,7,,,,,,,,4.6,796.839353,801.4405452,801.4403156,0.3050879,801.8848803,801.8848803,m,0.8249346,806.3308191,806.3308191,61,3.56,,,,sub-036,130,200,700,bloc_loopcontinue.csv,2023-07-05_10h45.44.119,PainUncertainty,2022.2.5,144.0994863
aigu,forte,stimuli/660Hz,stimuli/forte,bloc_7,prob80hthp_12trials.xlsx,2,24,80,20,0,,,,,0,4,4,4,1,9,21,6,,,,,,,,4.5,806.3308191,810.8308751,810.8304997,0.3051799,811.27761,811.27761,m,1.5655063,815.7768677,815.7768677,62,2.858,,,,sub-036,130,200,700,bloc_loopcontinue.csv,2023-07-05_10h45.44.119,PainUncertainty,2022.2.5,144.0994863
grave,moderee,stimuli/330Hz,stimuli/moderee,bloc_7,prob80hthp_12trials.xlsx,2,24,80,20,0,,,,,0,4,4,4,1,10,22,4,,,,,,,,4.2,815.7768677,819.9773386,819.9770508,0.3055914,820.4216331,820.4216331,n,1.7668364,824.786671,824.786671,37,2.53,,,,sub-036,130,200,700,bloc_loopcontinue.csv,2023-07-05_10h45.44.119,PainUncertainty,2022.2.5,144.0994863
grave,moderee,stimuli/330Hz,stimuli/moderee,bloc_7,prob80hthp_12trials.xlsx,2,24,80,20,0,,,,,0,4,4,4,1,11,23,0,,,,,,,,4.3,824.786671,829.0899286,829.0898058,0.3046637,829.5340612,829.5340612,m,0.7774005,832.9858407,832.9858407,62,2.595,,,,sub-036,130,200,700,bloc_loopcontinue.csv,2023-07-05_10h45.44.119,PainUncertainty,2022.2.5,144.0994863
aigu,forte,stimuli/660Hz,stimuli/forte,bloc_8,prob50_50_4trials.xlsx,3,12,50,50,0,,,,,0,5,5,5,0,0,0,3,,,,,,,,4.6,832.9858407,837.5912579,837.5910006,0.3046497,838.0350993,838.0350993,m,0.7808417,841.8704605,841.8704605,65,2.978,,,,sub-036,130,200,700,bloc_loopcontinue.csv,2023-07-05_10h45.44.119,PainUncertainty,2022.2.5,144.0994863
aigu,moderee,stimuli/660Hz,stimuli/moderee,bloc_8,prob50_50_4trials.xlsx,3,12,50,50,0,,,,,0,5,5,5,0,1,1,2,,,,,,,,5,841.8704605,846.8701619,846.8696662,0.3056243,847.3177389,847.3177389,n,0.9878383,849.9389361,849.9389361,32,1.567,,,,sub-036,130,200,700,bloc_loopcontinue.csv,2023-07-05_10h45.44.119,PainUncertainty,2022.2.5,144.0994863
grave,forte,stimuli/330Hz,stimuli/forte,bloc_8,prob50_50_4trials.xlsx,3,12,50,50,0,,,,,0,5,5,5,0,2,2,1,,,,,,,,3.8,849.9389361,853.7386377,853.7385165,0.3049643,854.1829693,854.1829693,m,0.8408238,857.3208253,857.3208253,66,2.234,,,,sub-036,130,200,700,bloc_loopcontinue.csv,2023-07-05_10h45.44.119,PainUncertainty,2022.2.5,144.0994863
grave,moderee,stimuli/330Hz,stimuli/moderee,bloc_8,prob50_50_4trials.xlsx,3,12,50,50,0,,,,,0,5,5,5,0,3,3,0,,,,,,,,3.9,857.3208253,861.2259512,861.225642,0.3048623,861.6700503,861.6700503,n,1.2514142,865.2621025,865.2621025,38,2.275,,,,sub-036,130,200,700,bloc_loopcontinue.csv,2023-07-05_10h45.44.119,PainUncertainty,2022.2.5,144.0994863
aigu,moderee,stimuli/660Hz,stimuli/moderee,bloc_8,prob50_50_4trials.xlsx,3,12,50,50,0,,,,,0,5,5,5,1,0,4,2,,,,,,,,3.6,865.2621025,868.8657919,868.8655718,0.3053438,869.3141478,869.3141478,n,0.6109289,871.8955442,871.8955442,24,1.885,,,,sub-036,130,200,700,bloc_loopcontinue.csv,2023-07-05_10h45.44.119,PainUncertainty,2022.2.5,144.0994863
grave,forte,stimuli/330Hz,stimuli/forte,bloc_8,prob50_50_4trials.xlsx,3,12,50,50,0,,,,,0,5,5,5,1,1,5,1,,,,,,,,4.8,871.8955442,876.6997198,876.6994762,0.304985,877.1439933,877.1439933,m,0.8480146,880.8584386,880.8584386,62,2.803,,,,sub-036,130,200,700,bloc_loopcontinue.csv,2023-07-05_10h45.44.119,PainUncertainty,2022.2.5,144.0994863
aigu,forte,stimuli/660Hz,stimuli/forte,bloc_8,prob50_50_4trials.xlsx,3,12,50,50,0,,,,,0,5,5,5,1,2,6,3,,,,,,,,4.2,880.8584386,885.0619109,885.0616053,0.3056195,885.5103396,885.5103396,m,1.4157284,890.0151609,890.0151609,65,3.003,,,,sub-036,130,200,700,bloc_loopcontinue.csv,2023-07-05_10h45.44.119,PainUncertainty,2022.2.5,144.0994863
grave,moderee,stimuli/330Hz,stimuli/moderee,bloc_8,prob50_50_4trials.xlsx,3,12,50,50,0,,,,,0,5,5,5,1,3,7,0,,,,,,,,3.7,890.0151609,893.716067,893.7157657,0.3051184,894.1605885,894.1605885,n,0.6729327,895.943146,895.943146,20,1.052,,,,sub-036,130,200,700,bloc_loopcontinue.csv,2023-07-05_10h45.44.119,PainUncertainty,2022.2.5,144.0994863
aigu,moderee,stimuli/660Hz,stimuli/moderee,bloc_8,prob50_50_4trials.xlsx,3,12,50,50,0,,,,,0,5,5,5,2,0,8,2,,,,,,,,4.2,895.943146,900.1470382,900.1467911,0.3050621,900.5912563,900.5912563,n,0.6904455,902.6382515,902.6382515,25,1.281,,,,sub-036,130,200,700,bloc_loopcontinue.csv,2023-07-05_10h45.44.119,PainUncertainty,2022.2.5,144.0994863
aigu,forte,stimuli/660Hz,stimuli/forte,bloc_8,prob50_50_4trials.xlsx,3,12,50,50,0,,,,,0,5,5,5,2,1,9,3,,,,,,,,4.2,902.6382515,906.8426793,906.8440958,0.3035689,907.2911912,907.2911912,m,0.9592733,910.8190179,910.8190179,63,2.51,,,,sub-036,130,200,700,bloc_loopcontinue.csv,2023-07-05_10h45.44.119,PainUncertainty,2022.2.5,144.0994863
grave,forte,stimuli/330Hz,stimuli/forte,bloc_8,prob50_50_4trials.xlsx,3,12,50,50,0,,,,,0,5,5,5,2,2,10,1,,,,,,,,4.6,910.8190179,915.4198295,915.4195798,0.3050341,915.8644276,915.8644276,m,1.0246154,921.3024228,921.3024228,61,4.337,,,,sub-036,130,200,700,bloc_loopcontinue.csv,2023-07-05_10h45.44.119,PainUncertainty,2022.2.5,144.0994863
grave,moderee,stimuli/330Hz,stimuli/moderee,bloc_8,prob50_50_4trials.xlsx,3,12,50,50,0,,,,,0,5,5,5,2,3,11,0,,,,,,,,4.8,921.3024228,926.1020356,926.1018793,0.3049516,926.5531011,926.5531011,n,0.8665893,930.0256551,930.0256551,40,2.532,,,,sub-036,130,200,700,bloc_loopcontinue.csv,2023-07-05_10h45.44.119,PainUncertainty,2022.2.5,144.0994863
aigu,forte,stimuli/660Hz,stimuli/forte,bloc_9,prob20hthp_12trials.xlsx,3,36,80,20,0,,,,,0,6,6,6,0,0,0,11,,,,,,,,4.3,930.0256551,934.3249239,934.3246599,0.2990369,934.765516,934.765516,m,1.0767472,938.0005857,938.0005857,58,2.082,,,,sub-036,130,200,700,bloc_loopcontinue.csv,2023-07-05_10h45.44.119,PainUncertainty,2022.2.5,144.0994863
aigu,moderee,stimuli/660Hz,stimuli/moderee,bloc_9,prob20hthp_12trials.xlsx,3,36,80,20,0,,,,,0,6,6,6,0,1,1,6,,,,,,,,3.7,938.0005857,941.7014769,941.7013481,0.3045545,942.1452324,942.1452324,n,0.9324026,945.9085452,945.9085452,37,2.775,,,,sub-036,130,200,700,bloc_loopcontinue.csv,2023-07-05_10h45.44.119,PainUncertainty,2022.2.5,144.0994863
aigu,moderee,stimuli/660Hz,stimuli/moderee,bloc_9,prob20hthp_12trials.xlsx,3,36,80,20,0,,,,,0,6,6,6,0,2,2,10,,,,,,,,4.7,945.9085452,950.6117039,950.6114266,0.3052267,951.063077,951.063077,n,0.673684,953.4201128,953.4201128,19,1.605,,,,sub-036,130,200,700,bloc_loopcontinue.csv,2023-07-05_10h45.44.119,PainUncertainty,2022.2.5,144.0994863
grave,forte,stimuli/330Hz,stimuli/forte,bloc_9,prob20hthp_12trials.xlsx,3,36,80,20,0,,,,,0,6,6,6,0,3,3,3,,,,,,,,3.1,953.4201128,956.5227531,956.522433,0.3050721,956.969193,956.969193,None,,961.2190659,961.2190659,63,1.732,,,959.4361477,sub-036,130,200,700,bloc_loopcontinue.csv,2023-07-05_10h45.44.119,PainUncertainty,2022.2.5,144.0994863
aigu,moderee,stimuli/660Hz,stimuli/moderee,bloc_9,prob20hthp_12trials.xlsx,3,36,80,20,0,,,,,0,6,6,6,0,4,4,7,,,,,,,,4.6,961.2190659,965.8219053,965.8215158,0.3052111,966.2660791,966.2660791,n,0.743858,969.9269544,969.9269544,33,2.858,,,,sub-036,130,200,700,bloc_loopcontinue.csv,2023-07-05_10h45.44.119,PainUncertainty,2022.2.5,144.0994863
aigu,moderee,stimuli/660Hz,stimuli/moderee,bloc_9,prob20hthp_12trials.xlsx,3,36,80,20,0,,,,,0,6,6,6,0,5,5,9,,,,,,,,3.8,969.9269544,973.7326088,973.7322924,0.3050423,974.1805288,974.1805288,n,0.626024,977.5809224,977.5809224,28,2.692,,,,sub-036,130,200,700,bloc_loopcontinue.csv,2023-07-05_10h45.44.119,PainUncertainty,2022.2.5,144.0994863
grave,forte,stimuli/330Hz,stimuli/forte,bloc_9,prob20hthp_12trials.xlsx,3,36,80,20,0,,,,,0,6,6,6,0,6,6,1,,,,,,,,4.8,977.5809224,982.3863939,982.3860512,0.3051552,982.8307298,982.8307298,m,0.8263374,986.9285491,986.9285491,63,3.199,,,,sub-036,130,200,700,bloc_loopcontinue.csv,2023-07-05_10h45.44.119,PainUncertainty,2022.2.5,144.0994863
aigu,moderee,stimuli/660Hz,stimuli/moderee,bloc_9,prob20hthp_12trials.xlsx,3,36,80,20,0,,,,,0,6,6,6,0,7,7,8,,,,,,,,4.2,986.9285491,991.1308722,991.1306248,0.3056522,991.5779775,991.5779775,n,0.6161896,993.3682785,993.3682785,42,1.101,,,,sub-036,130,200,700,bloc_loopcontinue.csv,2023-07-05_10h45.44.119,PainUncertainty,2022.2.5,144.0994863
grave,forte,stimuli/330Hz,stimuli/forte,bloc_9,prob20hthp_12trials.xlsx,3,36,80,20,0,,,,,0,6,6,6,0,8,8,0,,,,,,,,4.9,993.3682785,998.2705824,998.2705295,0.304845,998.7171729,998.7171729,m,0.5918318,1001.165948,1001.165948,63,1.795,,,,sub-036,130,200,700,bloc_loopcontinue.csv,2023-07-05_10h45.44.119,PainUncertainty,2022.2.5,144.0994863
grave,forte,stimuli/330Hz,stimuli/forte,bloc_9,prob20hthp_12trials.xlsx,3,36,80,20,0,,,,,0,6,6,6,0,9,9,4,,,,,,,,4.7,1001.165948,1005.868354,1005.868134,0.3051245,1006.312507,1006.312507,n,1.1584564,1010.641873,1010.641873,44,3.101,,,,sub-036,130,200,700,bloc_loopcontinue.csv,2023-07-05_10h45.44.119,PainUncertainty,2022.2.5,144.0994863
grave,moderee,stimuli/330Hz,stimuli/moderee,bloc_9,prob20hthp_12trials.xlsx,3,36,80,20,0,,,,,0,6,6,6,0,10,10,5,,,,,,,,4.6,1010.641873,1015.244968,1015.244638,0.3003435,1015.689307,1015.689307,n,0.6399101,1018.744273,1018.744273,12,2.336,,,,sub-036,130,200,700,bloc_loopcontinue.csv,2023-07-05_10h45.44.119,PainUncertainty,2022.2.5,144.0994863
grave,forte,stimuli/330Hz,stimuli/forte,bloc_9,prob20hthp_12trials.xlsx,3,36,80,20,0,,,,,0,6,6,6,0,11,11,2,,,,,,,,3.6,1018.744273,1022.349558,1022.349318,0.3051885,1022.793708,1022.793708,m,1.3851411,1028.39375,1028.39375,63,4.148,,,,sub-036,130,200,700,bloc_loopcontinue.csv,2023-07-05_10h45.44.119,PainUncertainty,2022.2.5,144.0994863
grave,forte,stimuli/330Hz,stimuli/forte,bloc_9,prob20hthp_12trials.xlsx,3,36,80,20,0,,,,,0,6,6,6,1,0,12,0,,,,,,,,3.2,1028.39375,1031.593658,1031.593375,0.3052411,1032.037991,1032.037991,m,0.921081,1034.882012,1034.882012,60,1.846,,,,sub-036,130,200,700,bloc_loopcontinue.csv,2023-07-05_10h45.44.119,PainUncertainty,2022.2.5,144.0994863
aigu,moderee,stimuli/660Hz,stimuli/moderee,bloc_9,prob20hthp_12trials.xlsx,3,36,80,20,0,,,,,0,6,6,6,1,1,13,10,,,,,,,,3.9,1034.882012,1038.782397,1038.782225,0.3049164,1039.233447,1039.233447,n,0.5571837,1041.847138,1041.847138,15,1.995,,,,sub-036,130,200,700,bloc_loopcontinue.csv,2023-07-05_10h45.44.119,PainUncertainty,2022.2.5,144.0994863
aigu,moderee,stimuli/660Hz,stimuli/moderee,bloc_9,prob20hthp_12trials.xlsx,3,36,80,20,0,,,,,0,6,6,6,1,2,14,6,,,,,,,,5,1041.847138,1046.852908,1046.852613,0.305456,1047.301218,1047.301218,n,0.6904123,1049.83808,1049.83808,18,1.774,,,,sub-036,130,200,700,bloc_loopcontinue.csv,2023-07-05_10h45.44.119,PainUncertainty,2022.2.5,144.0994863
grave,forte,stimuli/330Hz,stimuli/forte,bloc_9,prob20hthp_12trials.xlsx,3,36,80,20,0,,,,,0,6,6,6,1,3,15,4,,,,,,,,4,1049.83808,1053.839861,1053.839582,0.3049253,1054.288074,1054.288074,m,1.0976887,1058.770927,1058.770927,57,3.303,,,,sub-036,130,200,700,bloc_loopcontinue.csv,2023-07-05_10h45.44.119,PainUncertainty,2022.2.5,144.0994863
grave,moderee,stimuli/330Hz,stimuli/moderee,bloc_9,prob20hthp_12trials.xlsx,3,36,80,20,0,,,,,0,6,6,6,1,4,16,5,,,,,,,,4.9,1058.770927,1063.674064,1063.673754,0.3012659,1064.118797,1064.118797,n,0.6015562,1066.71171,1066.71171,24,1.92,,,,sub-036,130,200,700,bloc_loopcontinue.csv,2023-07-05_10h45.44.119,PainUncertainty,2022.2.5,144.0994863
grave,forte,stimuli/330Hz,stimuli/forte,bloc_9,prob20hthp_12trials.xlsx,3,36,80,20,0,,,,,0,6,6,6,1,5,17,3,,,,,,,,3.4,1066.71171,1070.112619,1070.112357,0.3048752,1070.556677,1070.556677,m,0.8642322,1073.023202,1073.023202,55,1.546,,,,sub-036,130,200,700,bloc_loopcontinue.csv,2023-07-05_10h45.44.119,PainUncertainty,2022.2.5,144.0994863
grave,forte,stimuli/330Hz,stimuli/forte,bloc_9,prob20hthp_12trials.xlsx,3,36,80,20,0,,,,,0,6,6,6,1,6,18,2,,,,,,,,3.1,1073.023202,1076.126946,1076.126649,0.3049999,1076.570981,1076.570981,m,0.6485908,1079.016307,1079.016307,64,1.711,,,,sub-036,130,200,700,bloc_loopcontinue.csv,2023-07-05_10h45.44.119,PainUncertainty,2022.2.5,144.0994863
aigu,moderee,stimuli/660Hz,stimuli/moderee,bloc_9,prob20hthp_12trials.xlsx,3,36,80,20,0,,,,,0,6,6,6,1,7,19,7,,,,,,,,4.2,1079.016307,1083.218045,1083.217705,0.3051661,1083.666559,1083.666559,n,1.2642453,1086.015746,1086.015746,40,1.003,,,,sub-036,130,200,700,bloc_loopcontinue.csv,2023-07-05_10h45.44.119,PainUncertainty,2022.2.5,144.0994863
grave,forte,stimuli/330Hz,stimuli/forte,bloc_9,prob20hthp_12trials.xlsx,3,36,80,20,0,,,,,0,6,6,6,1,8,20,1,,,,,,,,4.5,1086.015746,1090.517889,1090.517486,0.3061879,1090.965028,1090.965028,m,0.8813476,1093.253866,1093.253866,64,1.33,,,,sub-036,130,200,700,bloc_loopcontinue.csv,2023-07-05_10h45.44.119,PainUncertainty,2022.2.5,144.0994863
aigu,moderee,stimuli/660Hz,stimuli/moderee,bloc_9,prob20hthp_12trials.xlsx,3,36,80,20,0,,,,,0,6,6,6,1,9,21,8,,,,,,,,3.4,1093.253866,1096.657095,1096.656893,0.3051478,1097.101381,1097.101381,n,0.7318154,1100.315324,1100.315324,38,2.421,,,,sub-036,130,200,700,bloc_loopcontinue.csv,2023-07-05_10h45.44.119,PainUncertainty,2022.2.5,144.0994863
aigu,moderee,stimuli/660Hz,stimuli/moderee,bloc_9,prob20hthp_12trials.xlsx,3,36,80,20,0,,,,,0,6,6,6,1,10,22,9,,,,,,,,3.6,1100.315324,1103.914897,1103.914953,0.3043888,1104.358992,1104.358992,n,0.5983859,1106.789926,1106.789926,23,1.755,,,,sub-036,130,200,700,bloc_loopcontinue.csv,2023-07-05_10h45.44.119,PainUncertainty,2022.2.5,144.0994863
aigu,forte,stimuli/660Hz,stimuli/forte,bloc_9,prob20hthp_12trials.xlsx,3,36,80,20,0,,,,,0,6,6,6,1,11,23,11,,,,,,,,3.8,1106.789926,1110.591007,1110.58937,0.3053885,1111.036063,1111.036063,m,0.7439929,1113.339338,1113.339338,65,1.496,,,,sub-036,130,200,700,bloc_loopcontinue.csv,2023-07-05_10h45.44.119,PainUncertainty,2022.2.5,144.0994863
grave,forte,stimuli/330Hz,stimuli/forte,bloc_9,prob20hthp_12trials.xlsx,3,36,80,20,0,,,,,0,6,6,6,2,0,24,0,,,,,,,,3.6,1113.339338,1116.944607,1116.944334,0.3014896,1117.388895,1117.388895,m,1.1957548,1121.664858,1121.664858,63,3.002,,,,sub-036,130,200,700,bloc_loopcontinue.csv,2023-07-05_10h45.44.119,PainUncertainty,2022.2.5,144.0994863
aigu,moderee,stimuli/660Hz,stimuli/moderee,bloc_9,prob20hthp_12trials.xlsx,3,36,80,20,0,,,,,0,6,6,6,2,1,25,7,,,,,,,,4.4,1121.664858,1126.07033,1126.070062,0.3050437,1126.518304,1126.518304,n,0.6570812,1129.269163,1129.269163,27,2.033,,,,sub-036,130,200,700,bloc_loopcontinue.csv,2023-07-05_10h45.44.119,PainUncertainty,2022.2.5,144.0994863
aigu,moderee,stimuli/660Hz,stimuli/moderee,bloc_9,prob20hthp_12trials.xlsx,3,36,80,20,0,,,,,0,6,6,6,2,2,26,10,,,,,,,,3.9,1129.269163,1133.168419,1133.168292,0.3049319,1133.61269,1133.61269,n,0.7477128,1137.325416,1137.325416,23,2.887,,,,sub-036,130,200,700,bloc_loopcontinue.csv,2023-07-05_10h45.44.119,PainUncertainty,2022.2.5,144.0994863
aigu,forte,stimuli/660Hz,stimuli/forte,bloc_9,prob20hthp_12trials.xlsx,3,36,80,20,0,,,,,0,6,6,6,2,3,27,11,,,,,,,,3.7,1137.325416,1141.030433,1141.030233,0.3050678,1141.474681,1141.474681,m,0.7959222,1145.168783,1145.168783,60,2.833,,,,sub-036,130,200,700,bloc_loopcontinue.csv,2023-07-05_10h45.44.119,PainUncertainty,2022.2.5,144.0994863
grave,forte,stimuli/330Hz,stimuli/forte,bloc_9,prob20hthp_12trials.xlsx,3,36,80,20,0,,,,,0,6,6,6,2,4,28,3,,,,,,,,4.1,1145.168783,1149.27453,1149.274219,0.305222,1149.719003,1149.719003,m,1.1820506,1153.44622,1153.44622,62,2.476,,,,sub-036,130,200,700,bloc_loopcontinue.csv,2023-07-05_10h45.44.119,PainUncertainty,2022.2.5,144.0994863
grave,moderee,stimuli/330Hz,stimuli/moderee,bloc_9,prob20hthp_12trials.xlsx,3,36,80,20,0,,,,,0,6,6,6,2,5,29,5,,,,,,,,3,1153.44622,1156.448905,1156.448698,0.3050567,1156.893276,1156.893276,n,1.4305283,1160.460722,1160.460722,42,2.073,,,,sub-036,130,200,700,bloc_loopcontinue.csv,2023-07-05_10h45.44.119,PainUncertainty,2022.2.5,144.0994863
grave,forte,stimuli/330Hz,stimuli/forte,bloc_9,prob20hthp_12trials.xlsx,3,36,80,20,0,,,,,0,6,6,6,2,6,30,1,,,,,,,,3.4,1160.460722,1163.866562,1163.866244,0.3051385,1164.311273,1164.311273,m,0.8039183,1167.477051,1167.477051,60,2.297,,,,sub-036,130,200,700,bloc_loopcontinue.csv,2023-07-05_10h45.44.119,PainUncertainty,2022.2.5,144.0994863
aigu,moderee,stimuli/660Hz,stimuli/moderee,bloc_9,prob20hthp_12trials.xlsx,3,36,80,20,0,,,,,0,6,6,6,2,7,31,6,,,,,,,,4.3,1167.477051,1171.777403,1171.777203,0.304708,1172.221415,1172.221415,n,0.7942992,1175.289052,1175.289052,25,2.219,,,,sub-036,130,200,700,bloc_loopcontinue.csv,2023-07-05_10h45.44.119,PainUncertainty,2022.2.5,144.0994863
aigu,moderee,stimuli/660Hz,stimuli/moderee,bloc_9,prob20hthp_12trials.xlsx,3,36,80,20,0,,,,,0,6,6,6,2,8,32,9,,,,,,,,3.5,1175.289052,1178.792037,1178.791821,0.3052907,1179.236173,1179.236173,n,0.855977,1183.329158,1183.329158,28,3.148,,,,sub-036,130,200,700,bloc_loopcontinue.csv,2023-07-05_10h45.44.119,PainUncertainty,2022.2.5,144.0994863
grave,forte,stimuli/330Hz,stimuli/forte,bloc_9,prob20hthp_12trials.xlsx,3,36,80,20,0,,,,,0,6,6,6,2,9,33,2,,,,,,,,3.7,1183.329158,1187.02963,1187.029599,0.3044491,1187.473439,1187.473439,m,1.5051666,1191.635461,1191.635461,57,2.607,,,,sub-036,130,200,700,bloc_loopcontinue.csv,2023-07-05_10h45.44.119,PainUncertainty,2022.2.5,144.0994863
grave,forte,stimuli/330Hz,stimuli/forte,bloc_9,prob20hthp_12trials.xlsx,3,36,80,20,0,,,,,0,6,6,6,2,10,34,4,,,,,,,,4.7,1191.635461,1196.336201,1196.33598,0.2998039,1196.780492,1196.780492,m,1.2789329,1200.393226,1200.393226,59,2.26,,,,sub-036,130,200,700,bloc_loopcontinue.csv,2023-07-05_10h45.44.119,PainUncertainty,2022.2.5,144.0994863
aigu,moderee,stimuli/660Hz,stimuli/moderee,bloc_9,prob20hthp_12trials.xlsx,3,36,80,20,0,,,,,0,6,6,6,2,11,35,8,,,,,,,,4.7,1200.393226,1205.093787,1205.093519,0.304956,1205.538196,1205.538196,n,0.7173437,1208.607809,1208.607809,40,2.323,,,,sub-036,130,200,700,bloc_loopcontinue.csv,2023-07-05_10h45.44.119,PainUncertainty,2022.2.5,144.0994863