series.thisRepN,series.thisTrialN,series.thisN,series.thisIndex,Ramp.thisRepN,Ramp.thisTrialN,Ramp.thisN,Ramp.thisIndex,rand_shocks.thisRepN,rand_shocks.thisTrialN,rand_shocks.thisN,rand_shocks.thisIndex,wait1_dur,intensity,text_7.started,text_12.started,key_resp_8.started,key_resp_8.keys,key_resp_8.rt,text_3.started,text_3.stopped,text_4.started,text_4.stopped,main_text.started,confirm_text.started,rating,ratingScale.response,ratingScale.rt,text_2.started,key_resp_3.started,key_resp_3.keys,key_resp_3.rt,text_9.started,key_resp_7.started,key_resp_7.keys,key_resp_7.rt,main_text_rand.started,confirm_rand.started,scale_wasmoved,rating_rand_.response,rating_rand_.rt,participant,debug,fail_ma,max_ma,nramps,date,expName,psychopyVersion,frameRate,
0,0,0,0,0,0,0,0,,,,,2.0,10,652.3876740999985,652.4118531999993,652.4118531999993,p,4.919755299997632,657.3431445000024,659.3438650000026,659.3438650000026,660.3708804000053,683.1713420000015,683.1713420000015,3,3,22.801,683.1713420000015,683.1713420000015,y,15.84017519999179,,,,,,,,,,sub-025,0,750,700,3,2023-06-14_11h54.21.551,painuncertainty_calibration,2022.2.5,144.39182164201617,
0,0,0,0,1,0,1,0,,,,,2.0,20,699.0480523000006,699.1265814000071,699.1265814000071,p,0.6049040999932913,699.7441940999997,701.7449805000069,701.7449805000069,702.7615113000065,710.8479300000035,710.8479300000035,9,9,8.087,710.8479300000035,710.8479300000035,y,1.3953483999939635,,,,,,,,,,sub-025,0,750,700,3,2023-06-14_11h54.21.551,painuncertainty_calibration,2022.2.5,144.39182164201617,
0,0,0,0,2,0,2,0,,,,,2.2,30,712.277565299999,712.356899499995,712.356899499995,p,1.11897099998896,713.4895944000018,715.6906862000033,715.6906862000033,716.7084563999961,724.829144000003,724.829144000003,16,16,8.123,724.829144000003,724.829144000003,y,7.430079400000977,,,,,,,,,,sub-025,0,750,700,3,2023-06-14_11h54.21.551,painuncertainty_calibration,2022.2.5,144.39182164201617,
0,0,0,0,3,0,3,0,,,,,2.1,40,732.3011983000033,732.3736762000044,732.3736762000044,p,0.8694013999920571,733.2556552000024,735.353273700006,735.353273700006,736.3700910000043,751.5540035000013,751.5540035000013,19,19,15.184,751.5540035000013,751.5540035000013,y,8.033937100000912,,,,,,,,,,sub-025,0,750,700,3,2023-06-14_11h54.21.551,painuncertainty_calibration,2022.2.5,144.39182164201617,
0,0,0,0,4,0,4,0,,,,,2.3,50,759.6247157000034,759.7032991000015,759.7032991000015,p,1.1967503999912878,760.9114249999984,763.2104726999969,763.2104726999969,764.2288120000012,774.7239626999944,774.7239626999944,22,22,10.497,774.7239626999944,774.7239626999944,y,4.759275300006266,,,,,,,,,,sub-025,0,750,700,3,2023-06-14_11h54.21.551,painuncertainty_calibration,2022.2.5,144.39182164201617,
0,0,0,0,5,0,5,0,,,,,2.3,60,779.5191838000028,779.5947040000028,779.5947040000028,p,0.8645056999957887,780.4694640999951,782.7754539000016,782.7754539000016,783.7951100000064,810.3116596000036,810.3116596000036,26,26,26.519,810.3116596000036,810.3116596000036,y,2.6203552999941166,,,,,,,,,,sub-025,0,750,700,3,2023-06-14_11h54.21.551,painuncertainty_calibration,2022.2.5,144.39182164201617,
0,0,0,0,6,0,6,0,,,,,2.3,70,812.9614759999968,813.0432941000035,813.0432941000035,p,1.0879401999991387,814.1401551000017,816.4463090000063,816.4463090000063,,820.8847000999958,820.8847000999958,42,42,3.421,820.8847000999958,820.8847000999958,n,1.3424796000035712,,,,,,,,,,sub-025,0,750,700,3,2023-06-14_11h54.21.551,painuncertainty_calibration,2022.2.5,144.39182164201617,
0,0,0,0,,,,,,,,,,,,,,,,,,,,,,,,,,,,,,,,,,,,,,sub-025,0,750,700,3,2023-06-14_11h54.21.551,painuncertainty_calibration,2022.2.5,144.39182164201617,
1,0,1,0,0,0,0,0,,,,,2.5,10,891.2780777000007,891.3510620000015,891.3510620000015,p,2.9480559000076028,894.3100956999988,896.8106974999973,896.8106974999973,897.8278005000029,900.6924447000056,900.6924447000056,8,8,2.864,900.6924447000056,900.6924447000056,y,2.8556480999977794,,,,,,,,,,sub-025,0,750,700,3,2023-06-14_11h54.21.551,painuncertainty_calibration,2022.2.5,144.39182164201617,
1,0,1,0,1,0,1,0,,,,,2.2,20,903.5960265000031,903.665663199994,903.665663199994,p,0.86624540000048,904.5405217999942,906.742591999995,906.742591999995,907.7601722999971,913.847122200008,913.847122200008,11,11,6.087,913.847122200008,913.847122200008,y,2.9561164999904577,,,,,,,,,,sub-025,0,750,700,3,2023-06-14_11h54.21.551,painuncertainty_calibration,2022.2.5,144.39182164201617,
1,0,1,0,2,0,2,0,,,,,2.3,30,916.8435314999952,916.917111799994,916.917111799994,p,0.9746440999879269,917.9033074000035,920.2024670999963,920.2024670999963,921.2182157000061,925.917101900006,925.917101900006,14,14,4.699,925.917101900006,925.917101900006,y,7.006184199999552,,,,,,,,,,sub-025,0,750,700,3,2023-06-14_11h54.21.551,painuncertainty_calibration,2022.2.5,144.39182164201617,
1,0,1,0,3,0,3,0,,,,,2.1,40,932.9653703999938,933.0365351000073,933.0365351000073,p,1.1351557000016328,934.1824897000042,936.2870294000022,936.2870294000022,937.3021894999983,942.1486370000057,942.1486370000057,21,21,4.846,942.1486370000057,942.1486370000057,y,2.51182329999574,,,,,,,,,,sub-025,0,750,700,3,2023-06-14_11h54.21.551,painuncertainty_calibration,2022.2.5,144.39182164201617,
1,0,1,0,4,0,4,0,,,,,2.3,50,944.6942833000066,944.774390000006,944.774390000006,p,0.9975417999958154,945.7817747000081,948.0871101999946,948.0871101999946,949.1026960000017,953.0581183000031,953.0581183000031,24,24,3.956,953.0581183000031,953.0581183000031,y,3.2978520000033313,,,,,,,,,,sub-025,0,750,700,3,2023-06-14_11h54.21.551,painuncertainty_calibration,2022.2.5,144.39182164201617,
1,0,1,0,5,0,5,0,,,,,2.5,60,956.3908296000009,956.4698862000077,956.4698862000077,p,0.8693758999870624,957.3520289000007,959.8524801000021,959.8524801000021,960.8698055999994,969.5956427000056,969.5956427000056,25,25,8.728,969.5956427000056,969.5956427000056,n,1.544297300002654,,,,,,,,,,sub-025,0,750,700,3,2023-06-14_11h54.21.551,painuncertainty_calibration,2022.2.5,144.39182164201617,
1,0,1,0,,,,,,,,,,,,,,,,,,,,,,,,,,,,,,,,,,,,,,sub-025,0,750,700,3,2023-06-14_11h54.21.551,painuncertainty_calibration,2022.2.5,144.39182164201617,
2,0,2,0,0,0,0,0,,,,,2.5,10,975.3744925000065,975.4514251000073,975.4514251000073,p,9.544221799995285,985.0081258999999,987.508565600001,987.508565600001,988.5243383000052,994.6255911000044,994.6255911000044,5,5,6.102,994.6255911000044,994.6255911000044,y,1.3468152999994345,,,,,,,,,,sub-025,0,750,700,3,2023-06-14_11h54.21.551,painuncertainty_calibration,2022.2.5,144.39182164201617,
2,0,2,0,1,0,1,0,,,,,2.0,20,996.0030330000009,996.0857752000011,996.0857752000011,p,0.9657267000002321,997.0586310000072,999.058844500003,999.058844500003,1000.0756645000074,1003.2655608000059,1003.2655608000059,6,6,3.19,1003.2655608000059,1003.2655608000059,y,1.2506069999944884,,,,,,,,,,sub-025,0,750,700,3,2023-06-14_11h54.21.551,painuncertainty_calibration,2022.2.5,144.39182164201617,
2,0,2,0,2,0,2,0,,,,,2.3,30,1004.5516188000038,1004.6290529999969,1004.6290529999969,p,0.8548516999871936,1005.4967114000028,1007.8027146999957,1007.8027146999957,1008.8230315999972,1011.5455813000008,1011.5455813000008,11,11,2.723,1011.5455813000008,1011.5455813000008,y,1.6988929999934044,,,,,,,,,,sub-025,0,750,700,3,2023-06-14_11h54.21.551,painuncertainty_calibration,2022.2.5,144.39182164201617,
2,0,2,0,3,0,3,0,,,,,2.5,40,1013.2761850999959,1013.3587012000062,1013.3587012000062,p,1.029444700005115,1014.4006601000001,1016.901286399996,1016.901286399996,1017.919324100003,1023.5055782999989,1023.5055782999989,14,14,5.586,1023.5055782999989,1023.5055782999989,y,5.5222001999936765,,,,,,,,,,sub-025,0,750,700,3,2023-06-14_11h54.21.551,painuncertainty_calibration,2022.2.5,144.39182164201617,
2,0,2,0,4,0,4,0,,,,,2.4,50,1029.0634808000032,1029.1456610000023,1029.1456610000023,p,0.8021448000072269,1029.9602885000058,1032.3617918999953,1032.3617918999953,1033.3791112000035,1034.7968212999986,1034.7968212999986,16,16,1.418,1034.7968212999986,1034.7968212999986,y,4.366877299995394,,,,,,,,,,sub-025,0,750,700,3,2023-06-14_11h54.21.551,painuncertainty_calibration,2022.2.5,144.39182164201617,
2,0,2,0,5,0,5,0,,,,,2.0,60,1039.210202000002,1039.2784935999953,1039.2784935999953,p,0.6862254000006942,1039.973409600003,1041.973773100006,1041.973773100006,1042.990743000002,1054.6054291000037,1054.6054291000037,18,18,11.615,1054.6054291000037,1054.6054291000037,n,7.90305609999632,,,,,,,,,,sub-025,0,750,700,3,2023-06-14_11h54.21.551,painuncertainty_calibration,2022.2.5,144.39182164201617,
2,0,2,0,,,,,,,,,,,,,,,,,,,,,,,,,,,,,,,,,,,,,,sub-025,0,750,700,3,2023-06-14_11h54.21.551,painuncertainty_calibration,2022.2.5,144.39182164201617,
,,,,,,,,0,0,0,0,3.0,10,,,,,,1127.7200980000052,1130.7205989000067,1130.7205989000067,1131.7378075000015,,,5,,,,,,,1127.0986562000035,1127.0986562000035,p,0.609601099989959,1137.5320944999985,1137.5320944999985,1,5,5.76,sub-025,0,750,700,3,2023-06-14_11h54.21.551,painuncertainty_calibration,2022.2.5,144.39182164201617,
,,,,,,,,1,0,1,0,3.0,18,,,,,,1138.290301400004,1141.2906842999946,1141.2906842999946,1142.3045872000075,,,11,,,,,,,1137.5320944999985,1137.5320944999985,p,0.7510780999873532,1144.4510467000073,1144.4510467000073,0,11,2.089,sub-025,0,750,700,3,2023-06-14_11h54.21.551,painuncertainty_calibration,2022.2.5,144.39182164201617,
,,,,,,,,2,0,2,0,3.0,37,,,,,,1145.3607056000037,1148.3611505000008,1148.3611505000008,1149.3787188999995,,,20,,,,,,,1144.4510467000073,1144.4510467000073,p,0.896658199999365,1154.7400653000077,1154.7400653000077,1,20,5.31,sub-025,0,750,700,3,2023-06-14_11h54.21.551,painuncertainty_calibration,2022.2.5,144.39182164201617,
,,,,,,,,3,0,3,0,3.0,14,,,,,,1155.6326733000024,1158.6330702999985,1158.6330702999985,1159.6498460000003,,,6,,,,,,,1154.7400653000077,1154.7400653000077,p,0.8795764999958919,1164.9517663000006,1164.9517663000006,1,6,5.247,sub-025,0,750,700,3,2023-06-14_11h54.21.551,painuncertainty_calibration,2022.2.5,144.39182164201617,
,,,,,,,,4,0,4,0,3.0,52,,,,,,1165.647976799999,1168.6481826999952,1168.6481826999952,1169.6642802999995,,,23,,,,,,,1164.9517663000006,1164.9517663000006,p,0.6844169000105467,1173.8527216999937,1173.8527216999937,1,23,4.137,sub-025,0,750,700,3,2023-06-14_11h54.21.551,painuncertainty_calibration,2022.2.5,144.39182164201617,
,,,,,,,,5,0,5,0,3.0,29,,,,,,1174.614086600006,1177.6145568000065,1177.6145568000065,1178.6309539000067,,,14,,,,,,,1173.8527216999937,1173.8527216999937,p,0.7506709000008414,1180.7875774999993,1180.7875774999993,1,14,2.108,sub-025,0,750,700,3,2023-06-14_11h54.21.551,painuncertainty_calibration,2022.2.5,144.39182164201617,
,,,,,,,,6,0,6,0,3.0,45,,,,,,1181.733091400005,1184.7334734000033,1184.7334734000033,1185.7489243000018,,,18,,,,,,,1180.7875774999993,1180.7875774999993,p,0.936709499990684,1190.6767849000025,1190.6767849000025,1,18,4.873,sub-025,0,750,700,3,2023-06-14_11h54.21.551,painuncertainty_calibration,2022.2.5,144.39182164201617,
,,,,,,,,7,0,7,0,3.0,60,,,,,,1204.8539756999962,1207.8544825999998,1207.8544825999998,1208.8718529000034,,,19,,,,,,,1190.6767849000025,1190.6767849000025,p,14.16732989999582,1212.7471219,1212.7471219,1,19,3.822,sub-025,0,750,700,3,2023-06-14_11h54.21.551,painuncertainty_calibration,2022.2.5,144.39182164201617,
,,,,,,,,8,0,8,0,3.0,25,,,,,,1213.5219760000036,1216.5223498999985,1216.5223498999985,1217.5397085000004,,,8,,,,,,,1212.7471219,1212.7471219,p,0.7621175000094809,1219.3282760000002,1219.3282760000002,1,8,1.745,sub-025,0,750,700,3,2023-06-14_11h54.21.551,painuncertainty_calibration,2022.2.5,144.39182164201617,
,,,,,,,,9,0,9,0,3.0,48,,,,,,1220.0918232999975,1223.0923064999952,1223.0923064999952,1224.1077039999946,,,14,,,,,,,1219.3282760000002,1219.3282760000002,p,0.755882900004508,1227.3351907000033,1227.3351907000033,1,14,3.178,sub-025,0,750,700,3,2023-06-14_11h54.21.551,painuncertainty_calibration,2022.2.5,144.39182164201617,
,,,,,,,,10,0,10,0,3.0,56,,,,,,1233.211452500007,1236.2119882999978,1236.2119882999978,1237.2280871999974,,,18,,,,,,,1227.3351907000033,1227.3351907000033,p,5.86861510000017,1242.8657950000052,1242.8657950000052,1,18,5.594,sub-025,0,750,700,3,2023-06-14_11h54.21.551,painuncertainty_calibration,2022.2.5,144.39182164201617,
,,,,,,,,11,0,11,0,3.0,33,,,,,,1244.6156457000034,1247.6161246999982,1247.6161246999982,1248.6339704999991,,,12,,,,,,,1242.8657950000052,1242.8657950000052,p,1.7377304999972694,1253.5547115999943,1253.5547115999943,1,12,4.877,sub-025,0,750,700,3,2023-06-14_11h54.21.551,painuncertainty_calibration,2022.2.5,144.39182164201617,
,,,,,,,,12,0,12,0,3.0,22,,,,,,1254.1518791999988,1257.152021899994,1257.152021899994,1258.169938200008,,,9,,,,,,,1253.5547115999943,1253.5547115999943,p,0.5845537999994121,1260.7951394999982,1260.7951394999982,1,9,2.573,sub-025,0,750,700,3,2023-06-14_11h54.21.551,painuncertainty_calibration,2022.2.5,144.39182164201617,
,,,,,,,,13,0,13,0,3.0,41,,,,,,1261.6385145999957,1264.6393345999968,1264.6393345999968,1265.6571094999963,,,13,,,,,,,1260.7951394999982,1260.7951394999982,p,0.8328534999891417,1271.8776595999952,1271.8776595999952,1,13,6.219,sub-025,0,750,700,3,2023-06-14_11h54.21.551,painuncertainty_calibration,2022.2.5,144.39182164201617,
