cue_,stimulus_,cue_fichier,stimulus_fichier,block_name,block_trials_file,block_n_reps,block_ntrials,block_prob_highP_highT,block_prob_highP_lowT,block_pause_after,Bloc_essai.thisRepN,Bloc_essai.thisTrialN,Bloc_essai.thisN,Bloc_essai.thisIndex,blocks.thisRepN,blocks.thisTrialN,blocks.thisN,blocks.thisIndex,trials.thisRepN,trials.thisTrialN,trials.thisN,trials.thisIndex,pause_loop.thisRepN,pause_loop.thisTrialN,pause_loop.thisN,pause_loop.thisIndex,key_resp_5.started,start_calib.started,key_resp_2.started,ISI_duration,pause.started,pause.stopped,cue.started,ISI.started,choice_pain.started,Choice.started,choice_pain.keys,choice_pain.rt,main_text.started,confirm_text.started,ratingScale.response,ratingScale.rt,key_resp_3.started,key_resp_6.started,participant,low_ma,high_ma,failsafe_ma,block_file,date,expName,psychopyVersion,frameRate,
aigu,forte,stimuli/660Hz,stimuli/forte,,,,,,,,0,0,0,3,,,,,,,,,,,,,58.412066799995955,70.75486960000126,334.8144808999932,4.6,338.34383489999163,342.9536442999961,342.95474849999005,0.29948039998998865,343.39236959999835,343.39236959999835,m,0.9644056999968598,351.3604323000036,351.3604323000036,22,6.931,,,sub-025,20,60,700,bloc_loop.csv,2023-06-14_12h17.40.202,PainUncertainty,2022.2.5,142.9790835826881,
aigu,moderee,stimuli/660Hz,stimuli/moderee,,,,,,,,0,1,1,2,,,,,,,,,,,,,,,,3.7,351.3604323000036,355.0621587999922,355.0603692499993,0.30092519999016076,355.50483160000294,355.50483160000294,n,0.1548670000047423,363.6647837999917,363.6647837999917,7,7.942,,,sub-025,20,60,700,bloc_loop.csv,2023-06-14_12h17.40.202,PainUncertainty,2022.2.5,142.9790835826881,
grave,moderee,stimuli/330Hz,stimuli/moderee,,,,,,,,0,2,2,0,,,,,,,,,,,,,,,,5,363.6647837999917,368.6689278999984,368.6663369500005,0.301760699992883,369.11034590000054,369.11034590000054,n,0.6661233000049833,377.4068671999994,377.4068671999994,9,7.573,,,sub-025,20,60,700,bloc_loop.csv,2023-06-14_12h17.40.202,PainUncertainty,2022.2.5,142.9790835826881,
grave,forte,stimuli/330Hz,stimuli/forte,,,,,,,,0,3,3,1,,,,,,,,,,,,,,,,4.9,377.4068671999994,382.3063761999947,382.3063529499908,0.3051710999861825,382.75057239999296,382.75057239999296,m,0.652970600000117,389.4442210999987,389.4442210999987,21,6.018,,,sub-025,20,60,700,bloc_loop.csv,2023-06-14_12h17.40.202,PainUncertainty,2022.2.5,142.9790835826881,
aigu,moderee,stimuli/660Hz,stimuli/moderee,bloc_1,prob20hthp_12trials.xlsx,4,48,20,80,0,,,,,0,0,0,0,0,0,0,8,,,,,,,,4.2,516.1872348999896,520.3930398999946,520.3941569500006,0.3037163999979384,520.8368974999903,520.8368974999903,n,0.6063029000069946,524.7973266999907,524.7973266999907,12,3.295,,,sub-025,20,60,700,bloc_loop.csv,2023-06-14_12h17.40.202,PainUncertainty,2022.2.5,142.9790835826881,
aigu,moderee,stimuli/660Hz,stimuli/moderee,bloc_1,prob20hthp_12trials.xlsx,4,48,20,80,0,,,,,0,0,0,0,0,1,1,6,,,,,,,,4.9,524.7973266999907,529.6998468999955,529.6998125499944,0.3047671999956947,530.1436500999989,530.1436500999989,n,0.5881393000017852,533.9066321999999,533.9066321999999,11,3.114,,,sub-025,20,60,700,bloc_loop.csv,2023-06-14_12h17.40.202,PainUncertainty,2022.2.5,142.9790835826881,
aigu,forte,stimuli/660Hz,stimuli/forte,bloc_1,prob20hthp_12trials.xlsx,4,48,20,80,0,,,,,0,0,0,0,0,2,2,11,,,,,,,,4.1,533.9066321999999,538.005935299996,538.0060622500008,0.30551930000365246,538.450903399993,538.450903399993,m,0.5954560999962268,543.4769359999918,543.4769359999918,19,4.378,,,sub-025,20,60,700,bloc_loop.csv,2023-06-14_12h17.40.202,PainUncertainty,2022.2.5,142.9790835826881,
grave,moderee,stimuli/330Hz,stimuli/moderee,bloc_1,prob20hthp_12trials.xlsx,4,48,20,80,0,,,,,0,0,0,0,0,3,3,5,,,,,,,,4.6,543.4769359999918,548.0785628000012,548.0768897499933,0.3050100999971619,548.5207698000013,548.5207698000013,n,0.6067678999970667,551.5650824999902,551.5650824999902,10,2.372,,,sub-025,20,60,700,bloc_loop.csv,2023-06-14_12h17.40.202,PainUncertainty,2022.2.5,142.9790835826881,
grave,forte,stimuli/330Hz,stimuli/forte,bloc_1,prob20hthp_12trials.xlsx,4,48,20,80,0,,,,,0,0,0,0,0,4,4,2,,,,,,,,4.9,551.5650824999902,556.4671653999976,556.4668311499976,0.30484929999511223,556.9107461999956,556.9107461999956,m,0.7024887000006856,560.1445166999911,560.1445166999911,20,2.476,,,sub-025,20,60,700,bloc_loop.csv,2023-06-14_12h17.40.202,PainUncertainty,2022.2.5,142.9790835826881,
aigu,moderee,stimuli/660Hz,stimuli/moderee,bloc_1,prob20hthp_12trials.xlsx,4,48,20,80,0,,,,,0,0,0,0,0,5,5,7,,,,,,,,3.8,560.1445166999911,563.9469505000015,563.9469017499927,0.3049940999917453,564.3908031000028,564.3908031000028,n,0.6204105000069831,568.3417757999996,568.3417757999996,16,3.267,,,sub-025,20,60,700,bloc_loop.csv,2023-06-14_12h17.40.202,PainUncertainty,2022.2.5,142.9790835826881,
grave,forte,stimuli/330Hz,stimuli/forte,bloc_1,prob20hthp_12trials.xlsx,4,48,20,80,0,,,,,0,0,0,0,0,6,6,4,,,,,,,,4,568.3417757999996,572.3435770999931,572.3434951499934,0.3050453000032576,572.7876921999996,572.7876921999996,m,0.6397672000020975,576.5875679000019,576.5875679000019,22,3.101,,,sub-025,20,60,700,bloc_loop.csv,2023-06-14_12h17.40.202,PainUncertainty,2022.2.5,142.9790835826881,
aigu,moderee,stimuli/660Hz,stimuli/moderee,bloc_1,prob20hthp_12trials.xlsx,4,48,20,80,0,,,,,0,0,0,0,0,7,7,9,,,,,,,,3.2,576.5875679000019,579.7891737000027,579.7891345499942,0.3052490999980364,580.2402563999931,580.2402563999931,n,0.5765856000070926,585.4574455999973,585.4574455999973,9,4.579,,,sub-025,20,60,700,bloc_loop.csv,2023-06-14_12h17.40.202,PainUncertainty,2022.2.5,142.9790835826881,
aigu,moderee,stimuli/660Hz,stimuli/moderee,bloc_1,prob20hthp_12trials.xlsx,4,48,20,80,0,,,,,0,0,0,0,0,8,8,10,,,,,,,,4.6,585.4574455999973,590.0612609999953,590.0614933500023,0.3049412999971537,590.5087265000038,590.5087265000038,n,0.532917999997153,593.0286924999964,593.0286924999964,9,1.927,,,sub-025,20,60,700,bloc_loop.csv,2023-06-14_12h17.40.202,PainUncertainty,2022.2.5,142.9790835826881,
grave,forte,stimuli/330Hz,stimuli/forte,bloc_1,prob20hthp_12trials.xlsx,4,48,20,80,0,,,,,0,0,0,0,0,9,9,1,,,,,,,,4.5,593.0286924999964,597.5340585999948,597.5342221500017,0.3054604000062682,597.9810318999953,597.9810318999953,m,0.6359095000079833,603.1447450999985,603.1447450999985,17,4.469,,,sub-025,20,60,700,bloc_loop.csv,2023-06-14_12h17.40.202,PainUncertainty,2022.2.5,142.9790835826881,
grave,forte,stimuli/330Hz,stimuli/forte,bloc_1,prob20hthp_12trials.xlsx,4,48,20,80,0,,,,,0,0,0,0,0,10,10,0,,,,,,,,4.3,603.1447450999985,607.4450748999952,607.4450121499962,0.30517529998905957,607.891404199996,607.891404199996,m,0.6228069000062533,611.9484464999987,611.9484464999987,18,3.371,,,sub-025,20,60,700,bloc_loop.csv,2023-06-14_12h17.40.202,PainUncertainty,2022.2.5,142.9790835826881,
grave,forte,stimuli/330Hz,stimuli/forte,bloc_1,prob20hthp_12trials.xlsx,4,48,20,80,0,,,,,0,0,0,0,0,11,11,3,,,,,,,,3.5,611.9484464999987,615.4530732999992,615.4530342499914,0.30537059999187477,615.8997040999966,615.8997040999966,m,0.5013056000025244,619.7625515999971,619.7625515999971,20,3.296,,,sub-025,20,60,700,bloc_loop.csv,2023-06-14_12h17.40.202,PainUncertainty,2022.2.5,142.9790835826881,
grave,forte,stimuli/330Hz,stimuli/forte,bloc_1,prob20hthp_12trials.xlsx,4,48,20,80,0,,,,,0,0,0,0,1,0,12,3,,,,,,,,3.3,619.7625515999971,623.0650177999923,623.0651140499962,0.3050017000059597,623.5092721999972,623.5092721999972,m,0.5423793000081787,627.352509999997,627.352509999997,18,3.232,,,sub-025,20,60,700,bloc_loop.csv,2023-06-14_12h17.40.202,PainUncertainty,2022.2.5,142.9790835826881,
grave,moderee,stimuli/330Hz,stimuli/moderee,bloc_1,prob20hthp_12trials.xlsx,4,48,20,80,0,,,,,0,0,0,0,1,1,13,5,,,,,,,,4.2,627.352509999997,631.5525837000023,631.5527687499983,0.3051158000016585,631.9966408999899,631.9966408999899,n,0.6348695000051521,636.1404875000007,636.1404875000007,7,3.447,,,sub-025,20,60,700,bloc_loop.csv,2023-06-14_12h17.40.202,PainUncertainty,2022.2.5,142.9790835826881,
aigu,forte,stimuli/660Hz,stimuli/forte,bloc_1,prob20hthp_12trials.xlsx,4,48,20,80,0,,,,,0,0,0,0,1,2,14,11,,,,,,,,4.7,636.1404875000007,640.8449599000014,640.8449161500015,0.3052849999949103,641.2892263999966,641.2892263999966,m,0.6406916999985697,645.121943399994,645.121943399994,17,3.129,,,sub-025,20,60,700,bloc_loop.csv,2023-06-14_12h17.40.202,PainUncertainty,2022.2.5,142.9790835826881,
grave,forte,stimuli/330Hz,stimuli/forte,bloc_1,prob20hthp_12trials.xlsx,4,48,20,80,0,,,,,0,0,0,0,1,3,15,2,,,,,,,,3.2,645.121943399994,648.3250948999921,648.3251158499901,0.30489949999901,648.7731270999939,648.7731270999939,m,0.794396900004358,650.7630656999972,650.7630656999972,20,1.081,,,sub-025,20,60,700,bloc_loop.csv,2023-06-14_12h17.40.202,PainUncertainty,2022.2.5,142.9790835826881,
aigu,moderee,stimuli/660Hz,stimuli/moderee,bloc_1,prob20hthp_12trials.xlsx,4,48,20,80,0,,,,,0,0,0,0,1,4,16,10,,,,,,,,4.8,650.7630656999972,655.5689396999951,655.5689642499914,0.30511840000690427,656.0155633999966,656.0155633999966,n,0.653636799994274,660.0132998999907,660.0132998999907,9,3.282,,,sub-025,20,60,700,bloc_loop.csv,2023-06-14_12h17.40.202,PainUncertainty,2022.2.5,142.9790835826881,
grave,forte,stimuli/330Hz,stimuli/forte,bloc_1,prob20hthp_12trials.xlsx,4,48,20,80,0,,,,,0,0,0,0,1,5,17,1,,,,,,,,4.6,660.0132998999907,664.6186944999936,664.6187097499918,0.3049583999963943,665.0628484999907,665.0628484999907,m,2.1201105999934953,671.4547648000007,671.4547648000007,11,4.21,,,sub-025,20,60,700,bloc_loop.csv,2023-06-14_12h17.40.202,PainUncertainty,2022.2.5,142.9790835826881,
aigu,moderee,stimuli/660Hz,stimuli/moderee,bloc_1,prob20hthp_12trials.xlsx,4,48,20,80,0,,,,,0,0,0,0,1,6,18,8,,,,,,,,4.3,671.4547648000007,675.7590110000019,675.758924549997,0.3049938999902224,676.2036389999994,676.2036389999994,n,0.5565438000048744,679.6516754999902,679.6516754999902,7,2.83,,,sub-025,20,60,700,bloc_loop.csv,2023-06-14_12h17.40.202,PainUncertainty,2022.2.5,142.9790835826881,
aigu,moderee,stimuli/660Hz,stimuli/moderee,bloc_1,prob20hthp_12trials.xlsx,4,48,20,80,0,,,,,0,0,0,0,1,7,19,9,,,,,,,,3.7,679.6516754999902,683.3571286999941,683.3570276499944,0.3052754999953322,683.8044701000035,683.8044701000035,n,0.6690386999980547,686.7000124999904,686.7000124999904,7,2.172,,,sub-025,20,60,700,bloc_loop.csv,2023-06-14_12h17.40.202,PainUncertainty,2022.2.5,142.9790835826881,
aigu,moderee,stimuli/660Hz,stimuli/moderee,bloc_1,prob20hthp_12trials.xlsx,4,48,20,80,0,,,,,0,0,0,0,1,8,20,7,,,,,,,,4.4,686.7000124999904,691.101404400004,691.1014397499952,0.30490210000425577,691.5452141999995,691.5452141999995,n,0.548834800007171,695.5361505999899,695.5361505999899,8,3.378,,,sub-025,20,60,700,bloc_loop.csv,2023-06-14_12h17.40.202,PainUncertainty,2022.2.5,142.9790835826881,
grave,forte,stimuli/330Hz,stimuli/forte,bloc_1,prob20hthp_12trials.xlsx,4,48,20,80,0,,,,,0,0,0,0,1,9,21,0,,,,,,,,4.3,695.5361505999899,699.8382842999999,699.8382679499904,0.3050331999984337,700.2824105999898,700.2824105999898,m,0.8080560000089463,705.9057163999969,705.9057163999969,15,4.752,,,sub-025,20,60,700,bloc_loop.csv,2023-06-14_12h17.40.202,PainUncertainty,2022.2.5,142.9790835826881,
aigu,moderee,stimuli/660Hz,stimuli/moderee,bloc_1,prob20hthp_12trials.xlsx,4,48,20,80,0,,,,,0,0,0,0,1,10,22,6,,,,,,,,4.5,705.9057163999969,710.4093976000004,710.40946655,0.3047403999953531,710.8531284999917,710.8531284999917,n,0.49473310000030324,714.5185953999899,714.5185953999899,7,3.108,,,sub-025,20,60,700,bloc_loop.csv,2023-06-14_12h17.40.202,PainUncertainty,2022.2.5,142.9790835826881,
grave,forte,stimuli/330Hz,stimuli/forte,bloc_1,prob20hthp_12trials.xlsx,4,48,20,80,0,,,,,0,0,0,0,1,11,23,4,,,,,,,,4.2,714.5185953999899,718.723270100003,718.7231718499955,0.3047713999985717,719.1669048999902,719.1669048999902,m,0.5966021999920486,723.0842160000029,723.0842160000029,16,3.267,,,sub-025,20,60,700,bloc_loop.csv,2023-06-14_12h17.40.202,PainUncertainty,2022.2.5,142.9790835826881,
aigu,moderee,stimuli/660Hz,stimuli/moderee,bloc_1,prob20hthp_12trials.xlsx,4,48,20,80,0,,,,,0,0,0,0,2,0,24,10,,,,,,,,5,723.0842160000029,728.0848687999969,728.0849468499931,0.3050876000052085,728.5291605999955,728.5291605999955,n,0.4746498000022257,732.2556454000005,732.2556454000005,6,3.185,,,sub-025,20,60,700,bloc_loop.csv,2023-06-14_12h17.40.202,PainUncertainty,2022.2.5,142.9790835826881,
grave,moderee,stimuli/330Hz,stimuli/moderee,bloc_1,prob20hthp_12trials.xlsx,4,48,20,80,0,,,,,0,0,0,0,2,1,25,5,,,,,,,,3,732.2556454000005,735.2593055999896,735.2593009499964,0.30520350000006147,735.7035936000029,735.7035936000029,n,0.5210143000003882,739.8946327000012,739.8946327000012,8,3.609,,,sub-025,20,60,700,bloc_loop.csv,2023-06-14_12h17.40.202,PainUncertainty,2022.2.5,142.9790835826881,
aigu,moderee,stimuli/660Hz,stimuli/moderee,bloc_1,prob20hthp_12trials.xlsx,4,48,20,80,0,,,,,0,0,0,0,2,2,26,6,,,,,,,,3.8,739.8946327000012,743.6978153999953,743.6979090499939,0.299154099993757,744.1362659000006,744.1362659000006,n,0.5003724000125658,750.2479361000005,750.2479361000005,6,5.552,,,sub-025,20,60,700,bloc_loop.csv,2023-06-14_12h17.40.202,PainUncertainty,2022.2.5,142.9790835826881,
grave,forte,stimuli/330Hz,stimuli/forte,bloc_1,prob20hthp_12trials.xlsx,4,48,20,80,0,,,,,0,0,0,0,2,3,27,3,,,,,,,,4.6,750.2479361000005,754.8523353999917,754.8523329500007,0.30486000000382774,755.2963469999959,755.2963469999959,m,0.5674945999926422,759.5631791999913,759.5631791999913,14,3.642,,,sub-025,20,60,700,bloc_loop.csv,2023-06-14_12h17.40.202,PainUncertainty,2022.2.5,142.9790835826881,
aigu,moderee,stimuli/660Hz,stimuli/moderee,bloc_1,prob20hthp_12trials.xlsx,4,48,20,80,0,,,,,0,0,0,0,2,4,28,8,,,,,,,,4.5,759.5631791999913,764.0683407000033,764.0682752499982,0.305063899999368,764.51276279999,764.51276279999,n,0.5900542000017595,769.0386884000036,769.0386884000036,9,3.886,,,sub-025,20,60,700,bloc_loop.csv,2023-06-14_12h17.40.202,PainUncertainty,2022.2.5,142.9790835826881,
aigu,moderee,stimuli/660Hz,stimuli/moderee,bloc_1,prob20hthp_12trials.xlsx,4,48,20,80,0,,,,,0,0,0,0,2,5,29,7,,,,,,,,3.2,769.0386884000036,772.2430426999927,772.2430182499942,0.3052421000029426,772.687170499994,772.687170499994,n,0.5198032000043895,775.9272028999985,775.9272028999985,6,2.656,,,sub-025,20,60,700,bloc_loop.csv,2023-06-14_12h17.40.202,PainUncertainty,2022.2.5,142.9790835826881,
aigu,moderee,stimuli/660Hz,stimuli/moderee,bloc_1,prob20hthp_12trials.xlsx,4,48,20,80,0,,,,,0,0,0,0,2,6,30,9,,,,,,,,4.5,775.9272028999985,780.4321879999916,780.431927949989,0.3047012999886647,780.8829315000039,780.8829315000039,n,0.4591147000028286,786.0269261999929,786.0269261999929,7,4.61,,,sub-025,20,60,700,bloc_loop.csv,2023-06-14_12h17.40.202,PainUncertainty,2022.2.5,142.9790835826881,
grave,forte,stimuli/330Hz,stimuli/forte,bloc_1,prob20hthp_12trials.xlsx,4,48,20,80,0,,,,,0,0,0,0,2,7,31,1,,,,,,,,3.4,786.0269261999929,789.4258964000037,789.426013549992,0.30028119999042246,789.8704218999919,789.8704218999919,m,0.5360029000003124,793.7921967000002,793.7921967000002,14,3.316,,,sub-025,20,60,700,bloc_loop.csv,2023-06-14_12h17.40.202,PainUncertainty,2022.2.5,142.9790835826881,
grave,forte,stimuli/330Hz,stimuli/forte,bloc_1,prob20hthp_12trials.xlsx,4,48,20,80,0,,,,,0,0,0,0,2,8,32,4,,,,,,,,4.5,793.7921967000002,798.2947875999962,798.2948321499993,0.30487120000179857,798.7389169999951,798.7389169999951,m,0.5381342999899061,804.2090136999905,804.2090136999905,11,4.879,,,sub-025,20,60,700,bloc_loop.csv,2023-06-14_12h17.40.202,PainUncertainty,2022.2.5,142.9790835826881,
grave,forte,stimuli/330Hz,stimuli/forte,bloc_1,prob20hthp_12trials.xlsx,4,48,20,80,0,,,,,0,0,0,0,2,9,33,2,,,,,,,,4.9,804.2090136999905,809.109020799995,809.1089820499895,0.30004010000266135,809.5540391999966,809.5540391999966,m,1.1144611999916378,814.5010317999986,814.5010317999986,12,3.775,,,sub-025,20,60,700,bloc_loop.csv,2023-06-14_12h17.40.202,PainUncertainty,2022.2.5,142.9790835826881,
grave,forte,stimuli/330Hz,stimuli/forte,bloc_1,prob20hthp_12trials.xlsx,4,48,20,80,0,,,,,0,0,0,0,2,10,34,0,,,,,,,,4.8,814.5010317999986,819.3041941999982,819.3042853499923,0.30512520000047516,819.7483972999908,819.7483972999908,m,0.6123670999950264,822.6653081999975,822.6653081999975,15,2.246,,,sub-025,20,60,700,bloc_loop.csv,2023-06-14_12h17.40.202,PainUncertainty,2022.2.5,142.9790835826881,
aigu,forte,stimuli/660Hz,stimuli/forte,bloc_1,prob20hthp_12trials.xlsx,4,48,20,80,0,,,,,0,0,0,0,2,11,35,11,,,,,,,,3.5,822.6653081999975,826.1661822000024,826.1664421500012,0.3049185999989277,826.6104167000012,826.6104167000012,m,0.5078259000001708,831.0890728999948,831.0890728999948,18,3.902,,,sub-025,20,60,700,bloc_loop.csv,2023-06-14_12h17.40.202,PainUncertainty,2022.2.5,142.9790835826881,
aigu,moderee,stimuli/660Hz,stimuli/moderee,bloc_1,prob20hthp_12trials.xlsx,4,48,20,80,0,,,,,0,0,0,0,3,0,36,9,,,,,,,,4.1,831.0890728999948,835.188172299997,835.1881381499974,0.3052829000080237,835.6325584000006,835.6325584000006,n,0.7392414000059944,840.7063024999952,840.7063024999952,10,4.267,,,sub-025,20,60,700,bloc_loop.csv,2023-06-14_12h17.40.202,PainUncertainty,2022.2.5,142.9790835826881,
grave,moderee,stimuli/330Hz,stimuli/moderee,bloc_1,prob20hthp_12trials.xlsx,4,48,20,80,0,,,,,0,0,0,0,3,1,37,5,,,,,,,,3.9,840.7063024999952,844.6059811000014,844.6060338499941,0.30576779998955317,845.0535798999917,845.0535798999917,n,0.595943599997554,849.2221980000031,849.2221980000031,7,3.516,,,sub-025,20,60,700,bloc_loop.csv,2023-06-14_12h17.40.202,PainUncertainty,2022.2.5,142.9790835826881,
aigu,moderee,stimuli/660Hz,stimuli/moderee,bloc_1,prob20hthp_12trials.xlsx,4,48,20,80,0,,,,,0,0,0,0,3,2,38,7,,,,,,,,3.8,849.2221980000031,853.0242600999918,853.0258038500018,0.3031294000102207,853.4680475999921,853.4680475999921,n,0.597263000003295,859.5784444000019,859.5784444000019,6,5.46,,,sub-025,20,60,700,bloc_loop.csv,2023-06-14_12h17.40.202,PainUncertainty,2022.2.5,142.9790835826881,
grave,forte,stimuli/330Hz,stimuli/forte,bloc_1,prob20hthp_12trials.xlsx,4,48,20,80,0,,,,,0,0,0,0,3,3,39,0,,,,,,,,4.8,859.5784444000019,864.3792341999942,864.3792191499946,0.3051430000050459,864.8233283000009,864.8233283000009,m,1.1206674999993993,868.8464104000013,868.8464104000013,17,2.845,,,sub-025,20,60,700,bloc_loop.csv,2023-06-14_12h17.40.202,PainUncertainty,2022.2.5,142.9790835826881,
grave,forte,stimuli/330Hz,stimuli/forte,bloc_1,prob20hthp_12trials.xlsx,4,48,20,80,0,,,,,0,0,0,0,3,4,40,4,,,,,,,,3.2,868.8464104000013,872.0469143999944,872.046753749992,0.30522280000150204,872.4945449999941,872.4945449999941,m,0.5722051999910036,875.508359200001,875.508359200001,14,2.393,,,sub-025,20,60,700,bloc_loop.csv,2023-06-14_12h17.40.202,PainUncertainty,2022.2.5,142.9790835826881,
grave,forte,stimuli/330Hz,stimuli/forte,bloc_1,prob20hthp_12trials.xlsx,4,48,20,80,0,,,,,0,0,0,0,3,5,41,3,,,,,,,,4.3,875.508359200001,879.811641799999,879.811621949992,0.3054837999952724,880.2587957999931,880.2587957999931,m,0.5662118000036571,883.0515116000024,883.0515116000024,17,2.177,,,sub-025,20,60,700,bloc_loop.csv,2023-06-14_12h17.40.202,PainUncertainty,2022.2.5,142.9790835826881,
aigu,forte,stimuli/660Hz,stimuli/forte,bloc_1,prob20hthp_12trials.xlsx,4,48,20,80,0,,,,,0,0,0,0,3,6,42,11,,,,,,,,3.1,883.0515116000024,886.1531090999924,886.154886549992,0.3032011000032071,886.5969341000018,886.5969341000018,m,0.6077197999984492,890.7528390999942,890.7528390999942,15,3.482,,,sub-025,20,60,700,bloc_loop.csv,2023-06-14_12h17.40.202,PainUncertainty,2022.2.5,142.9790835826881,
grave,forte,stimuli/330Hz,stimuli/forte,bloc_1,prob20hthp_12trials.xlsx,4,48,20,80,0,,,,,0,0,0,0,3,7,43,1,,,,,,,,3.3,890.7528390999942,894.0563525000034,894.0564657499912,0.3050714999990305,894.5006173000002,894.5006173000002,m,0.5069954000064172,898.0078444999963,898.0078444999963,18,2.939,,,sub-025,20,60,700,bloc_loop.csv,2023-06-14_12h17.40.202,PainUncertainty,2022.2.5,142.9790835826881,
aigu,moderee,stimuli/660Hz,stimuli/moderee,bloc_1,prob20hthp_12trials.xlsx,4,48,20,80,0,,,,,0,0,0,0,3,8,44,6,,,,,,,,5,898.0078444999963,903.0087790999969,903.0088104500013,0.30537300001014955,903.4602638999932,903.4602638999932,n,1.0713072999933502,908.8734824999992,908.8734824999992,8,4.288,,,sub-025,20,60,700,bloc_loop.csv,2023-06-14_12h17.40.202,PainUncertainty,2022.2.5,142.9790835826881,
aigu,moderee,stimuli/660Hz,stimuli/moderee,bloc_1,prob20hthp_12trials.xlsx,4,48,20,80,0,,,,,0,0,0,0,3,9,45,10,,,,,,,,3.5,908.8734824999992,912.3780232999998,912.3779826499944,0.305107100008172,912.8222552999941,912.8222552999941,n,0.6139440999977523,918.0150933999976,918.0150933999976,7,4.517,,,sub-025,20,60,700,bloc_loop.csv,2023-06-14_12h17.40.202,PainUncertainty,2022.2.5,142.9790835826881,
aigu,moderee,stimuli/660Hz,stimuli/moderee,bloc_1,prob20hthp_12trials.xlsx,4,48,20,80,0,,,,,0,0,0,0,3,10,46,8,,,,,,,,3,918.0150933999976,921.0180376999924,921.0179895500027,0.29908919999434147,921.4561153999966,921.4561153999966,n,0.6278146999975434,925.172310599999,925.172310599999,5,3.031,,,sub-025,20,60,700,bloc_loop.csv,2023-06-14_12h17.40.202,PainUncertainty,2022.2.5,142.9790835826881,
grave,forte,stimuli/330Hz,stimuli/forte,bloc_1,prob20hthp_12trials.xlsx,4,48,20,80,0,,,,,0,0,0,0,3,11,47,2,,,,,,,,3,925.172310599999,928.1716313999932,928.1716028499926,0.30537750000075903,928.6179027999897,928.6179027999897,m,0.6781921000074362,931.5000750999898,931.5000750999898,16,2.141,,,sub-025,20,60,700,bloc_loop.csv,2023-06-14_12h17.40.202,PainUncertainty,2022.2.5,142.9790835826881,
grave,moderee,stimuli/330Hz,stimuli/moderee,bloc_2,prob50_50_4trials.xlsx,2,8,50,50,1,,,,,0,1,1,1,0,0,0,0,,,,,,,,3.2,931.5000750999898,934.7001388999925,934.7002020499916,0.30544799999915995,935.1471951999993,935.1471951999993,n,0.7792029999982333,941.1358280999993,941.1358280999993,6,5.156,,,sub-025,20,60,700,bloc_loop.csv,2023-06-14_12h17.40.202,PainUncertainty,2022.2.5,142.9790835826881,
aigu,forte,stimuli/660Hz,stimuli/forte,bloc_2,prob50_50_4trials.xlsx,2,8,50,50,1,,,,,0,1,1,1,0,1,1,3,,,,,,,,5,941.1358280999993,946.1390170999948,946.139046249997,0.3050406000111252,946.5833772999904,946.5833772999904,m,0.6363713000027929,950.7075253999938,950.7075253999938,16,3.428,,,sub-025,20,60,700,bloc_loop.csv,2023-06-14_12h17.40.202,PainUncertainty,2022.2.5,142.9790835826881,
grave,forte,stimuli/330Hz,stimuli/forte,bloc_2,prob50_50_4trials.xlsx,2,8,50,50,1,,,,,0,1,1,1,0,2,2,1,,,,,,,,4.8,950.7075253999938,955.5084109000018,955.5083552499985,0.30507119999674615,955.9528666999977,955.9528666999977,m,0.6835167999961413,958.6182611999975,958.6182611999975,17,1.92,,,sub-025,20,60,700,bloc_loop.csv,2023-06-14_12h17.40.202,PainUncertainty,2022.2.5,142.9790835826881,
aigu,moderee,stimuli/660Hz,stimuli/moderee,bloc_2,prob50_50_4trials.xlsx,2,8,50,50,1,,,,,0,1,1,1,0,3,3,2,,,,,,,,4.6,958.6182611999975,963.2178129999957,963.2177721500033,0.3054832999914652,963.6644109999907,963.6644109999907,n,0.5688700000027893,968.860405799991,968.860405799991,5,4.558,,,sub-025,20,60,700,bloc_loop.csv,2023-06-14_12h17.40.202,PainUncertainty,2022.2.5,142.9790835826881,
grave,forte,stimuli/330Hz,stimuli/forte,bloc_2,prob50_50_4trials.xlsx,2,8,50,50,1,,,,,0,1,1,1,1,0,4,1,,,,,,,,3.5,968.860405799991,972.3645754000026,972.3645912499909,0.30485739999858197,972.8086817000003,972.8086817000003,m,0.6747723000007682,976.8358415999974,976.8358415999974,14,3.28,,,sub-025,20,60,700,bloc_loop.csv,2023-06-14_12h17.40.202,PainUncertainty,2022.2.5,142.9790835826881,
grave,moderee,stimuli/330Hz,stimuli/moderee,bloc_2,prob50_50_4trials.xlsx,2,8,50,50,1,,,,,0,1,1,1,1,1,5,0,,,,,,,,4.2,976.8358415999974,981.0392406000028,981.0391536499941,0.30502219998743385,981.4835557999904,981.4835557999904,n,0.6040461000084179,988.0824698999932,988.0824698999932,6,5.935,,,sub-025,20,60,700,bloc_loop.csv,2023-06-14_12h17.40.202,PainUncertainty,2022.2.5,142.9790835826881,
aigu,forte,stimuli/660Hz,stimuli/forte,bloc_2,prob50_50_4trials.xlsx,2,8,50,50,1,,,,,0,1,1,1,1,2,6,3,,,,,,,,4,988.0824698999932,992.0823305999947,992.0823818499906,0.3050137999962317,992.5262777000025,992.5262777000025,m,0.7670208999916213,997.4794187999942,997.4794187999942,16,4.122,,,sub-025,20,60,700,bloc_loop.csv,2023-06-14_12h17.40.202,PainUncertainty,2022.2.5,142.9790835826881,
aigu,moderee,stimuli/660Hz,stimuli/moderee,bloc_2,prob50_50_4trials.xlsx,2,8,50,50,1,,,,,0,1,1,1,1,3,7,2,,,,,,,,4.1,997.4794187999942,1001.5831670999905,1001.5831427499928,0.3053207999910228,1002.0298134999903,1002.0298134999903,n,0.5841872000019066,1006.7268762000022,1006.7268762000022,7,2.08,,,sub-025,20,60,700,bloc_loop.csv,2023-06-14_12h17.40.202,PainUncertainty,2022.2.5,142.9790835826881,
,,,,bloc_2,prob50_50_4trials.xlsx,2,8,50,50,1,,,,,0,1,1,1,,,,,0,0,0,0,,,,,,,,,,,,,,,,,1006.7268762000022,1086.489259599999,sub-025,20,60,700,bloc_loop.csv,2023-06-14_12h17.40.202,PainUncertainty,2022.2.5,142.9790835826881,
aigu,forte,stimuli/660Hz,stimuli/forte,bloc_3,prob80hthp_12trials.xlsx,2,24,80,20,0,,,,,0,2,2,2,0,0,0,8,,,,,,,,4.7,1087.810986700002,1092.5109190999938,1092.510885950002,0.30536929999652784,1092.9573967000033,1092.9573967000033,m,0.6152969000104349,1095.8941018999903,1095.8941018999903,14,2.267,,,sub-025,20,60,700,bloc_loop.csv,2023-06-14_12h17.40.202,PainUncertainty,2022.2.5,142.9790835826881,
grave,moderee,stimuli/330Hz,stimuli/moderee,bloc_3,prob80hthp_12trials.xlsx,2,24,80,20,0,,,,,0,2,2,2,0,1,1,1,,,,,,,,3.3,1095.8941018999903,1099.199084699998,1099.1990842499931,0.3017801999958465,1099.643931899991,1099.643931899991,n,0.6166854000039166,1101.7914802000014,1101.7914802000014,7,1.465,,,sub-025,20,60,700,bloc_loop.csv,2023-06-14_12h17.40.202,PainUncertainty,2022.2.5,142.9790835826881,
aigu,moderee,stimuli/660Hz,stimuli/moderee,bloc_3,prob80hthp_12trials.xlsx,2,24,80,20,0,,,,,0,2,2,2,0,2,2,11,,,,,,,,4.7,1101.7914802000014,1106.4919227999926,1106.491908149996,0.3048595000000205,1106.9357925999939,1106.9357925999939,n,0.5759124000032898,1109.780641099991,1109.780641099991,8,2.218,,,sub-025,20,60,700,bloc_loop.csv,2023-06-14_12h17.40.202,PainUncertainty,2022.2.5,142.9790835826881,
aigu,forte,stimuli/660Hz,stimuli/forte,bloc_3,prob80hthp_12trials.xlsx,2,24,80,20,0,,,,,0,2,2,2,0,3,3,9,,,,,,,,4.2,1109.780641099991,1113.9789272999915,1113.9803377499907,0.3034884999942733,1114.4230728999974,1114.4230728999974,m,1.0566303999949014,1119.7197018000006,1119.7197018000006,15,4.171,,,sub-025,20,60,700,bloc_loop.csv,2023-06-14_12h17.40.202,PainUncertainty,2022.2.5,142.9790835826881,
grave,moderee,stimuli/330Hz,stimuli/moderee,bloc_3,prob80hthp_12trials.xlsx,2,24,80,20,0,,,,,0,2,2,2,0,4,4,0,,,,,,,,4.2,1119.7197018000006,1123.9243013999949,1123.924244649998,0.3052335999964271,1124.36853159999,1124.36853159999,n,0.5528839000035077,1127.9820053000003,1127.9820053000003,8,3.003,,,sub-025,20,60,700,bloc_loop.csv,2023-06-14_12h17.40.202,PainUncertainty,2022.2.5,142.9790835826881,
aigu,forte,stimuli/660Hz,stimuli/forte,bloc_3,prob80hthp_12trials.xlsx,2,24,80,20,0,,,,,0,2,2,2,0,5,5,10,,,,,,,,4.2,1127.9820053000003,1132.1824921999942,1132.1824424499923,0.3051676999893971,1132.626376699991,1132.626376699991,m,0.5964229000092018,1138.5749057999928,1138.5749057999928,13,5.295,,,sub-025,20,60,700,bloc_loop.csv,2023-06-14_12h17.40.202,PainUncertainty,2022.2.5,142.9790835826881,
aigu,forte,stimuli/660Hz,stimuli/forte,bloc_3,prob80hthp_12trials.xlsx,2,24,80,20,0,,,,,0,2,2,2,0,6,6,6,,,,,,,,3.9,1138.5749057999928,1142.4753438999905,1142.4753619499957,0.30559800000628456,1142.9222098000027,1142.9222098000027,m,0.7111297999945236,1146.3249990999902,1146.3249990999902,17,2.635,,,sub-025,20,60,700,bloc_loop.csv,2023-06-14_12h17.40.202,PainUncertainty,2022.2.5,142.9790835826881,
grave,moderee,stimuli/330Hz,stimuli/moderee,bloc_3,prob80hthp_12trials.xlsx,2,24,80,20,0,,,,,0,2,2,2,0,7,7,4,,,,,,,,3.9,1146.3249990999902,1150.2259745999909,1150.2259124499965,0.3058011999964947,1150.6728898000001,1150.6728898000001,n,0.4914996000006795,1154.4278667000035,1154.4278667000035,7,3.202,,,sub-025,20,60,700,bloc_loop.csv,2023-06-14_12h17.40.202,PainUncertainty,2022.2.5,142.9790835826881,
grave,moderee,stimuli/330Hz,stimuli/moderee,bloc_3,prob80hthp_12trials.xlsx,2,24,80,20,0,,,,,0,2,2,2,0,8,8,3,,,,,,,,4.5,1154.4278667000035,1158.9284650999907,1158.928452449995,0.3050610000063898,1159.3725989999948,1159.3725989999948,n,0.5263326000131201,1161.2671001999988,1161.2671001999988,7,1.302,,,sub-025,20,60,700,bloc_loop.csv,2023-06-14_12h17.40.202,PainUncertainty,2022.2.5,142.9790835826881,
aigu,forte,stimuli/660Hz,stimuli/forte,bloc_3,prob80hthp_12trials.xlsx,2,24,80,20,0,,,,,0,2,2,2,0,9,9,7,,,,,,,,3.8,1161.2671001999988,1165.0679460999963,1165.0679857499913,0.3053636999975424,1165.516165299996,1165.516165299996,m,1.414381400012644,1169.5432033999969,1169.5432033999969,16,2.558,,,sub-025,20,60,700,bloc_loop.csv,2023-06-14_12h17.40.202,PainUncertainty,2022.2.5,142.9790835826881,
grave,forte,stimuli/330Hz,stimuli/forte,bloc_3,prob80hthp_12trials.xlsx,2,24,80,20,0,,,,,0,2,2,2,0,10,10,5,,,,,,,,4.8,1169.5432033999969,1174.3472490999993,1174.3471844500004,0.304950399993686,1174.7911910999974,1174.7911910999974,m,0.5987241999973776,1178.492818899991,1178.492818899991,14,3.038,,,sub-025,20,60,700,bloc_loop.csv,2023-06-14_12h17.40.202,PainUncertainty,2022.2.5,142.9790835826881,
grave,moderee,stimuli/330Hz,stimuli/moderee,bloc_3,prob80hthp_12trials.xlsx,2,24,80,20,0,,,,,0,2,2,2,0,11,11,2,,,,,,,,3.9,1178.492818899991,1182.396523599993,1182.3964591499957,0.3056159999978263,1182.8433527000016,1182.8433527000016,n,0.6239628000039374,1186.947131199995,1186.947131199995,9,3.42,,,sub-025,20,60,700,bloc_loop.csv,2023-06-14_12h17.40.202,PainUncertainty,2022.2.5,142.9790835826881,
aigu,forte,stimuli/660Hz,stimuli/forte,bloc_3,prob80hthp_12trials.xlsx,2,24,80,20,0,,,,,0,2,2,2,1,0,12,6,,,,,,,,4.9,1186.947131199995,1191.8491261000017,1191.8491373499987,0.30489569999917876,1192.293604099992,1192.293604099992,m,0.8099131000053603,1194.9368806999992,1194.9368806999992,14,1.768,,,sub-025,20,60,700,bloc_loop.csv,2023-06-14_12h17.40.202,PainUncertainty,2022.2.5,142.9790835826881,
aigu,forte,stimuli/660Hz,stimuli/forte,bloc_3,prob80hthp_12trials.xlsx,2,24,80,20,0,,,,,0,2,2,2,1,1,13,9,,,,,,,,3.9,1194.9368806999992,1198.8428570999968,1198.842807349995,0.3059147999883862,1199.290095000004,1199.290095000004,m,0.51866549999977,1203.835880899991,1203.835880899991,17,3.97,,,sub-025,20,60,700,bloc_loop.csv,2023-06-14_12h17.40.202,PainUncertainty,2022.2.5,142.9790835826881,
grave,moderee,stimuli/330Hz,stimuli/moderee,bloc_3,prob80hthp_12trials.xlsx,2,24,80,20,0,,,,,0,2,2,2,1,2,14,4,,,,,,,,4.9,1203.835880899991,1208.7422417999915,1208.7404546500024,0.2998950000037439,1209.1847313999897,1209.1847313999897,n,0.5131443999998737,1211.2655369999993,1211.2655369999993,7,1.517,,,sub-025,20,60,700,bloc_loop.csv,2023-06-14_12h17.40.202,PainUncertainty,2022.2.5,142.9790835826881,
aigu,forte,stimuli/660Hz,stimuli/forte,bloc_3,prob80hthp_12trials.xlsx,2,24,80,20,0,,,,,0,2,2,2,1,3,15,8,,,,,,,,5,1211.2655369999993,1216.268926299992,1216.2689919499958,0.3000417000002926,1216.7134882999962,1216.7134882999962,m,0.7449722000019392,1220.1665543999989,1220.1665543999989,13,2.641,,,sub-025,20,60,700,bloc_loop.csv,2023-06-14_12h17.40.202,PainUncertainty,2022.2.5,142.9790835826881,
grave,moderee,stimuli/330Hz,stimuli/moderee,bloc_3,prob80hthp_12trials.xlsx,2,24,80,20,0,,,,,0,2,2,2,1,4,16,1,,,,,,,,3.8,1220.1665543999989,1223.9709695999918,1223.9709655500033,0.3048914999963017,1224.4188270000013,1224.4188270000013,n,0.4519680000084918,1226.7176573000033,1226.7176573000033,6,1.794,,,sub-025,20,60,700,bloc_loop.csv,2023-06-14_12h17.40.202,PainUncertainty,2022.2.5,142.9790835826881,
aigu,forte,stimuli/660Hz,stimuli/forte,bloc_3,prob80hthp_12trials.xlsx,2,24,80,20,0,,,,,0,2,2,2,1,5,17,10,,,,,,,,3.7,1226.7176573000033,1230.4230427000002,1230.423095449993,0.30536579999898095,1230.8699957999925,1230.8699957999925,m,0.43725519999861717,1233.143095899999,1233.143095899999,13,1.766,,,sub-025,20,60,700,bloc_loop.csv,2023-06-14_12h17.40.202,PainUncertainty,2022.2.5,142.9790835826881,
grave,moderee,stimuli/330Hz,stimuli/moderee,bloc_3,prob80hthp_12trials.xlsx,2,24,80,20,0,,,,,0,2,2,2,1,6,18,2,,,,,,,,4.5,1233.143095899999,1237.6464980000019,1237.6465758499967,0.30509059999894816,1238.090512099996,1238.090512099996,n,0.5622442000021692,1242.2660453999997,1242.2660453999997,8,3.558,,,sub-025,20,60,700,bloc_loop.csv,2023-06-14_12h17.40.202,PainUncertainty,2022.2.5,142.9790835826881,
grave,moderee,stimuli/330Hz,stimuli/moderee,bloc_3,prob80hthp_12trials.xlsx,2,24,80,20,0,,,,,0,2,2,2,1,7,19,3,,,,,,,,3.1,1242.2660453999997,1245.3704941999895,1245.3696369499944,0.3009840000013355,1245.8139453999902,1245.8139453999902,n,0.5959006000048248,1250.8644915999903,1250.8644915999903,6,4.393,,,sub-025,20,60,700,bloc_loop.csv,2023-06-14_12h17.40.202,PainUncertainty,2022.2.5,142.9790835826881,
aigu,moderee,stimuli/660Hz,stimuli/moderee,bloc_3,prob80hthp_12trials.xlsx,2,24,80,20,0,,,,,0,2,2,2,1,8,20,11,,,,,,,,4.6,1250.8644915999903,1255.4677826999978,1255.4677011500012,0.3051865000015823,1255.9119176999957,1255.9119176999957,n,0.6903053000132786,1260.8669784999947,1260.8669784999947,7,4.205,,,sub-025,20,60,700,bloc_loop.csv,2023-06-14_12h17.40.202,PainUncertainty,2022.2.5,142.9790835826881,
grave,forte,stimuli/330Hz,stimuli/forte,bloc_3,prob80hthp_12trials.xlsx,2,24,80,20,0,,,,,0,2,2,2,1,9,21,5,,,,,,,,4.6,1260.8669784999947,1265.46901049999,1265.468890149989,0.30523149999498855,1265.9130933999986,1265.9130933999986,m,0.681237200013129,1269.5772880000004,1269.5772880000004,15,2.919,,,sub-025,20,60,700,bloc_loop.csv,2023-06-14_12h17.40.202,PainUncertainty,2022.2.5,142.9790835826881,
grave,moderee,stimuli/330Hz,stimuli/moderee,bloc_3,prob80hthp_12trials.xlsx,2,24,80,20,0,,,,,0,2,2,2,1,10,22,0,,,,,,,,3.4,1269.5772880000004,1272.9771876000013,1272.977155849991,0.3012431999959517,1273.4214465999976,1273.4214465999976,n,0.6051712000044063,1277.996513399994,1277.996513399994,6,3.914,,,sub-025,20,60,700,bloc_loop.csv,2023-06-14_12h17.40.202,PainUncertainty,2022.2.5,142.9790835826881,
aigu,forte,stimuli/660Hz,stimuli/forte,bloc_3,prob80hthp_12trials.xlsx,2,24,80,20,0,,,,,0,2,2,2,1,11,23,7,,,,,,,,3.4,1277.996513399994,1281.4018263000034,1281.4018828499961,0.3046957000042312,1281.8455457999953,1281.8455457999953,m,0.6338155999983428,1285.7937069000036,1285.7937069000036,12,3.255,,,sub-025,20,60,700,bloc_loop.csv,2023-06-14_12h17.40.202,PainUncertainty,2022.2.5,142.9790835826881,
grave,moderee,stimuli/330Hz,stimuli/moderee,bloc_4,prob50_50_4trials.xlsx,2,8,50,50,1,,,,,0,3,3,3,0,0,0,0,,,,,,,,4.6,1285.7937069000036,1290.3955105999921,1290.3954852500015,0.30515919999743346,1290.8396587000025,1290.8396587000025,n,0.6578501000039978,1297.5071193999902,1297.5071193999902,6,5.955,,,sub-025,20,60,700,bloc_loop.csv,2023-06-14_12h17.40.202,PainUncertainty,2022.2.5,142.9790835826881,
aigu,forte,stimuli/660Hz,stimuli/forte,bloc_4,prob50_50_4trials.xlsx,2,8,50,50,1,,,,,0,3,3,3,0,1,1,3,,,,,,,,4,1297.5071193999902,1301.5084017999907,1301.5083278499937,0.30523420000099577,1301.955001800001,1301.955001800001,m,0.5774277000018628,1304.9696143000037,1304.9696143000037,13,2.325,,,sub-025,20,60,700,bloc_loop.csv,2023-06-14_12h17.40.202,PainUncertainty,2022.2.5,142.9790835826881,
aigu,moderee,stimuli/660Hz,stimuli/moderee,bloc_4,prob50_50_4trials.xlsx,2,8,50,50,1,,,,,0,3,3,3,0,2,2,2,,,,,,,,4,1304.9696143000037,1308.9744271999953,1308.9756564499971,0.30358710000291467,1309.4183963999967,1309.4183963999967,n,0.6190142999985255,1314.5408475000004,1314.5408475000004,6,4.434,,,sub-025,20,60,700,bloc_loop.csv,2023-06-14_12h17.40.202,PainUncertainty,2022.2.5,142.9790835826881,
grave,forte,stimuli/330Hz,stimuli/forte,bloc_4,prob50_50_4trials.xlsx,2,8,50,50,1,,,,,0,3,3,3,0,3,3,1,,,,,,,,4.9,1314.5408475000004,1319.44076279999,1319.440780849995,0.3050807999970857,1319.8850807999988,1319.8850807999988,m,0.6365573999937624,1324.4154760999954,1324.4154760999954,10,3.83,,,sub-025,20,60,700,bloc_loop.csv,2023-06-14_12h17.40.202,PainUncertainty,2022.2.5,142.9790835826881,
aigu,forte,stimuli/660Hz,stimuli/forte,bloc_4,prob50_50_4trials.xlsx,2,8,50,50,1,,,,,0,3,3,3,1,0,4,3,,,,,,,,3.1,1324.4154760999954,1327.5180586999923,1327.5181013499955,0.30517030000919476,1327.962277300001,1327.962277300001,n,0.8051205000083428,1334.4824822999944,1334.4824822999944,11,5.657,,,sub-025,20,60,700,bloc_loop.csv,2023-06-14_12h17.40.202,PainUncertainty,2022.2.5,142.9790835826881,
grave,forte,stimuli/330Hz,stimuli/forte,bloc_4,prob50_50_4trials.xlsx,2,8,50,50,1,,,,,0,3,3,3,1,1,5,1,,,,,,,,3.4,1334.4824822999944,1337.8874246999912,1337.8875845499992,0.3045730000012554,1338.3318424000026,1338.3318424000026,m,0.48185200001171324,1341.9127308000025,1341.9127308000025,13,3.046,,,sub-025,20,60,700,bloc_loop.csv,2023-06-14_12h17.40.202,PainUncertainty,2022.2.5,142.9790835826881,
aigu,moderee,stimuli/660Hz,stimuli/moderee,bloc_4,prob50_50_4trials.xlsx,2,8,50,50,1,,,,,0,3,3,3,1,2,6,2,,,,,,,,3.1,1341.9127308000025,1345.0134584999905,1345.0134254499994,0.3046879000030458,1345.4572849999968,1345.4572849999968,n,0.5291133999999147,1349.0554310000007,1349.0554310000007,6,3.01,,,sub-025,20,60,700,bloc_loop.csv,2023-06-14_12h17.40.202,PainUncertainty,2022.2.5,142.9790835826881,
grave,moderee,stimuli/330Hz,stimuli/moderee,bloc_4,prob50_50_4trials.xlsx,2,8,50,50,1,,,,,0,3,3,3,1,3,7,0,,,,,,,,3.8,1349.0554310000007,1352.8543208999909,1352.8544420499952,0.3050496999931056,1353.2984743999987,1353.2984743999987,n,0.5124141999986023,1359.1832911999954,1359.1832911999954,7,3.344,,,sub-025,20,60,700,bloc_loop.csv,2023-06-14_12h17.40.202,PainUncertainty,2022.2.5,142.9790835826881,
,,,,bloc_4,prob50_50_4trials.xlsx,2,8,50,50,1,,,,,0,3,3,3,,,,,0,0,0,0,,,,,,,,,,,,,,,,,1359.1832911999954,1524.444746699999,sub-025,20,60,700,bloc_loop.csv,2023-06-14_12h17.40.202,PainUncertainty,2022.2.5,142.9790835826881,
grave,forte,stimuli/330Hz,stimuli/forte,bloc_5,prob20hthp_12trials.xlsx,2,24,20,80,0,,,,,0,4,4,4,0,0,0,4,,,,,,,,3.8,1525.1836285000027,1528.986528399997,1528.9864998499966,0.30515379999997094,1529.4306182,1529.4306182,m,0.6931501000071876,1532.9477339000005,1532.9477339000005,12,2.767,,,sub-025,20,60,700,bloc_loop.csv,2023-06-14_12h17.40.202,PainUncertainty,2022.2.5,142.9790835826881,
aigu,moderee,stimuli/660Hz,stimuli/moderee,bloc_5,prob20hthp_12trials.xlsx,2,24,20,80,0,,,,,0,4,4,4,0,1,1,7,,,,,,,,4.3,1532.9477339000005,1537.2535739000014,1537.2516854499977,0.30518759999540634,1537.698015499991,1537.698015499991,n,0.5024367000005441,1541.7532372999995,1541.7532372999995,6,3.489,,,sub-025,20,60,700,bloc_loop.csv,2023-06-14_12h17.40.202,PainUncertainty,2022.2.5,142.9790835826881,
aigu,moderee,stimuli/660Hz,stimuli/moderee,bloc_5,prob20hthp_12trials.xlsx,2,24,20,80,0,,,,,0,4,4,4,0,2,2,8,,,,,,,,3.4,1541.7532372999995,1545.154992099997,1545.1583076499942,0.3023329999996349,1545.60154779999,1545.60154779999,n,0.5423016000131611,1550.1909543999936,1550.1909543999936,7,3.983,,,sub-025,20,60,700,bloc_loop.csv,2023-06-14_12h17.40.202,PainUncertainty,2022.2.5,142.9790835826881,
aigu,forte,stimuli/660Hz,stimuli/forte,bloc_5,prob20hthp_12trials.xlsx,2,24,20,80,0,,,,,0,4,4,4,0,3,3,11,,,,,,,,4.2,1550.1909543999936,1554.3926205000025,1554.392778449996,0.3053390999994008,1554.839519599991,1554.839519599991,m,0.6104887000110466,1558.9782042000006,1558.9782042000006,14,3.476,,,sub-025,20,60,700,bloc_loop.csv,2023-06-14_12h17.40.202,PainUncertainty,2022.2.5,142.9790835826881,
aigu,moderee,stimuli/660Hz,stimuli/moderee,bloc_5,prob20hthp_12trials.xlsx,2,24,20,80,0,,,,,0,4,4,4,0,4,4,6,,,,,,,,5,1558.9782042000006,1563.983696700001,1563.9834320499926,0.3054913999949349,1564.4279907000018,1564.4279907000018,n,0.507369099999778,1568.6001209999959,1568.6001209999959,7,2.544,,,sub-025,20,60,700,bloc_loop.csv,2023-06-14_12h17.40.202,PainUncertainty,2022.2.5,142.9790835826881,
aigu,moderee,stimuli/660Hz,stimuli/moderee,bloc_5,prob20hthp_12trials.xlsx,2,24,20,80,0,,,,,0,4,4,4,0,5,5,9,,,,,,,,4.6,1568.6001209999959,1573.2026172999904,1573.2005364499914,0.30031160000362433,1573.6448803999956,1573.6448803999956,n,0.5177232999994885,1576.4612878999906,1576.4612878999906,6,2.24,,,sub-025,20,60,700,bloc_loop.csv,2023-06-14_12h17.40.202,PainUncertainty,2022.2.5,142.9790835826881,
aigu,moderee,stimuli/660Hz,stimuli/moderee,bloc_5,prob20hthp_12trials.xlsx,2,24,20,80,0,,,,,0,4,4,4,0,6,6,10,,,,,,,,3.6,1576.4612878999906,1580.062142499999,1580.0619466499907,0.3051063999882899,1580.5061821999989,1580.5061821999989,n,0.49547680000250693,1584.4012978999963,1584.4012978999963,8,3.344,,,sub-025,20,60,700,bloc_loop.csv,2023-06-14_12h17.40.202,PainUncertainty,2022.2.5,142.9790835826881,
grave,forte,stimuli/330Hz,stimuli/forte,bloc_5,prob20hthp_12trials.xlsx,2,24,20,80,0,,,,,0,4,4,4,0,7,7,0,,,,,,,,3,1584.4012978999963,1587.4035569999978,1587.4034692499977,0.3048792999907164,1587.8475028999965,1587.8475028999965,m,0.8489701000071364,1592.6312614999915,1592.6312614999915,18,3.865,,,sub-025,20,60,700,bloc_loop.csv,2023-06-14_12h17.40.202,PainUncertainty,2022.2.5,142.9790835826881,
grave,moderee,stimuli/330Hz,stimuli/moderee,bloc_5,prob20hthp_12trials.xlsx,2,24,20,80,0,,,,,0,4,4,4,0,8,8,5,,,,,,,,4.6,1592.6312614999915,1597.2310624999955,1597.2310247499977,0.3048822000127984,1597.675083299997,1597.675083299997,n,0.5100379000068642,1602.795529199997,1602.795529199997,6,4.545,,,sub-025,20,60,700,bloc_loop.csv,2023-06-14_12h17.40.202,PainUncertainty,2022.2.5,142.9790835826881,
grave,forte,stimuli/330Hz,stimuli/forte,bloc_5,prob20hthp_12trials.xlsx,2,24,20,80,0,,,,,0,4,4,4,0,9,9,3,,,,,,,,3.1,1602.795529199997,1605.8984592999914,1605.8984912500005,0.30255449999822304,1606.3436343999929,1606.3436343999929,m,0.6043305999919539,1610.2880833999952,1610.2880833999952,14,3.281,,,sub-025,20,60,700,bloc_loop.csv,2023-06-14_12h17.40.202,PainUncertainty,2022.2.5,142.9790835826881,
grave,forte,stimuli/330Hz,stimuli/forte,bloc_5,prob20hthp_12trials.xlsx,2,24,20,80,0,,,,,0,4,4,4,0,10,10,1,,,,,,,,3.2,1610.2880833999952,1613.4896684999985,1613.4895781499931,0.30505080000148155,1613.9338386000018,1613.9338386000018,m,0.8050031000020681,1618.6634777,1618.6634777,13,3.871,,,sub-025,20,60,700,bloc_loop.csv,2023-06-14_12h17.40.202,PainUncertainty,2022.2.5,142.9790835826881,
grave,forte,stimuli/330Hz,stimuli/forte,bloc_5,prob20hthp_12trials.xlsx,2,24,20,80,0,,,,,0,4,4,4,0,11,11,2,,,,,,,,4.1,1618.6634777,1622.7684955000004,1622.768453850002,0.3050634999963222,1623.2126741999964,1623.2126741999964,m,0.6526089999970281,1627.7072727999912,1627.7072727999912,16,3.788,,,sub-025,20,60,700,bloc_loop.csv,2023-06-14_12h17.40.202,PainUncertainty,2022.2.5,142.9790835826881,
aigu,moderee,stimuli/660Hz,stimuli/moderee,bloc_5,prob20hthp_12trials.xlsx,2,24,20,80,0,,,,,0,4,4,4,1,0,12,8,,,,,,,,3.7,1627.7072727999912,1631.408738099999,1631.4095736500008,0.30415219999849796,1631.8524938999908,1631.8524938999908,n,0.4756251000071643,1634.0675364999915,1634.0675364999915,7,1.676,,,sub-025,20,60,700,bloc_loop.csv,2023-06-14_12h17.40.202,PainUncertainty,2022.2.5,142.9790835826881,
grave,moderee,stimuli/330Hz,stimuli/moderee,bloc_5,prob20hthp_12trials.xlsx,2,24,20,80,0,,,,,0,4,4,4,1,1,13,5,,,,,,,,3.5,1634.0675364999915,1637.5693212999904,1637.5694119499954,0.2991727000044193,1638.0074849999946,1638.0074849999946,n,0.6760918999934802,1643.8144221999974,1643.8144221999974,6,5.074,,,sub-025,20,60,700,bloc_loop.csv,2023-06-14_12h17.40.202,PainUncertainty,2022.2.5,142.9790835826881,
grave,forte,stimuli/330Hz,stimuli/forte,bloc_5,prob20hthp_12trials.xlsx,2,24,20,80,0,,,,,0,4,4,4,1,2,14,1,,,,,,,,4.4,1643.8144221999974,1648.2160249000008,1648.2159360499923,0.30521500000031665,1648.660180299994,1648.660180299994,m,1.4602282999985619,1655.7508534999943,1655.7508534999943,15,5.567,,,sub-025,20,60,700,bloc_loop.csv,2023-06-14_12h17.40.202,PainUncertainty,2022.2.5,142.9790835826881,
aigu,moderee,stimuli/660Hz,stimuli/moderee,bloc_5,prob20hthp_12trials.xlsx,2,24,20,80,0,,,,,0,4,4,4,1,3,15,6,,,,,,,,4.3,1655.7508534999943,1660.0529284999939,1660.051149749996,0.3046168000000762,1660.49487889999,1660.49487889999,n,0.6935228999936953,1665.4808065999969,1665.4808065999969,8,4.232,,,sub-025,20,60,700,bloc_loop.csv,2023-06-14_12h17.40.202,PainUncertainty,2022.2.5,142.9790835826881,
aigu,moderee,stimuli/660Hz,stimuli/moderee,bloc_5,prob20hthp_12trials.xlsx,2,24,20,80,0,,,,,0,4,4,4,1,4,16,7,,,,,,,,4.2,1665.4808065999969,1669.6837959999975,1669.6837329499963,0.3052795999974478,1670.1280700999923,1670.1280700999923,n,0.5992862999992212,1675.0059583999973,1675.0059583999973,5,4.219,,,sub-025,20,60,700,bloc_loop.csv,2023-06-14_12h17.40.202,PainUncertainty,2022.2.5,142.9790835826881,
grave,forte,stimuli/330Hz,stimuli/forte,bloc_5,prob20hthp_12trials.xlsx,2,24,20,80,0,,,,,0,4,4,4,1,5,17,0,,,,,,,,4.5,1675.0059583999973,1679.511596700002,1679.5116848500024,0.3047540000115987,1679.955779099997,1679.955779099997,m,0.7081315000104951,1684.4491804999998,1684.4491804999998,12,3.724,,,sub-025,20,60,700,bloc_loop.csv,2023-06-14_12h17.40.202,PainUncertainty,2022.2.5,142.9790835826881,
aigu,forte,stimuli/660Hz,stimuli/forte,bloc_5,prob20hthp_12trials.xlsx,2,24,20,80,0,,,,,0,4,4,4,1,6,18,11,,,,,,,,3.7,1684.4491804999998,1688.1514346999902,1688.1513600500025,0.30528299999423325,1688.5957556999929,1688.5957556999929,m,0.6673248000006424,1693.8608834999905,1693.8608834999905,14,4.538,,,sub-025,20,60,700,bloc_loop.csv,2023-06-14_12h17.40.202,PainUncertainty,2022.2.5,142.9790835826881,
aigu,moderee,stimuli/660Hz,stimuli/moderee,bloc_5,prob20hthp_12trials.xlsx,2,24,20,80,0,,,,,0,4,4,4,1,7,19,10,,,,,,,,3.6,1693.8608834999905,1697.4653499999986,1697.4654282499964,0.30462520000583027,1697.9090442000015,1697.9090442000015,n,0.6195299000100931,1700.7332147999987,1700.7332147999987,7,2.134,,,sub-025,20,60,700,bloc_loop.csv,2023-06-14_12h17.40.202,PainUncertainty,2022.2.5,142.9790835826881,
grave,forte,stimuli/330Hz,stimuli/forte,bloc_5,prob20hthp_12trials.xlsx,2,24,20,80,0,,,,,0,4,4,4,1,8,20,4,,,,,,,,3.2,1700.7332147999987,1703.9380019999953,1703.9379281499992,0.3051012000069022,1704.3820776999928,1704.3820776999928,m,0.859963399998378,1710.4003127000033,1710.4003127000033,15,5.109,,,sub-025,20,60,700,bloc_loop.csv,2023-06-14_12h17.40.202,PainUncertainty,2022.2.5,142.9790835826881,
grave,forte,stimuli/330Hz,stimuli/forte,bloc_5,prob20hthp_12trials.xlsx,2,24,20,80,0,,,,,0,4,4,4,1,9,21,3,,,,,,,,4,1710.4003127000033,1714.4044156000018,1714.40455374999,0.30508089999784715,1714.848604400002,1714.848604400002,m,0.6430073000083212,1719.0444461000006,1719.0444461000006,13,3.497,,,sub-025,20,60,700,bloc_loop.csv,2023-06-14_12h17.40.202,PainUncertainty,2022.2.5,142.9790835826881,
aigu,moderee,stimuli/660Hz,stimuli/moderee,bloc_5,prob20hthp_12trials.xlsx,2,24,20,80,0,,,,,0,4,4,4,1,10,22,9,,,,,,,,3.2,1719.0444461000006,1722.2456530999916,1722.2456507500015,0.30496019999554846,1722.6897997999913,1722.6897997999913,n,0.4826943000080064,1727.5460375999974,1727.5460375999974,7,4.32,,,sub-025,20,60,700,bloc_loop.csv,2023-06-14_12h17.40.202,PainUncertainty,2022.2.5,142.9790835826881,
grave,forte,stimuli/330Hz,stimuli/forte,bloc_5,prob20hthp_12trials.xlsx,2,24,20,80,0,,,,,0,4,4,4,1,11,23,2,,,,,,,,4.5,1727.5460375999974,1732.0454577999917,1732.0453988499926,0.3053216000116663,1732.4897481999942,1732.4897481999942,m,0.58812559999933,1736.7845680000028,1736.7845680000028,18,3.643,,,sub-025,20,60,700,bloc_loop.csv,2023-06-14_12h17.40.202,PainUncertainty,2022.2.5,142.9790835826881,
aigu,moderee,stimuli/660Hz,stimuli/moderee,bloc_6,prob50_50_4trials.xlsx,2,8,50,50,0,,,,,0,5,5,5,0,0,0,2,,,,,,,,3.2,1736.7845680000028,1739.984233199997,1739.9843900499968,0.30520819999219384,1740.4307243999938,1740.4307243999938,n,0.4459254000103101,1745.0439577999932,1745.0439577999932,5,4.102,,,sub-025,20,60,700,bloc_loop.csv,2023-06-14_12h17.40.202,PainUncertainty,2022.2.5,142.9790835826881,
grave,forte,stimuli/330Hz,stimuli/forte,bloc_6,prob50_50_4trials.xlsx,2,8,50,50,0,,,,,0,5,5,5,0,1,1,1,,,,,,,,4.9,1745.0439577999932,1749.9440772999951,1749.9437321499995,0.3068146000005072,1750.3951418999932,1750.3951418999932,m,0.6512820000061765,1755.6369623999926,1755.6369623999926,14,4.532,,,sub-025,20,60,700,bloc_loop.csv,2023-06-14_12h17.40.202,PainUncertainty,2022.2.5,142.9790835826881,
grave,moderee,stimuli/330Hz,stimuli/moderee,bloc_6,prob50_50_4trials.xlsx,2,8,50,50,0,,,,,0,5,5,5,0,2,2,0,,,,,,,,4.8,1755.6369623999926,1760.4402472999936,1760.4380777500032,0.3046739000128582,1760.881972999996,1760.881972999996,n,0.47006410000904,1764.7794493999972,1764.7794493999972,7,3.372,,,sub-025,20,60,700,bloc_loop.csv,2023-06-14_12h17.40.202,PainUncertainty,2022.2.5,142.9790835826881,
aigu,forte,stimuli/660Hz,stimuli/forte,bloc_6,prob50_50_4trials.xlsx,2,8,50,50,0,,,,,0,5,5,5,0,3,3,3,,,,,,,,4,1764.7794493999972,1768.7792922999943,1768.7792605499985,0.2996553999983007,1769.2201545999997,1769.2201545999997,m,0.45514140000159387,1774.0299988999905,1774.0299988999905,13,4.287,,,sub-025,20,60,700,bloc_loop.csv,2023-06-14_12h17.40.202,PainUncertainty,2022.2.5,142.9790835826881,
aigu,moderee,stimuli/660Hz,stimuli/moderee,bloc_6,prob50_50_4trials.xlsx,2,8,50,50,0,,,,,0,5,5,5,1,0,4,2,,,,,,,,3.8,1774.0299988999905,1777.8357011999906,1777.8355824500018,0.30533610000566114,1778.2798513000016,1778.2798513000016,n,0.5081011000002036,1782.339298699997,1782.339298699997,6,3.482,,,sub-025,20,60,700,bloc_loop.csv,2023-06-14_12h17.40.202,PainUncertainty,2022.2.5,142.9790835826881,
aigu,forte,stimuli/660Hz,stimuli/forte,bloc_6,prob50_50_4trials.xlsx,2,8,50,50,0,,,,,0,5,5,5,1,1,5,3,,,,,,,,3,1782.339298699997,1785.3433282999904,1785.3433804499932,0.3051144000055501,1785.7876054999942,1785.7876054999942,m,0.732687600000645,1792.806233700001,1792.806233700001,14,6.22,,,sub-025,20,60,700,bloc_loop.csv,2023-06-14_12h17.40.202,PainUncertainty,2022.2.5,142.9790835826881,
grave,forte,stimuli/330Hz,stimuli/forte,bloc_6,prob50_50_4trials.xlsx,2,8,50,50,0,,,,,0,5,5,5,1,2,6,1,,,,,,,,5,1792.806233700001,1797.810401499999,1797.8103394499908,0.30541130001074634,1798.256543399999,1798.256543399999,m,0.6414111999911256,1800.9876049000013,1800.9876049000013,13,2.025,,,sub-025,20,60,700,bloc_loop.csv,2023-06-14_12h17.40.202,PainUncertainty,2022.2.5,142.9790835826881,
grave,moderee,stimuli/330Hz,stimuli/moderee,bloc_6,prob50_50_4trials.xlsx,2,8,50,50,0,,,,,0,5,5,5,1,3,7,0,,,,,,,,4.4,1800.9876049000013,1805.387739999991,1805.3876562499922,0.30514950001088437,1805.8338240000012,1805.8338240000012,n,0.7168104000011226,1811.3753094999993,1811.3753094999993,6,4.76,,,sub-025,20,60,700,bloc_loop.csv,2023-06-14_12h17.40.202,PainUncertainty,2022.2.5,142.9790835826881,
grave,moderee,stimuli/330Hz,stimuli/moderee,bloc_7,prob80hthp_12trials.xlsx,2,24,80,20,1,,,,,0,6,6,6,0,0,0,0,,,,,,,,4.2,1811.3753094999993,1815.5763823000016,1815.576343649997,0.3049202999973204,1816.0224107999966,1816.0224107999966,n,0.5048851000028662,1819.3795465000003,1819.3795465000003,7,2.787,,,sub-025,20,60,700,bloc_loop.csv,2023-06-14_12h17.40.202,PainUncertainty,2022.2.5,142.9790835826881,
grave,moderee,stimuli/330Hz,stimuli/moderee,bloc_7,prob80hthp_12trials.xlsx,2,24,80,20,1,,,,,0,6,6,6,0,1,1,3,,,,,,,,3.4,1819.3795465000003,1822.7799721999909,1822.7790870500016,0.30215810000663623,1823.2230459999992,1823.2230459999992,n,0.48424429999431595,1830.1011415999965,1830.1011415999965,5,6.344,,,sub-025,20,60,700,bloc_loop.csv,2023-06-14_12h17.40.202,PainUncertainty,2022.2.5,142.9790835826881,
grave,forte,stimuli/330Hz,stimuli/forte,bloc_7,prob80hthp_12trials.xlsx,2,24,80,20,1,,,,,0,6,6,6,0,2,2,5,,,,,,,,4.9,1830.1011415999965,1835.0022255999938,1835.0023197499963,0.3049802999885287,1835.4462996999937,1835.4462996999937,m,0.5329386999947019,1838.4283986999944,1838.4283986999944,16,2.385,,,sub-025,20,60,700,bloc_loop.csv,2023-06-14_12h17.40.202,PainUncertainty,2022.2.5,142.9790835826881,
aigu,forte,stimuli/660Hz,stimuli/forte,bloc_7,prob80hthp_12trials.xlsx,2,24,80,20,1,,,,,0,6,6,6,0,3,3,10,,,,,,,,3.6,1838.4283986999944,1842.0329397000023,1842.0311089500015,0.3049639000091702,1842.475088399995,1842.475088399995,m,0.5824321999971289,1846.4320582999935,1846.4320582999935,13,3.309,,,sub-025,20,60,700,bloc_loop.csv,2023-06-14_12h17.40.202,PainUncertainty,2022.2.5,142.9790835826881,
grave,moderee,stimuli/330Hz,stimuli/moderee,bloc_7,prob80hthp_12trials.xlsx,2,24,80,20,1,,,,,0,6,6,6,0,4,4,4,,,,,,,,5,1846.4320582999935,1851.4350224999944,1851.4368824499966,0.3031792000110727,1851.8788559999957,1851.8788559999957,n,0.4888566000154242,1855.6520573000016,1855.6520573000016,7,3.226,,,sub-025,20,60,700,bloc_loop.csv,2023-06-14_12h17.40.202,PainUncertainty,2022.2.5,142.9790835826881,
grave,moderee,stimuli/330Hz,stimuli/moderee,bloc_7,prob80hthp_12trials.xlsx,2,24,80,20,1,,,,,0,6,6,6,0,5,5,1,,,,,,,,3,1855.6520573000016,1858.6511173000035,1858.6510882499992,0.3048902000009548,1859.0949999000004,1859.0949999000004,n,0.5798796999879414,1863.78568239999,1863.78568239999,6,4.058,,,sub-025,20,60,700,bloc_loop.csv,2023-06-14_12h17.40.202,PainUncertainty,2022.2.5,142.9790835826881,
grave,moderee,stimuli/330Hz,stimuli/moderee,bloc_7,prob80hthp_12trials.xlsx,2,24,80,20,1,,,,,0,6,6,6,0,6,6,2,,,,,,,,4,1863.78568239999,1867.7912127000018,1867.7921468499976,0.30412459999206476,1868.238780899992,1868.238780899992,n,0.4884837999998126,1872.0963620999974,1872.0963620999974,6,3.31,,,sub-025,20,60,700,bloc_loop.csv,2023-06-14_12h17.40.202,PainUncertainty,2022.2.5,142.9790835826881,
aigu,forte,stimuli/660Hz,stimuli/forte,bloc_7,prob80hthp_12trials.xlsx,2,24,80,20,1,,,,,0,6,6,6,0,7,7,9,,,,,,,,3.4,1872.0963620999974,1875.5001674999949,1875.5000170499975,0.30558400000154506,1875.9474902999937,1875.9474902999937,m,0.5720421000005445,1880.1022568999906,1880.1022568999906,16,3.518,,,sub-025,20,60,700,bloc_loop.csv,2023-06-14_12h17.40.202,PainUncertainty,2022.2.5,142.9790835826881,
aigu,moderee,stimuli/660Hz,stimuli/moderee,bloc_7,prob80hthp_12trials.xlsx,2,24,80,20,1,,,,,0,6,6,6,0,8,8,11,,,,,,,,3.5,1880.1022568999906,1883.6050917999964,1883.6050373500025,0.3014054999948712,1884.04984349999,1884.04984349999,n,0.4785334999905899,1886.5098839999991,1886.5098839999991,6,1.919,,,sub-025,20,60,700,bloc_loop.csv,2023-06-14_12h17.40.202,PainUncertainty,2022.2.5,142.9790835826881,
aigu,forte,stimuli/660Hz,stimuli/forte,bloc_7,prob80hthp_12trials.xlsx,2,24,80,20,1,,,,,0,6,6,6,0,9,9,7,,,,,,,,3.7,1886.5098839999991,1890.2101735000033,1890.2101078499968,0.30553800000052433,1890.6570364999934,1890.6570364999934,m,0.6036904999928083,1893.6205563999974,1893.6205563999974,13,2.297,,,sub-025,20,60,700,bloc_loop.csv,2023-06-14_12h17.40.202,PainUncertainty,2022.2.5,142.9790835826881,
aigu,forte,stimuli/660Hz,stimuli/forte,bloc_7,prob80hthp_12trials.xlsx,2,24,80,20,1,,,,,0,6,6,6,0,10,10,8,,,,,,,,4.7,1893.6205563999974,1898.3222249999963,1898.3222967500028,0.3050494000053732,1898.7664723999915,1898.7664723999915,m,0.5358451000065543,1902.648296200001,1902.648296200001,14,3.287,,,sub-025,20,60,700,bloc_loop.csv,2023-06-14_12h17.40.202,PainUncertainty,2022.2.5,142.9790835826881,
aigu,forte,stimuli/660Hz,stimuli/forte,bloc_7,prob80hthp_12trials.xlsx,2,24,80,20,1,,,,,0,6,6,6,0,11,11,6,,,,,,,,3.3,1902.648296200001,1905.948084699994,1905.9481919499945,0.305193500011228,1906.3922502999922,1906.3922502999922,m,0.8381222000025446,1909.438621399997,1909.438621399997,16,2.149,,,sub-025,20,60,700,bloc_loop.csv,2023-06-14_12h17.40.202,PainUncertainty,2022.2.5,142.9790835826881,
aigu,forte,stimuli/660Hz,stimuli/forte,bloc_7,prob80hthp_12trials.xlsx,2,24,80,20,1,,,,,0,6,6,6,1,0,12,6,,,,,,,,3.1,1909.438621399997,1912.5391463999986,1912.539137949991,0.2990303000115091,1912.9770061000017,1912.9770061000017,m,0.6294247000041651,1915.4164591000008,1915.4164591000008,17,1.74,,,sub-025,20,60,700,bloc_loop.csv,2023-06-14_12h17.40.202,PainUncertainty,2022.2.5,142.9790835826881,
aigu,forte,stimuli/660Hz,stimuli/forte,bloc_7,prob80hthp_12trials.xlsx,2,24,80,20,1,,,,,0,6,6,6,1,1,13,7,,,,,,,,3.3,1915.4164591000008,1918.7203829999926,1918.7203062500034,0.3054942999879131,1919.1649805999914,1919.1649805999914,m,0.6123436999914702,1924.6033949999983,1924.6033949999983,19,4.766,,,sub-025,20,60,700,bloc_loop.csv,2023-06-14_12h17.40.202,PainUncertainty,2022.2.5,142.9790835826881,
aigu,forte,stimuli/660Hz,stimuli/forte,bloc_7,prob80hthp_12trials.xlsx,2,24,80,20,1,,,,,0,6,6,6,1,2,14,10,,,,,,,,4.7,1924.6033949999983,1929.3051160000032,1929.3050574499925,0.30511490000935737,1929.7497335999942,1929.7497335999942,m,0.48312849999638274,1934.4638189999969,1934.4638189999969,18,4.17,,,sub-025,20,60,700,bloc_loop.csv,2023-06-14_12h17.40.202,PainUncertainty,2022.2.5,142.9790835826881,
grave,forte,stimuli/330Hz,stimuli/forte,bloc_7,prob80hthp_12trials.xlsx,2,24,80,20,1,,,,,0,6,6,6,1,3,15,5,,,,,,,,3.9,1934.4638189999969,1938.3686515000009,1938.368769149993,0.3047396999900229,1938.813182999991,1938.813182999991,m,0.5914780000020983,1943.6526840000006,1943.6526840000006,12,4.177,,,sub-025,20,60,700,bloc_loop.csv,2023-06-14_12h17.40.202,PainUncertainty,2022.2.5,142.9790835826881,
grave,moderee,stimuli/330Hz,stimuli/moderee,bloc_7,prob80hthp_12trials.xlsx,2,24,80,20,1,,,,,0,6,6,6,1,4,16,3,,,,,,,,4,1943.6526840000006,1947.6544961999898,1947.6545214499915,0.3055714999936754,1948.1046776000003,1948.1046776000003,n,1.9319784000108484,1958.8629106000008,1958.8629106000008,7,8.768,,,sub-025,20,60,700,bloc_loop.csv,2023-06-14_12h17.40.202,PainUncertainty,2022.2.5,142.9790835826881,
grave,moderee,stimuli/330Hz,stimuli/moderee,bloc_7,prob80hthp_12trials.xlsx,2,24,80,20,1,,,,,0,6,6,6,1,5,17,2,,,,,,,,3.6,1958.8629106000008,1962.4618512000015,1962.4619215499974,0.3049685000005411,1962.9094878000033,1962.9094878000033,n,0.5680540000030305,1967.3641028999991,1967.3641028999991,6,3.83,,,sub-025,20,60,700,bloc_loop.csv,2023-06-14_12h17.40.202,PainUncertainty,2022.2.5,142.9790835826881,
grave,moderee,stimuli/330Hz,stimuli/moderee,bloc_7,prob80hthp_12trials.xlsx,2,24,80,20,1,,,,,0,6,6,6,1,6,18,0,,,,,,,,3.6,1967.3641028999991,1970.9698528000008,1970.9698422499919,0.30516370000259485,1971.4141663999908,1971.4141663999908,n,0.4844666999997571,1975.7858466000034,1975.7858466000034,6,3.823,,,sub-025,20,60,700,bloc_loop.csv,2023-06-14_12h17.40.202,PainUncertainty,2022.2.5,142.9790835826881,
aigu,forte,stimuli/660Hz,stimuli/forte,bloc_7,prob80hthp_12trials.xlsx,2,24,80,20,1,,,,,0,6,6,6,1,7,19,8,,,,,,,,4.1,1975.7858466000034,1979.8876070999977,1979.8876413499952,0.3050922999973409,1980.3318429999927,1980.3318429999927,m,0.6500813000020571,1986.9068206999946,1986.9068206999946,14,5.866,,,sub-025,20,60,700,bloc_loop.csv,2023-06-14_12h17.40.202,PainUncertainty,2022.2.5,142.9790835826881,
grave,moderee,stimuli/330Hz,stimuli/moderee,bloc_7,prob80hthp_12trials.xlsx,2,24,80,20,1,,,,,0,6,6,6,1,8,20,1,,,,,,,,4.9,1986.9068206999946,1991.8125334999932,1991.8125100500024,0.3052377999993041,1992.2606357999903,1992.2606357999903,n,0.9799499000073411,1998.1571865000005,1998.1571865000005,6,4.865,,,sub-025,20,60,700,bloc_loop.csv,2023-06-14_12h17.40.202,PainUncertainty,2022.2.5,142.9790835826881,
grave,moderee,stimuli/330Hz,stimuli/moderee,bloc_7,prob80hthp_12trials.xlsx,2,24,80,20,1,,,,,0,6,6,6,1,9,21,4,,,,,,,,4,1998.1571865000005,2002.1609982999944,2002.1609592500013,0.30499269999563694,2002.6053813999897,2002.6053813999897,n,0.6774875999981305,2006.865832800002,2006.865832800002,7,3.518,,,sub-025,20,60,700,bloc_loop.csv,2023-06-14_12h17.40.202,PainUncertainty,2022.2.5,142.9790835826881,
aigu,forte,stimuli/660Hz,stimuli/forte,bloc_7,prob80hthp_12trials.xlsx,2,24,80,20,1,,,,,0,6,6,6,1,10,22,9,,,,,,,,4.1,2006.865832800002,2010.967579499993,2010.967597149995,0.30515379999997094,2011.4118503999925,2011.4118503999925,m,0.7239471999928355,2015.3195280999935,2015.3195280999935,12,3.124,,,sub-025,20,60,700,bloc_loop.csv,2023-06-14_12h17.40.202,PainUncertainty,2022.2.5,142.9790835826881,
aigu,moderee,stimuli/660Hz,stimuli/moderee,bloc_7,prob80hthp_12trials.xlsx,2,24,80,20,1,,,,,0,6,6,6,1,11,23,11,,,,,,,,3.2,2015.3195280999935,2018.5243730999937,2018.5243256499948,0.30523480000556447,2018.9709472999966,2018.9709472999966,n,0.7912439000065206,2029.1955519999901,2029.1955519999901,7,7.398,,,sub-025,20,60,700,bloc_loop.csv,2023-06-14_12h17.40.202,PainUncertainty,2022.2.5,142.9790835826881,
,,,,bloc_7,prob80hthp_12trials.xlsx,2,24,80,20,1,,,,,0,6,6,6,,,,,0,0,0,0,,,,,,,,,,,,,,,,,2029.1955519999901,2060.147062499993,sub-025,20,60,700,bloc_loop.csv,2023-06-14_12h17.40.202,PainUncertainty,2022.2.5,142.9790835826881,
grave,forte,stimuli/330Hz,stimuli/forte,bloc_8,prob50_50_4trials.xlsx,3,12,50,50,0,,,,,0,7,7,7,0,0,0,1,,,,,,,,4.2,2062.3015540999913,2066.5020607999904,2066.502059249992,0.305108399988967,2066.9461771999922,2066.9461771999922,m,0.6542520999937551,2070.352090100001,2070.352090100001,16,2.69,,,sub-025,20,60,700,bloc_loop.csv,2023-06-14_12h17.40.202,PainUncertainty,2022.2.5,142.9790835826881,
aigu,forte,stimuli/660Hz,stimuli/forte,bloc_8,prob50_50_4trials.xlsx,3,12,50,50,0,,,,,0,7,7,7,0,1,1,3,,,,,,,,5,2070.352090100001,2075.3572641999926,2075.357240750002,0.30571640000562184,2075.804564799997,2075.804564799997,m,0.6298244999925373,2080.802698200001,2080.802698200001,15,4.315,,,sub-025,20,60,700,bloc_loop.csv,2023-06-14_12h17.40.202,PainUncertainty,2022.2.5,142.9790835826881,
aigu,moderee,stimuli/660Hz,stimuli/moderee,bloc_8,prob50_50_4trials.xlsx,3,12,50,50,0,,,,,0,7,7,7,0,2,2,2,,,,,,,,4.4,2080.802698200001,2085.2055575999984,2085.2056356499947,0.3050031000020681,2085.649745699993,2085.649745699993,n,0.4161060000042198,2092.932333699995,2092.932333699995,5,6.804,,,sub-025,20,60,700,bloc_loop.csv,2023-06-14_12h17.40.202,PainUncertainty,2022.2.5,142.9790835826881,
grave,moderee,stimuli/330Hz,stimuli/moderee,bloc_8,prob50_50_4trials.xlsx,3,12,50,50,0,,,,,0,7,7,7,0,3,3,0,,,,,,,,4.2,2092.932333699995,2097.1376555000024,2097.1377518499926,0.30120040000474546,2097.5825895000016,2097.5825895000016,n,1.4780979999923147,2102.02450639999,2102.02450639999,6,2.907,,,sub-025,20,60,700,bloc_loop.csv,2023-06-14_12h17.40.202,PainUncertainty,2022.2.5,142.9790835826881,
aigu,forte,stimuli/660Hz,stimuli/forte,bloc_8,prob50_50_4trials.xlsx,3,12,50,50,0,,,,,0,7,7,7,1,0,4,3,,,,,,,,4.3,2102.02450639999,2106.327003300001,2106.3265795500033,0.3065227000042796,2106.7779365000024,2106.7779365000024,m,0.8329664000048069,2111.3087383999955,2111.3087383999955,13,3.621,,,sub-025,20,60,700,bloc_loop.csv,2023-06-14_12h17.40.202,PainUncertainty,2022.2.5,142.9790835826881,
grave,moderee,stimuli/330Hz,stimuli/moderee,bloc_8,prob50_50_4trials.xlsx,3,12,50,50,0,,,,,0,7,7,7,1,1,5,0,,,,,,,,3.6,2111.3087383999955,2114.910534900002,2114.910421649997,0.30508009999175556,2115.354633199997,2115.354633199997,n,0.5339745999954175,2118.4674174999964,2118.4674174999964,6,2.525,,,sub-025,20,60,700,bloc_loop.csv,2023-06-14_12h17.40.202,PainUncertainty,2022.2.5,142.9790835826881,
aigu,moderee,stimuli/660Hz,stimuli/moderee,bloc_8,prob50_50_4trials.xlsx,3,12,50,50,0,,,,,0,7,7,7,1,2,6,2,,,,,,,,4.6,2118.4674174999964,2123.071276100003,2123.0712729499924,0.3049572000018088,2123.5153922000027,2123.5153922000027,n,0.5244622000027448,2126.5190165999957,2126.5190165999957,5,2.419,,,sub-025,20,60,700,bloc_loop.csv,2023-06-14_12h17.40.202,PainUncertainty,2022.2.5,142.9790835826881,
grave,forte,stimuli/330Hz,stimuli/forte,bloc_8,prob50_50_4trials.xlsx,3,12,50,50,0,,,,,0,7,7,7,1,3,7,1,,,,,,,,5,2126.5190165999957,2131.5240022999933,2131.525402650003,0.29964020001352765,2131.9682956000033,2131.9682956000033,m,0.5469203000102425,2136.715250299996,2136.715250299996,13,4.144,,,sub-025,20,60,700,bloc_loop.csv,2023-06-14_12h17.40.202,PainUncertainty,2022.2.5,142.9790835826881,
aigu,moderee,stimuli/660Hz,stimuli/moderee,bloc_8,prob50_50_4trials.xlsx,3,12,50,50,0,,,,,0,7,7,7,2,0,8,2,,,,,,,,3.8,2136.715250299996,2140.517751499996,2140.5177488500035,0.3052338000125019,2140.9619869000016,2140.9619869000016,n,0.7198555000068154,2147.9952239999984,2147.9952239999984,5,6.253,,,sub-025,20,60,700,bloc_loop.csv,2023-06-14_12h17.40.202,PainUncertainty,2022.2.5,142.9790835826881,
aigu,forte,stimuli/660Hz,stimuli/forte,bloc_8,prob50_50_4trials.xlsx,3,12,50,50,0,,,,,0,7,7,7,2,1,9,3,,,,,,,,4,2147.9952239999984,2151.9983278,2151.998462150003,0.3047082999983104,2152.4425373999984,2152.4425373999984,m,0.5817939999978989,2155.682560599991,2155.682560599991,19,2.594,,,sub-025,20,60,700,bloc_loop.csv,2023-06-14_12h17.40.202,PainUncertainty,2022.2.5,142.9790835826881,
grave,moderee,stimuli/330Hz,stimuli/moderee,bloc_8,prob50_50_4trials.xlsx,3,12,50,50,0,,,,,0,7,7,7,2,2,10,0,,,,,,,,3.5,2155.682560599991,2159.1800218999997,2159.182894750002,0.30217540000739973,2159.6238330999913,2159.6238330999913,n,0.7188357999984873,2164.565795200004,2164.565795200004,6,4.163,,,sub-025,20,60,700,bloc_loop.csv,2023-06-14_12h17.40.202,PainUncertainty,2022.2.5,142.9790835826881,
grave,forte,stimuli/330Hz,stimuli/forte,bloc_8,prob50_50_4trials.xlsx,3,12,50,50,0,,,,,0,7,7,7,2,3,11,1,,,,,,,,3,2164.565795200004,2167.570171799991,2167.5704867500012,0.30428919999394566,2168.0139037999907,2168.0139037999907,m,0.6537305000092601,2172.7639246000035,2172.7639246000035,16,3.974,,,sub-025,20,60,700,bloc_loop.csv,2023-06-14_12h17.40.202,PainUncertainty,2022.2.5,142.9790835826881,
grave,forte,stimuli/330Hz,stimuli/forte,bloc_9,prob20hthp_12trials.xlsx,3,36,80,20,0,,,,,0,8,8,8,0,0,0,1,,,,,,,,3.2,2172.7639246000035,2175.966600400003,2175.9666375499933,0.3049140999937663,2176.4107025999983,2176.4107025999983,m,0.7362056999991182,2183.150027900003,2183.150027900003,11,5.954,,,sub-025,20,60,700,bloc_loop.csv,2023-06-14_12h17.40.202,PainUncertainty,2022.2.5,142.9790835826881,
grave,forte,stimuli/330Hz,stimuli/forte,bloc_9,prob20hthp_12trials.xlsx,3,36,80,20,0,,,,,0,8,8,8,0,1,1,4,,,,,,,,3.3,2183.150027900003,2186.454317099997,2186.454259149991,0.3049667000013869,2186.898074800003,2186.898074800003,m,0.5722250999970129,2191.699607200004,2191.699607200004,16,4.161,,,sub-025,20,60,700,bloc_loop.csv,2023-06-14_12h17.40.202,PainUncertainty,2022.2.5,142.9790835826881,
aigu,moderee,stimuli/660Hz,stimuli/moderee,bloc_9,prob20hthp_12trials.xlsx,3,36,80,20,0,,,,,0,8,8,8,0,2,2,7,,,,,,,,3.1,2191.699607200004,2194.8018933999992,2194.80185735,0.3053680000011809,2195.2461611000035,2195.2461611000035,n,0.6111157999985153,2200.839079199999,2200.839079199999,7,4.926,,,sub-025,20,60,700,bloc_loop.csv,2023-06-14_12h17.40.202,PainUncertainty,2022.2.5,142.9790835826881,
aigu,moderee,stimuli/660Hz,stimuli/moderee,bloc_9,prob20hthp_12trials.xlsx,3,36,80,20,0,,,,,0,8,8,8,0,3,3,6,,,,,,,,3.8,2200.839079199999,2204.6435262000014,2204.6434749500027,0.3050657000130741,2205.0875873999903,2205.0875873999903,n,0.6081783999979962,2210.139634899999,2210.139634899999,6,4.375,,,sub-025,20,60,700,bloc_loop.csv,2023-06-14_12h17.40.202,PainUncertainty,2022.2.5,142.9790835826881,
aigu,forte,stimuli/660Hz,stimuli/forte,bloc_9,prob20hthp_12trials.xlsx,3,36,80,20,0,,,,,0,8,8,8,0,4,4,11,,,,,,,,4.3,2210.139634899999,2214.443291299991,2214.4432904499977,0.3051196999876993,2214.8910375999985,2214.8910375999985,m,0.8183516000135569,2220.0792326999945,2220.0792326999945,13,4.307,,,sub-025,20,60,700,bloc_loop.csv,2023-06-14_12h17.40.202,PainUncertainty,2022.2.5,142.9790835826881,
aigu,moderee,stimuli/660Hz,stimuli/moderee,bloc_9,prob20hthp_12trials.xlsx,3,36,80,20,0,,,,,0,8,8,8,0,5,5,10,,,,,,,,3.6,2220.0792326999945,2223.680557200001,2223.68051515,0.3048135999997612,2224.1249241999903,2224.1249241999903,n,0.4967326000041794,2229.0288516,2229.0288516,6,4.351,,,sub-025,20,60,700,bloc_loop.csv,2023-06-14_12h17.40.202,PainUncertainty,2022.2.5,142.9790835826881,
grave,forte,stimuli/330Hz,stimuli/forte,bloc_9,prob20hthp_12trials.xlsx,3,36,80,20,0,,,,,0,8,8,8,0,6,6,2,,,,,,,,4.3,2229.0288516,2233.334446199995,2233.334451349989,0.3054292000015266,2233.781734499993,2233.781734499993,m,0.7344436000130372,2236.651154799998,2236.651154799998,16,2.072,,,sub-025,20,60,700,bloc_loop.csv,2023-06-14_12h17.40.202,PainUncertainty,2022.2.5,142.9790835826881,
aigu,moderee,stimuli/660Hz,stimuli/moderee,bloc_9,prob20hthp_12trials.xlsx,3,36,80,20,0,,,,,0,8,8,8,0,7,7,8,,,,,,,,4.3,2236.651154799998,2240.9537779999955,2240.9536524499986,0.30528240000421647,2241.3977700999967,2241.3977700999967,n,0.5296356000035303,2247.836598599999,2247.836598599999,6,5.846,,,sub-025,20,60,700,bloc_loop.csv,2023-06-14_12h17.40.202,PainUncertainty,2022.2.5,142.9790835826881,
aigu,moderee,stimuli/660Hz,stimuli/moderee,bloc_9,prob20hthp_12trials.xlsx,3,36,80,20,0,,,,,0,8,8,8,0,8,8,9,,,,,,,,4.2,2247.836598599999,2252.038050899995,2252.0380736499924,0.304969799995888,2252.482144399997,2252.482144399997,n,0.5153598000033526,2256.160440499996,2256.160440499996,6,3.093,,,sub-025,20,60,700,bloc_loop.csv,2023-06-14_12h17.40.202,PainUncertainty,2022.2.5,142.9790835826881,
grave,forte,stimuli/330Hz,stimuli/forte,bloc_9,prob20hthp_12trials.xlsx,3,36,80,20,0,,,,,0,8,8,8,0,9,9,0,,,,,,,,4.8,2256.160440499996,2260.962713599991,2260.96262004999,0.3051156000001356,2261.4088556999923,2261.4088556999923,m,0.6416867999942042,2267.1377563999995,2267.1377563999995,17,5.031,,,sub-025,20,60,700,bloc_loop.csv,2023-06-14_12h17.40.202,PainUncertainty,2022.2.5,142.9790835826881,
grave,moderee,stimuli/330Hz,stimuli/moderee,bloc_9,prob20hthp_12trials.xlsx,3,36,80,20,0,,,,,0,8,8,8,0,10,10,5,,,,,,,,4.4,2267.1377563999995,2271.54076589999,2271.5408401500013,0.30500159999064635,2271.986954199994,2271.986954199994,n,0.6078229999984615,2276.455491899993,2276.455491899993,7,3.803,,,sub-025,20,60,700,bloc_loop.csv,2023-06-14_12h17.40.202,PainUncertainty,2022.2.5,142.9790835826881,
grave,forte,stimuli/330Hz,stimuli/forte,bloc_9,prob20hthp_12trials.xlsx,3,36,80,20,0,,,,,0,8,8,8,0,11,11,3,,,,,,,,4.7,2276.455491899993,2281.1594932000007,2281.159477749998,0.3050987000024179,2281.6039923999924,2281.6039923999924,m,0.6289984999893932,2285.338736199992,2285.338736199992,19,3.046,,,sub-025,20,60,700,bloc_loop.csv,2023-06-14_12h17.40.202,PainUncertainty,2022.2.5,142.9790835826881,
aigu,forte,stimuli/660Hz,stimuli/forte,bloc_9,prob20hthp_12trials.xlsx,3,36,80,20,0,,,,,0,8,8,8,1,0,12,11,,,,,,,,4.9,2285.338736199992,2290.24394249999,2290.2438772500013,0.30495990000781603,2290.688171200003,2290.688171200003,m,1.0528306000051089,2293.5360748999956,2293.5360748999956,16,1.739,,,sub-025,20,60,700,bloc_loop.csv,2023-06-14_12h17.40.202,PainUncertainty,2022.2.5,142.9790835826881,
aigu,moderee,stimuli/660Hz,stimuli/moderee,bloc_9,prob20hthp_12trials.xlsx,3,36,80,20,0,,,,,0,8,8,8,1,1,13,10,,,,,,,,4.7,2293.5360748999956,2298.2380470999924,2298.237994249996,0.3050308999954723,2298.682282099995,2298.682282099995,n,0.49168289999943227,2302.0048817999923,2302.0048817999923,7,2.782,,,sub-025,20,60,700,bloc_loop.csv,2023-06-14_12h17.40.202,PainUncertainty,2022.2.5,142.9790835826881,
aigu,moderee,stimuli/660Hz,stimuli/moderee,bloc_9,prob20hthp_12trials.xlsx,3,36,80,20,0,,,,,0,8,8,8,1,2,14,9,,,,,,,,4.6,2302.0048817999923,2306.6073461999913,2306.607295549997,0.30517419999523554,2307.051306900001,2307.051306900001,n,0.6744141000090167,2311.8325905999955,2311.8325905999955,9,4.038,,,sub-025,20,60,700,bloc_loop.csv,2023-06-14_12h17.40.202,PainUncertainty,2022.2.5,142.9790835826881,
aigu,moderee,stimuli/660Hz,stimuli/moderee,bloc_9,prob20hthp_12trials.xlsx,3,36,80,20,0,,,,,0,8,8,8,1,3,15,7,,,,,,,,4.4,2311.8325905999955,2316.2334724999964,2316.2337537499975,0.30448550000437535,2316.6772926999984,2316.6772926999984,n,0.45098339999094605,2322.682852500002,2322.682852500002,7,5.497,,,sub-025,20,60,700,bloc_loop.csv,2023-06-14_12h17.40.202,PainUncertainty,2022.2.5,142.9790835826881,
grave,moderee,stimuli/330Hz,stimuli/moderee,bloc_9,prob20hthp_12trials.xlsx,3,36,80,20,0,,,,,0,8,8,8,1,4,16,5,,,,,,,,4.2,2322.682852500002,2326.887282900003,2326.8873236499917,0.30534809999517165,2327.3340400000016,2327.3340400000016,n,0.4094803000043612,2331.1684263999923,2331.1684263999923,6,3.372,,,sub-025,20,60,700,bloc_loop.csv,2023-06-14_12h17.40.202,PainUncertainty,2022.2.5,142.9790835826881,
grave,forte,stimuli/330Hz,stimuli/forte,bloc_9,prob20hthp_12trials.xlsx,3,36,80,20,0,,,,,0,8,8,8,1,5,17,1,,,,,,,,3.1,2331.1684263999923,2334.2700570000015,2334.2701232499953,0.30494080000789836,2334.7142923999927,2334.7142923999927,m,0.559932200005278,2338.0879496999987,2338.0879496999987,15,2.761,,,sub-025,20,60,700,bloc_loop.csv,2023-06-14_12h17.40.202,PainUncertainty,2022.2.5,142.9790835826881,
grave,forte,stimuli/330Hz,stimuli/forte,bloc_9,prob20hthp_12trials.xlsx,3,36,80,20,0,,,,,0,8,8,8,1,6,18,0,,,,,,,,5,2338.0879496999987,2343.0904927999945,2343.0904030499937,0.3053269999945769,2343.534680099998,2343.534680099998,m,0.5558244999992894,2346.7338911999977,2346.7338911999977,15,2.579,,,sub-025,20,60,700,bloc_loop.csv,2023-06-14_12h17.40.202,PainUncertainty,2022.2.5,142.9790835826881,
grave,forte,stimuli/330Hz,stimuli/forte,bloc_9,prob20hthp_12trials.xlsx,3,36,80,20,0,,,,,0,8,8,8,1,7,19,2,,,,,,,,3.8,2346.7338911999977,2350.536167099999,2350.536274550001,0.3048135999997612,2350.980007799997,2350.980007799997,m,0.5126476000004914,2355.536592599994,2355.536592599994,17,3.983,,,sub-025,20,60,700,bloc_loop.csv,2023-06-14_12h17.40.202,PainUncertainty,2022.2.5,142.9790835826881,
grave,forte,stimuli/330Hz,stimuli/forte,bloc_9,prob20hthp_12trials.xlsx,3,36,80,20,0,,,,,0,8,8,8,1,8,20,3,,,,,,,,3,2355.536592599994,2358.536763199998,2358.536735449989,0.3051453000080073,2358.9809890999895,2358.9809890999895,m,0.5221920000039972,2363.6699770999985,2363.6699770999985,18,4.107,,,sub-025,20,60,700,bloc_loop.csv,2023-06-14_12h17.40.202,PainUncertainty,2022.2.5,142.9790835826881,
aigu,moderee,stimuli/660Hz,stimuli/moderee,bloc_9,prob20hthp_12trials.xlsx,3,36,80,20,0,,,,,0,8,8,8,1,9,21,8,,,,,,,,3.1,2363.6699770999985,2366.7739137000026,2366.773866649992,0.30509080000047106,2367.2203866999916,2367.2203866999916,n,0.4751576999988174,2372.1389995999925,2372.1389995999925,6,4.394,,,sub-025,20,60,700,bloc_loop.csv,2023-06-14_12h17.40.202,PainUncertainty,2022.2.5,142.9790835826881,
grave,forte,stimuli/330Hz,stimuli/forte,bloc_9,prob20hthp_12trials.xlsx,3,36,80,20,0,,,,,0,8,8,8,1,10,22,4,,,,,,,,5,2372.1389995999925,2377.1431519000034,2377.1432542499956,0.3050575000088429,2377.590039699993,2377.590039699993,m,0.664545999999973,2381.1195092999988,2381.1195092999988,12,2.81,,,sub-025,20,60,700,bloc_loop.csv,2023-06-14_12h17.40.202,PainUncertainty,2022.2.5,142.9790835826881,
aigu,moderee,stimuli/660Hz,stimuli/moderee,bloc_9,prob20hthp_12trials.xlsx,3,36,80,20,0,,,,,0,8,8,8,1,11,23,6,,,,,,,,4.3,2381.1195092999988,2385.421911700003,2385.4220483499944,0.3048877999972319,2385.8661171999993,2385.8661171999993,n,0.5277138000092236,2393.9037402999966,2393.9037402999966,6,7.449,,,sub-025,20,60,700,bloc_loop.csv,2023-06-14_12h17.40.202,PainUncertainty,2022.2.5,142.9790835826881,
aigu,forte,stimuli/660Hz,stimuli/forte,bloc_9,prob20hthp_12trials.xlsx,3,36,80,20,0,,,,,0,8,8,8,2,0,24,11,,,,,,,,3.1,2393.9037402999966,2397.007472600002,2397.0073525500034,0.30473049999272916,2397.4510621999943,2397.4510621999943,m,0.9769451000029221,2402.6457143000007,2402.6457143000007,15,4.157,,,sub-025,20,60,700,bloc_loop.csv,2023-06-14_12h17.40.202,PainUncertainty,2022.2.5,142.9790835826881,
aigu,moderee,stimuli/660Hz,stimuli/moderee,bloc_9,prob20hthp_12trials.xlsx,3,36,80,20,0,,,,,0,8,8,8,2,1,25,7,,,,,,,,4,2402.6457143000007,2406.6475395000016,2406.647338549998,0.30653430000529625,2407.09852639999,2407.09852639999,n,0.5082255000015721,2411.879726500003,2411.879726500003,6,4.226,,,sub-025,20,60,700,bloc_loop.csv,2023-06-14_12h17.40.202,PainUncertainty,2022.2.5,142.9790835826881,
grave,moderee,stimuli/330Hz,stimuli/moderee,bloc_9,prob20hthp_12trials.xlsx,3,36,80,20,0,,,,,0,8,8,8,2,2,26,5,,,,,,,,4.7,2411.879726500003,2416.5854059999983,2416.585621149991,0.3048811000044225,2417.0299146000034,2417.0299146000034,n,1.2004916000005323,2423.1137976000027,2423.1137976000027,6,4.824,,,sub-025,20,60,700,bloc_loop.csv,2023-06-14_12h17.40.202,PainUncertainty,2022.2.5,142.9790835826881,
aigu,moderee,stimuli/660Hz,stimuli/moderee,bloc_9,prob20hthp_12trials.xlsx,3,36,80,20,0,,,,,0,8,8,8,2,3,27,6,,,,,,,,3.6,2423.1137976000027,2426.7187371000036,2426.718649050001,0.30522220001148526,2427.162722199995,2427.162722199995,n,0.587567399998079,2432.6388252999895,2432.6388252999895,7,4.823,,,sub-025,20,60,700,bloc_loop.csv,2023-06-14_12h17.40.202,PainUncertainty,2022.2.5,142.9790835826881,
grave,forte,stimuli/330Hz,stimuli/forte,bloc_9,prob20hthp_12trials.xlsx,3,36,80,20,0,,,,,0,8,8,8,2,4,28,1,,,,,,,,3.4,2432.6388252999895,2436.0391228999943,2436.0390873499987,0.3051740999944741,2436.4833875999902,2436.4833875999902,m,0.7306318000046303,2441.6982707999996,2441.6982707999996,14,4.421,,,sub-025,20,60,700,bloc_loop.csv,2023-06-14_12h17.40.202,PainUncertainty,2022.2.5,142.9790835826881,
aigu,moderee,stimuli/660Hz,stimuli/moderee,bloc_9,prob20hthp_12trials.xlsx,3,36,80,20,0,,,,,0,8,8,8,2,5,29,9,,,,,,,,4.6,2441.6982707999996,2446.297360700002,2446.29737395,0.3052488999965135,2446.7415308999916,2446.7415308999916,n,0.5266559000010602,2452.470889599994,2452.470889599994,7,5.137,,,sub-025,20,60,700,bloc_loop.csv,2023-06-14_12h17.40.202,PainUncertainty,2022.2.5,142.9790835826881,
aigu,moderee,stimuli/660Hz,stimuli/moderee,bloc_9,prob20hthp_12trials.xlsx,3,36,80,20,0,,,,,0,8,8,8,2,6,30,8,,,,,,,,4.9,2452.470889599994,2457.375005099995,2457.3749504499997,0.3051084000035189,2457.819192199997,2457.819192199997,n,0.4772125000017695,2459.852683499994,2459.852683499994,7,1.492,,,sub-025,20,60,700,bloc_loop.csv,2023-06-14_12h17.40.202,PainUncertainty,2022.2.5,142.9790835826881,
grave,forte,stimuli/330Hz,stimuli/forte,bloc_9,prob20hthp_12trials.xlsx,3,36,80,20,0,,,,,0,8,8,8,2,7,31,4,,,,,,,,3.1,2459.852683499994,2462.9521085000015,2462.9520752499943,0.30514080000284594,2463.396445899998,2463.396445899998,m,0.651910599990515,2468.1920607999928,2468.1920607999928,18,4.094,,,sub-025,20,60,700,bloc_loop.csv,2023-06-14_12h17.40.202,PainUncertainty,2022.2.5,142.9790835826881,
grave,forte,stimuli/330Hz,stimuli/forte,bloc_9,prob20hthp_12trials.xlsx,3,36,80,20,0,,,,,0,8,8,8,2,8,32,3,,,,,,,,5,2468.1920607999928,2473.1963098999986,2473.196347949996,0.3052964999951655,2473.643397199994,2473.643397199994,m,0.7287222000013571,2478.179713699996,2478.179713699996,16,3.746,,,sub-025,20,60,700,bloc_loop.csv,2023-06-14_12h17.40.202,PainUncertainty,2022.2.5,142.9790835826881,
grave,forte,stimuli/330Hz,stimuli/forte,bloc_9,prob20hthp_12trials.xlsx,3,36,80,20,0,,,,,0,8,8,8,2,9,33,2,,,,,,,,4.8,2478.179713699996,2482.9821874999907,2482.98221244999,0.3050041999958921,2483.4263949000015,2483.4263949000015,m,0.46115780000400264,2488.421962399996,2488.421962399996,17,4.476,,,sub-025,20,60,700,bloc_loop.csv,2023-06-14_12h17.40.202,PainUncertainty,2022.2.5,142.9790835826881,
aigu,moderee,stimuli/660Hz,stimuli/moderee,bloc_9,prob20hthp_12trials.xlsx,3,36,80,20,0,,,,,0,8,8,8,2,10,34,10,,,,,,,,5,2488.421962399996,2493.427865999998,2493.4278984499965,0.3050904999981867,2493.8720472999994,2493.8720472999994,n,0.6860645999986446,2497.8820878999977,2497.8820878999977,7,3.266,,,sub-025,20,60,700,bloc_loop.csv,2023-06-14_12h17.40.202,PainUncertainty,2022.2.5,142.9790835826881,
grave,forte,stimuli/330Hz,stimuli/forte,bloc_9,prob20hthp_12trials.xlsx,3,36,80,20,0,,,,,0,8,8,8,2,11,35,0,,,,,,,,3,2497.8820878999977,2500.8871208999917,2500.8870777499965,0.3052295000088634,2501.331446600001,2501.331446600001,m,0.864882599998964,2505.8994485000003,2505.8994485000003,18,3.677,,,sub-025,20,60,700,bloc_loop.csv,2023-06-14_12h17.40.202,PainUncertainty,2022.2.5,142.9790835826881,
