cue_,stimulus_,cue_fichier,stimulus_fichier,block_name,block_trials_file,block_n_reps,block_ntrials,block_prob_highP_highT,block_prob_highP_lowT,block_pause_after,Bloc_essai.thisRepN,Bloc_essai.thisTrialN,Bloc_essai.thisN,Bloc_essai.thisIndex,blocks.thisRepN,blocks.thisTrialN,blocks.thisN,blocks.thisIndex,trials.thisRepN,trials.thisTrialN,trials.thisN,trials.thisIndex,pause_loop.thisRepN,pause_loop.thisTrialN,pause_loop.thisN,pause_loop.thisIndex,key_resp_5.started,start_calib.started,key_resp_2.started,ISI_duration,pause.started,pause.stopped,cue.started,ISI.started,choice_pain.started,Choice.started,choice_pain.keys,choice_pain.rt,main_text.started,confirm_text.started,ratingScale.response,ratingScale.rt,key_resp_3.started,key_resp_6.started,choice_pain.stopped,Choice.stopped,participant,low_ma,high_ma,failsafe_ma,block_file,date,expName,psychopyVersion,frameRate,
aigu,moderee,stimuli/660Hz,stimuli/moderee,,,,,,,,0,0,0,2,,,,,,,,,,,,,36.0238093000371,37.76506100001279,272.4051709000487,3.7,275.4424869000213,279.14852350001456,279.1490386800026,0.3046069999691099,279.5864462000318,279.5864462000318,n,0.7407361000077799,285.00807160005206,285.00807160005206,19,4.604,,,,,sub-035,25,45,700,bloc_loop.csv,2023-07-03_16h51.55.962,PainUncertainty,2022.2.5,142.99278179176378,
grave,moderee,stimuli/330Hz,stimuli/moderee,,,,,,,,0,1,1,0,,,,,,,,,,,,,,,,3.8,285.00807160005206,288.81206880003447,288.8103310400562,0.30472229997394606,289.2541754000122,289.2541754000122,n,1.317537099996116,293.54035290004686,293.54035290004686,22,2.065,,,,,sub-035,25,45,700,bloc_loop.csv,2023-07-03_16h51.55.962,PainUncertainty,2022.2.5,142.99278179176378,
aigu,forte,stimuli/660Hz,stimuli/forte,,,,,,,,0,2,2,3,,,,,,,,,,,,,,,,4.9,293.54035290004686,298.4431581000099,298.4431860400306,0.3052847000071779,298.8918918000418,298.8918918000418,m,0.8889576999936253,302.18513380002696,302.18513380002696,70,1.863,,,,,sub-035,25,45,700,bloc_loop.csv,2023-07-03_16h51.55.962,PainUncertainty,2022.2.5,142.99278179176378,
grave,forte,stimuli/330Hz,stimuli/forte,,,,,,,,0,3,3,1,,,,,,,,,,,,,,,,3.8,302.18513380002696,305.98581290000584,305.9858256400272,0.3052307000034489,306.43493980000494,306.43493980000494,m,0.7164567999425344,309.8871340000187,309.8871340000187,75,2.712,,,,,sub-035,25,45,700,bloc_loop.csv,2023-07-03_16h51.55.962,PainUncertainty,2022.2.5,142.99278179176378,
grave,forte,stimuli/330Hz,stimuli/forte,bloc_1,prob20hthp_12trials.xlsx,4,48,20,80,0,,,,,0,0,0,0,0,0,0,3,,,,,,,,4,345.41228410002077,349.4148545000353,349.41491144004397,0.3053751999977976,349.86255050002364,349.86255050002364,m,0.5563560000155121,354.07135610003024,354.07135610003024,71,2.654,,,,,sub-035,25,45,700,bloc_loop.csv,2023-07-03_16h51.55.962,PainUncertainty,2022.2.5,142.99278179176378,
aigu,moderee,stimuli/660Hz,stimuli/moderee,bloc_1,prob20hthp_12trials.xlsx,4,48,20,80,0,,,,,0,0,0,0,0,1,1,10,,,,,,,,3.9,354.07135610003024,357.971116300032,357.9711700400163,0.30488599999807775,358.41537930001505,358.41537930001505,n,0.6678818000364117,362.5404263000237,362.5404263000237,19,3.002,,,,,sub-035,25,45,700,bloc_loop.csv,2023-07-03_16h51.55.962,PainUncertainty,2022.2.5,142.99278179176378,
grave,moderee,stimuli/330Hz,stimuli/moderee,bloc_1,prob20hthp_12trials.xlsx,4,48,20,80,0,,,,,0,0,0,0,0,2,2,5,,,,,,,,3.6,362.5404263000237,366.1394535000436,366.13962924002556,0.3006910000112839,366.5836724000401,366.5836724000401,n,0.6501832000212744,369.30100930004846,369.30100930004846,20,1.641,,,,,sub-035,25,45,700,bloc_loop.csv,2023-07-03_16h51.55.962,PainUncertainty,2022.2.5,142.99278179176378,
aigu,moderee,stimuli/660Hz,stimuli/moderee,bloc_1,prob20hthp_12trials.xlsx,4,48,20,80,0,,,,,0,0,0,0,0,3,3,6,,,,,,,,4,369.30100930004846,373.3064862000174,373.30648264003105,0.3051502000307664,373.75108370004455,373.75108370004455,n,0.5372681000153534,376.26704040000914,376.26704040000914,19,1.502,,,,,sub-035,25,45,700,bloc_loop.csv,2023-07-03_16h51.55.962,PainUncertainty,2022.2.5,142.99278179176378,
grave,forte,stimuli/330Hz,stimuli/forte,bloc_1,prob20hthp_12trials.xlsx,4,48,20,80,0,,,,,0,0,0,0,0,4,4,2,,,,,,,,3.7,376.26704040000914,379.9669718000223,379.966955739999,0.30545600003097206,380.4134819000028,380.4134819000028,m,0.46159939997596666,384.24111260002246,384.24111260002246,75,2.134,,,,,sub-035,25,45,700,bloc_loop.csv,2023-07-03_16h51.55.962,PainUncertainty,2022.2.5,142.99278179176378,
grave,forte,stimuli/330Hz,stimuli/forte,bloc_1,prob20hthp_12trials.xlsx,4,48,20,80,0,,,,,0,0,0,0,0,5,5,0,,,,,,,,5,384.24111260002246,389.24583230004646,389.2460277400038,0.304692400037311,389.69004080002196,389.69004080002196,m,0.49610069999471307,393.47811290004756,393.47811290004756,82,2.826,,,,,sub-035,25,45,700,bloc_loop.csv,2023-07-03_16h51.55.962,PainUncertainty,2022.2.5,142.99278179176378,
aigu,moderee,stimuli/660Hz,stimuli/moderee,bloc_1,prob20hthp_12trials.xlsx,4,48,20,80,0,,,,,0,0,0,0,0,6,6,9,,,,,,,,4.2,393.47811290004756,397.67737540003145,397.6774117399997,0.30509320000419393,398.1215015000198,398.1215015000198,n,0.4776461999863386,402.01166560000274,402.01166560000274,16,2.934,,,,,sub-035,25,45,700,bloc_loop.csv,2023-07-03_16h51.55.962,PainUncertainty,2022.2.5,142.99278179176378,
aigu,forte,stimuli/660Hz,stimuli/forte,bloc_1,prob20hthp_12trials.xlsx,4,48,20,80,0,,,,,0,0,0,0,0,7,7,11,,,,,,,,3.3,402.01166560000274,405.3170513000223,405.3171433400072,0.3049267000169493,405.76123140001437,405.76123140001437,m,0.4606476000044495,409.8727758000023,409.8727758000023,79,2.412,,,,,sub-035,25,45,700,bloc_loop.csv,2023-07-03_16h51.55.962,PainUncertainty,2022.2.5,142.99278179176378,
grave,forte,stimuli/330Hz,stimuli/forte,bloc_1,prob20hthp_12trials.xlsx,4,48,20,80,0,,,,,0,0,0,0,0,8,8,4,,,,,,,,4.7,409.8727758000023,414.5757814000244,414.5756737400021,0.3045144000207074,415.0194472000003,415.0194472000003,m,0.5040187999838963,418.6931457000319,418.6931457000319,77,2.737,,,,,sub-035,25,45,700,bloc_loop.csv,2023-07-03_16h51.55.962,PainUncertainty,2022.2.5,142.99278179176378,
grave,forte,stimuli/330Hz,stimuli/forte,bloc_1,prob20hthp_12trials.xlsx,4,48,20,80,0,,,,,0,0,0,0,0,9,9,1,,,,,,,,4.8,418.6931457000319,423.4929590000538,423.4929180400155,0.30516599997645244,423.9374532000511,423.9374532000511,m,0.5441360999830067,427.25962990004336,427.25962990004336,80,2.176,,,,,sub-035,25,45,700,bloc_loop.csv,2023-07-03_16h51.55.962,PainUncertainty,2022.2.5,142.99278179176378,
aigu,moderee,stimuli/660Hz,stimuli/moderee,bloc_1,prob20hthp_12trials.xlsx,4,48,20,80,0,,,,,0,0,0,0,0,10,10,8,,,,,,,,3.5,427.25962990004336,430.7645894000307,430.76486494001585,0.30489119997946545,431.20880490000127,431.20880490000127,n,0.5115537999663502,435.18436280003516,435.18436280003516,20,3.009,,,,,sub-035,25,45,700,bloc_loop.csv,2023-07-03_16h51.55.962,PainUncertainty,2022.2.5,142.99278179176378,
aigu,moderee,stimuli/660Hz,stimuli/moderee,bloc_1,prob20hthp_12trials.xlsx,4,48,20,80,0,,,,,0,0,0,0,0,11,11,7,,,,,,,,3,435.18436280003516,438.1916583000566,438.18976814002383,0.30440209998050705,438.6332966000191,438.6332966000191,n,0.5607697000377811,441.83339880005224,441.83339880005224,19,2.142,,,,,sub-035,25,45,700,bloc_loop.csv,2023-07-03_16h51.55.962,PainUncertainty,2022.2.5,142.99278179176378,
grave,forte,stimuli/330Hz,stimuli/forte,bloc_1,prob20hthp_12trials.xlsx,4,48,20,80,0,,,,,0,0,0,0,1,0,12,2,,,,,,,,4.9,441.83339880005224,446.7388608000474,446.73882834001563,0.30495640001026914,447.1830041000503,447.1830041000503,m,0.6072590999538079,450.1914249000256,450.1914249000256,84,1.855,,,,,sub-035,25,45,700,bloc_loop.csv,2023-07-03_16h51.55.962,PainUncertainty,2022.2.5,142.99278179176378,
aigu,moderee,stimuli/660Hz,stimuli/moderee,bloc_1,prob20hthp_12trials.xlsx,4,48,20,80,0,,,,,0,0,0,0,1,1,13,7,,,,,,,,4.4,450.1914249000256,454.59394680004334,454.59382564003465,0.3052687000017613,455.03800650004996,455.03800650004996,n,0.4259229999734089,457.82768120005494,457.82768120005494,15,1.946,,,,,sub-035,25,45,700,bloc_loop.csv,2023-07-03_16h51.55.962,PainUncertainty,2022.2.5,142.99278179176378,
aigu,forte,stimuli/660Hz,stimuli/forte,bloc_1,prob20hthp_12trials.xlsx,4,48,20,80,0,,,,,0,0,0,0,1,2,14,11,,,,,,,,4.7,457.82768120005494,462.5322673000046,462.5324326400238,0.30496779998065904,462.9764572000131,462.9764572000131,m,0.38048380002146587,465.6593788000173,465.6593788000173,87,1.875,,,,,sub-035,25,45,700,bloc_loop.csv,2023-07-03_16h51.55.962,PainUncertainty,2022.2.5,142.99278179176378,
grave,forte,stimuli/330Hz,stimuli/forte,bloc_1,prob20hthp_12trials.xlsx,4,48,20,80,0,,,,,0,0,0,0,1,3,15,1,,,,,,,,3,465.6593788000173,468.66503880004166,468.66503054001953,0.30519749998347834,469.1093369000009,469.1093369000009,m,0.40499409998301417,472.88136170001235,472.88136170001235,93,2.765,,,,,sub-035,25,45,700,bloc_loop.csv,2023-07-03_16h51.55.962,PainUncertainty,2022.2.5,142.99278179176378,
aigu,moderee,stimuli/660Hz,stimuli/moderee,bloc_1,prob20hthp_12trials.xlsx,4,48,20,80,0,,,,,0,0,0,0,1,4,16,9,,,,,,,,4.9,472.88136170001235,477.7842365000397,477.78443394001226,0.30475339997792616,478.22828520002076,478.22828520002076,n,0.4588789000408724,481.41332160000456,481.41332160000456,19,2.335,,,,,sub-035,25,45,700,bloc_loop.csv,2023-07-03_16h51.55.962,PainUncertainty,2022.2.5,142.99278179176378,
aigu,moderee,stimuli/660Hz,stimuli/moderee,bloc_1,prob20hthp_12trials.xlsx,4,48,20,80,0,,,,,0,0,0,0,1,5,17,10,,,,,,,,4.6,481.41332160000456,486.0143022000557,486.01428954000005,0.3049639000091702,486.45850090001477,486.45850090001477,n,0.41920920001575723,490.5537202000269,490.5537202000269,14,3.265,,,,,sub-035,25,45,700,bloc_loop.csv,2023-07-03_16h51.55.962,PainUncertainty,2022.2.5,142.99278179176378,
grave,forte,stimuli/330Hz,stimuli/forte,bloc_1,prob20hthp_12trials.xlsx,4,48,20,80,0,,,,,0,0,0,0,1,6,18,4,,,,,,,,4.5,490.5537202000269,495.0571286000195,495.0572274400562,0.30480340000940487,495.50173650000943,495.50173650000943,m,0.5002179999719374,499.3738497000304,499.3738497000304,90,3.324,,,,,sub-035,25,45,700,bloc_loop.csv,2023-07-03_16h51.55.962,PainUncertainty,2022.2.5,142.99278179176378,
grave,forte,stimuli/330Hz,stimuli/forte,bloc_1,prob20hthp_12trials.xlsx,4,48,20,80,0,,,,,0,0,0,0,1,7,19,0,,,,,,,,4.9,499.3738497000304,504.273483500001,504.2735251400096,0.3049477000022307,504.71778070001164,504.71778070001164,m,0.6302794000366703,509.2176134000183,509.2176134000183,92,3.329,,,,,sub-035,25,45,700,bloc_loop.csv,2023-07-03_16h51.55.962,PainUncertainty,2022.2.5,142.99278179176378,
aigu,moderee,stimuli/660Hz,stimuli/moderee,bloc_1,prob20hthp_12trials.xlsx,4,48,20,80,0,,,,,0,0,0,0,1,8,20,8,,,,,,,,5,509.2176134000183,514.2194920000038,514.2201353400538,0.3014784999541007,514.6643689000048,514.6643689000048,n,0.4355985999573022,518.2626216000062,518.2626216000062,11,2.779,,,,,sub-035,25,45,700,bloc_loop.csv,2023-07-03_16h51.55.962,PainUncertainty,2022.2.5,142.99278179176378,
grave,forte,stimuli/330Hz,stimuli/forte,bloc_1,prob20hthp_12trials.xlsx,4,48,20,80,0,,,,,0,0,0,0,1,9,21,3,,,,,,,,3.6,518.2626216000062,521.8657746000099,521.8659314400226,0.30514550005318597,522.3100584000349,522.3100584000349,m,0.5423097999882884,524.9252174000139,524.9252174000139,87,1.53,,,,,sub-035,25,45,700,bloc_loop.csv,2023-07-03_16h51.55.962,PainUncertainty,2022.2.5,142.99278179176378,
aigu,moderee,stimuli/660Hz,stimuli/moderee,bloc_1,prob20hthp_12trials.xlsx,4,48,20,80,0,,,,,0,0,0,0,1,10,22,6,,,,,,,,3.7,524.9252174000139,528.6305525000207,528.6305732400448,0.30497230001492426,529.0767124000122,529.0767124000122,n,0.4709302000119351,531.9565755000222,531.9565755000222,15,1.952,,,,,sub-035,25,45,700,bloc_loop.csv,2023-07-03_16h51.55.962,PainUncertainty,2022.2.5,142.99278179176378,
grave,moderee,stimuli/330Hz,stimuli/moderee,bloc_1,prob20hthp_12trials.xlsx,4,48,20,80,0,,,,,0,0,0,0,1,11,23,5,,,,,,,,3.6,531.9565755000222,535.5622846000479,535.5623443400196,0.3049635000061244,536.0103259000462,536.0103259000462,n,0.48272189998533577,539.4826832000399,539.4826832000399,14,2.577,,,,,sub-035,25,45,700,bloc_loop.csv,2023-07-03_16h51.55.962,PainUncertainty,2022.2.5,142.99278179176378,
grave,moderee,stimuli/330Hz,stimuli/moderee,bloc_1,prob20hthp_12trials.xlsx,4,48,20,80,0,,,,,0,0,0,0,2,0,24,5,,,,,,,,3.8,539.4826832000399,543.2850338999997,543.2851462400228,0.30558660003589466,543.7302193000214,543.7302193000214,n,0.5126020000316203,546.6431068000384,546.6431068000384,17,1.966,,,,,sub-035,25,45,700,bloc_loop.csv,2023-07-03_16h51.55.962,PainUncertainty,2022.2.5,142.99278179176378,
grave,forte,stimuli/330Hz,stimuli/forte,bloc_1,prob20hthp_12trials.xlsx,4,48,20,80,0,,,,,0,0,0,0,2,1,25,1,,,,,,,,3,546.6431068000384,549.6468653000193,549.646916840045,0.3051427999744192,550.0933824000531,550.0933824000531,m,0.5176162999705411,553.896558700013,553.896558700013,87,2.785,,,,,sub-035,25,45,700,bloc_loop.csv,2023-07-03_16h51.55.962,PainUncertainty,2022.2.5,142.99278179176378,
grave,forte,stimuli/330Hz,stimuli/forte,bloc_1,prob20hthp_12trials.xlsx,4,48,20,80,0,,,,,0,0,0,0,2,2,26,0,,,,,,,,4.9,553.896558700013,558.8009018000448,558.8013770400372,0.30457929999101907,559.2450384000549,559.2450384000549,m,0.5670524999732152,562.0614136000513,562.0614136000513,91,1.87,,,,,sub-035,25,45,700,bloc_loop.csv,2023-07-03_16h51.55.962,PainUncertainty,2022.2.5,142.99278179176378,
aigu,moderee,stimuli/660Hz,stimuli/moderee,bloc_1,prob20hthp_12trials.xlsx,4,48,20,80,0,,,,,0,0,0,0,2,3,27,8,,,,,,,,5,562.0614136000513,567.0656408000505,567.065662940027,0.30505089997313917,567.510003900039,567.510003900039,n,0.4206142000039108,571.0101545000216,571.0101545000216,11,2.655,,,,,sub-035,25,45,700,bloc_loop.csv,2023-07-03_16h51.55.962,PainUncertainty,2022.2.5,142.99278179176378,
grave,forte,stimuli/330Hz,stimuli/forte,bloc_1,prob20hthp_12trials.xlsx,4,48,20,80,0,,,,,0,0,0,0,2,4,28,3,,,,,,,,3.9,571.0101545000216,574.9138205000199,574.9138276399987,0.3051026999601163,575.3580374000012,575.3580374000012,m,0.5037452999968082,577.7373122000135,577.7373122000135,90,1.454,,,,,sub-035,25,45,700,bloc_loop.csv,2023-07-03_16h51.55.962,PainUncertainty,2022.2.5,142.99278179176378,
grave,forte,stimuli/330Hz,stimuli/forte,bloc_1,prob20hthp_12trials.xlsx,4,48,20,80,0,,,,,0,0,0,0,2,5,29,2,,,,,,,,3.4,577.7373122000135,581.1367827000213,581.1368128400005,0.30550429999129847,581.5841908000293,581.5841908000293,m,0.5052289000013843,584.2748535000137,584.2748535000137,88,1.767,,,,,sub-035,25,45,700,bloc_loop.csv,2023-07-03_16h51.55.962,PainUncertainty,2022.2.5,142.99278179176378,
aigu,moderee,stimuli/660Hz,stimuli/moderee,bloc_1,prob20hthp_12trials.xlsx,4,48,20,80,0,,,,,0,0,0,0,2,6,30,7,,,,,,,,4.6,584.2748535000137,588.8741119000479,588.8743137400539,0.3051275000325404,589.3221112000174,589.3221112000174,n,0.41257290000794455,593.1425916000153,593.1425916000153,4,2.996,,,,,sub-035,25,45,700,bloc_loop.csv,2023-07-03_16h51.55.962,PainUncertainty,2022.2.5,142.99278179176378,
aigu,forte,stimuli/660Hz,stimuli/forte,bloc_1,prob20hthp_12trials.xlsx,4,48,20,80,0,,,,,0,0,0,0,2,7,31,11,,,,,,,,4.6,593.1425916000153,597.7428781000199,597.7429262400198,0.30535959999542683,598.1873773000552,598.1873773000552,m,0.4791821000399068,600.5097152000526,600.5097152000526,92,1.421,,,,,sub-035,25,45,700,bloc_loop.csv,2023-07-03_16h51.55.962,PainUncertainty,2022.2.5,142.99278179176378,
grave,forte,stimuli/330Hz,stimuli/forte,bloc_1,prob20hthp_12trials.xlsx,4,48,20,80,0,,,,,0,0,0,0,2,8,32,4,,,,,,,,3.1,600.5097152000526,603.6117589000496,603.6118489400193,0.3047565000015311,604.0599001000519,604.0599001000519,m,0.4671432999894023,607.6373056000448,607.6373056000448,95,2.709,,,,,sub-035,25,45,700,bloc_loop.csv,2023-07-03_16h51.55.962,PainUncertainty,2022.2.5,142.99278179176378,
aigu,moderee,stimuli/660Hz,stimuli/moderee,bloc_1,prob20hthp_12trials.xlsx,4,48,20,80,0,,,,,0,0,0,0,2,9,33,10,,,,,,,,3.9,607.6373056000448,611.5364183000056,611.5363991400169,0.3050705000059679,611.9828553000116,611.9828553000116,n,0.427941300033126,614.8598786000512,614.8598786000512,7,2.016,,,,,sub-035,25,45,700,bloc_loop.csv,2023-07-03_16h51.55.962,PainUncertainty,2022.2.5,142.99278179176378,
aigu,moderee,stimuli/660Hz,stimuli/moderee,bloc_1,prob20hthp_12trials.xlsx,4,48,20,80,0,,,,,0,0,0,0,2,10,34,6,,,,,,,,3,614.8598786000512,617.8635230000364,617.8636254400423,0.3052498000324704,618.3126450999989,618.3126450999989,n,0.5009338999516331,621.7293338000309,621.7293338000309,13,2.432,,,,,sub-035,25,45,700,bloc_loop.csv,2023-07-03_16h51.55.962,PainUncertainty,2022.2.5,142.99278179176378,
aigu,moderee,stimuli/660Hz,stimuli/moderee,bloc_1,prob20hthp_12trials.xlsx,4,48,20,80,0,,,,,0,0,0,0,2,11,35,9,,,,,,,,4.1,621.7293338000309,625.8296778000076,625.8297108400089,0.3047965000150725,626.2738629000378,626.2738629000378,n,0.47051070001907647,629.6396200000308,629.6396200000308,11,2.417,,,,,sub-035,25,45,700,bloc_loop.csv,2023-07-03_16h51.55.962,PainUncertainty,2022.2.5,142.99278179176378,
aigu,moderee,stimuli/660Hz,stimuli/moderee,bloc_1,prob20hthp_12trials.xlsx,4,48,20,80,0,,,,,0,0,0,0,3,0,36,10,,,,,,,,3.6,629.6396200000308,633.2402474000119,633.2403527400398,0.30474940000567585,633.6884001000435,633.6884001000435,n,0.5982853000168689,637.6614570000092,637.6614570000092,18,2.961,,,,,sub-035,25,45,700,bloc_loop.csv,2023-07-03_16h51.55.962,PainUncertainty,2022.2.5,142.99278179176378,
grave,forte,stimuli/330Hz,stimuli/forte,bloc_1,prob20hthp_12trials.xlsx,4,48,20,80,0,,,,,0,0,0,0,3,1,37,0,,,,,,,,4.6,637.6614570000092,642.2621197000262,642.2621388400381,0.30522159999236465,642.7063415000448,642.7063415000448,m,0.5651909000007436,646.626604100049,646.626604100049,88,2.94,,,,,sub-035,25,45,700,bloc_loop.csv,2023-07-03_16h51.55.962,PainUncertainty,2022.2.5,142.99278179176378,
grave,forte,stimuli/330Hz,stimuli/forte,bloc_1,prob20hthp_12trials.xlsx,4,48,20,80,0,,,,,0,0,0,0,3,2,38,1,,,,,,,,4.9,646.626604100049,651.5274227000191,651.527918940055,0.30468719999771565,651.9714071000344,651.9714071000344,m,0.5075989000033587,656.2771038000355,656.2771038000355,92,3.739,,,,,sub-035,25,45,700,bloc_loop.csv,2023-07-03_16h51.55.962,PainUncertainty,2022.2.5,142.99278179176378,
aigu,moderee,stimuli/660Hz,stimuli/moderee,bloc_1,prob20hthp_12trials.xlsx,4,48,20,80,0,,,,,0,0,0,0,3,3,39,7,,,,,,,,3.5,656.2771038000355,659.7781061000424,659.7781759400328,0.30513920000521466,660.2222918000189,660.2222918000189,n,0.4534449999919161,662.2853721000138,662.2853721000138,5,1.203,,,,,sub-035,25,45,700,bloc_loop.csv,2023-07-03_16h51.55.962,PainUncertainty,2022.2.5,142.99278179176378,
grave,moderee,stimuli/330Hz,stimuli/moderee,bloc_1,prob20hthp_12trials.xlsx,4,48,20,80,0,,,,,0,0,0,0,3,4,40,5,,,,,,,,3.9,662.2853721000138,666.1889083000133,666.1889270400221,0.3053978999960236,666.6375339000369,666.6375339000369,n,0.6166518999962136,669.3655376000097,669.3655376000097,17,1.675,,,,,sub-035,25,45,700,bloc_loop.csv,2023-07-03_16h51.55.962,PainUncertainty,2022.2.5,142.99278179176378,
aigu,moderee,stimuli/660Hz,stimuli/moderee,bloc_1,prob20hthp_12trials.xlsx,4,48,20,80,0,,,,,0,0,0,0,3,5,41,6,,,,,,,,4.1,669.3655376000097,673.4672180000343,673.4673294400505,0.3050577000249177,673.9113856000477,673.9113856000477,n,0.6679070999962278,678.2810582000529,678.2810582000529,5,3.278,,,,,sub-035,25,45,700,bloc_loop.csv,2023-07-03_16h51.55.962,PainUncertainty,2022.2.5,142.99278179176378,
grave,forte,stimuli/330Hz,stimuli/forte,bloc_1,prob20hthp_12trials.xlsx,4,48,20,80,0,,,,,0,0,0,0,3,6,42,3,,,,,,,,3.1,678.2810582000529,681.3849013000145,681.3848748400284,0.30495799996424466,681.8314007000299,681.8314007000299,m,1.1673061000183225,685.4233841000241,685.4233841000241,92,1.816,,,,,sub-035,25,45,700,bloc_loop.csv,2023-07-03_16h51.55.962,PainUncertainty,2022.2.5,142.99278179176378,
aigu,moderee,stimuli/660Hz,stimuli/moderee,bloc_1,prob20hthp_12trials.xlsx,4,48,20,80,0,,,,,0,0,0,0,3,7,43,9,,,,,,,,4.4,685.4233841000241,689.8236585000413,689.8236220400373,0.30522919999202713,690.2715123000089,690.2715123000089,n,0.46509399998467416,692.6966226000222,692.6966226000222,10,1.523,,,,,sub-035,25,45,700,bloc_loop.csv,2023-07-03_16h51.55.962,PainUncertainty,2022.2.5,142.99278179176378,
aigu,forte,stimuli/660Hz,stimuli/forte,bloc_1,prob20hthp_12trials.xlsx,4,48,20,80,0,,,,,0,0,0,0,3,8,44,11,,,,,,,,3.2,692.6966226000222,695.9009083000128,695.9009112400178,0.30068679997930303,696.3447283999994,696.3447283999994,m,0.5833138999878429,699.0230267000152,699.0230267000152,88,1.682,,,,,sub-035,25,45,700,bloc_loop.csv,2023-07-03_16h51.55.962,PainUncertainty,2022.2.5,142.99278179176378,
grave,forte,stimuli/330Hz,stimuli/forte,bloc_1,prob20hthp_12trials.xlsx,4,48,20,80,0,,,,,0,0,0,0,3,9,45,2,,,,,,,,4,699.0230267000152,703.0266549000517,703.0268312400382,0.3047893999610096,703.4727300000377,703.4727300000377,m,0.6466394999879412,706.1185042000143,706.1185042000143,91,1.591,,,,,sub-035,25,45,700,bloc_loop.csv,2023-07-03_16h51.55.962,PainUncertainty,2022.2.5,142.99278179176378,
grave,forte,stimuli/330Hz,stimuli/forte,bloc_1,prob20hthp_12trials.xlsx,4,48,20,80,0,,,,,0,0,0,0,3,10,46,4,,,,,,,,4.8,706.1185042000143,710.9231349000474,710.9231633400137,0.30499640002381057,711.3672387000406,711.3672387000406,m,0.4510979999904521,713.8050151000498,713.8050151000498,84,1.556,,,,,sub-035,25,45,700,bloc_loop.csv,2023-07-03_16h51.55.962,PainUncertainty,2022.2.5,142.99278179176378,
aigu,moderee,stimuli/660Hz,stimuli/moderee,bloc_1,prob20hthp_12trials.xlsx,4,48,20,80,0,,,,,0,0,0,0,3,11,47,8,,,,,,,,5,713.8050151000498,718.8060224000365,718.8062128400139,0.304985300055705,719.2503093000269,719.2503093000269,n,0.41595769999548793,721.8905004000408,721.8905004000408,9,1.827,,,,,sub-035,25,45,700,bloc_loop.csv,2023-07-03_16h51.55.962,PainUncertainty,2022.2.5,142.99278179176378,
grave,forte,stimuli/330Hz,stimuli/forte,bloc_2,prob50_50_4trials.xlsx,2,8,50,50,1,,,,,0,1,1,1,0,0,0,1,,,,,,,,4.3,721.8905004000408,726.1962449000566,726.1963618400565,0.30601739999838173,726.6451048000017,726.6451048000017,m,0.4049160999711603,728.7446787000517,728.7446787000517,92,1.308,,,,,sub-035,25,45,700,bloc_loop.csv,2023-07-03_16h51.55.962,PainUncertainty,2022.2.5,142.99278179176378,
aigu,forte,stimuli/660Hz,stimuli/forte,bloc_2,prob50_50_4trials.xlsx,2,8,50,50,1,,,,,0,1,1,1,0,1,1,3,,,,,,,,3.8,728.7446787000517,732.5439068000414,732.5440570400038,0.30519420001655817,732.9928702000179,732.9928702000179,m,0.34812440001405776,737.6929066000157,737.6929066000157,88,3.981,,,,,sub-035,25,45,700,bloc_loop.csv,2023-07-03_16h51.55.962,PainUncertainty,2022.2.5,142.99278179176378,
grave,moderee,stimuli/330Hz,stimuli/moderee,bloc_2,prob50_50_4trials.xlsx,2,8,50,50,1,,,,,0,1,1,1,0,2,2,0,,,,,,,,4.2,737.6929066000157,741.892147800012,741.892330240045,0.2996998999733478,742.3372326000244,742.3372326000244,n,0.4951070999959484,744.3242731000064,744.3242731000064,3,1.1,,,,,sub-035,25,45,700,bloc_loop.csv,2023-07-03_16h51.55.962,PainUncertainty,2022.2.5,142.99278179176378,
aigu,moderee,stimuli/660Hz,stimuli/moderee,bloc_2,prob50_50_4trials.xlsx,2,8,50,50,1,,,,,0,1,1,1,0,3,3,2,,,,,,,,3.1,744.3242731000064,747.4273929000483,747.4273579400557,0.305437000002712,747.8717419000459,747.8717419000459,n,0.45125879999250174,751.7085515000508,751.7085515000508,6,2.987,,,,,sub-035,25,45,700,bloc_loop.csv,2023-07-03_16h51.55.962,PainUncertainty,2022.2.5,142.99278179176378,
aigu,moderee,stimuli/660Hz,stimuli/moderee,bloc_2,prob50_50_4trials.xlsx,2,8,50,50,1,,,,,0,1,1,1,1,0,4,2,,,,,,,,4.8,751.7085515000508,756.5121336000157,756.5130251400348,0.30409650004003197,756.9562040000455,756.9562040000455,n,0.3276229999610223,758.7879448000458,758.7879448000458,9,1.087,,,,,sub-035,25,45,700,bloc_loop.csv,2023-07-03_16h51.55.962,PainUncertainty,2022.2.5,142.99278179176378,
grave,forte,stimuli/330Hz,stimuli/forte,bloc_2,prob50_50_4trials.xlsx,2,8,50,50,1,,,,,0,1,1,1,1,1,5,1,,,,,,,,4.5,758.7879448000458,763.290420400037,763.2905792400067,0.3050679999869317,763.7346338000498,763.7346338000498,m,0.4035742999985814,769.3665960000362,769.3665960000362,88,4.835,,,,,sub-035,25,45,700,bloc_loop.csv,2023-07-03_16h51.55.962,PainUncertainty,2022.2.5,142.99278179176378,
aigu,forte,stimuli/660Hz,stimuli/forte,bloc_2,prob50_50_4trials.xlsx,2,8,50,50,1,,,,,0,1,1,1,1,2,6,3,,,,,,,,3.1,769.3665960000362,772.4655017000041,772.4680095400487,0.3029219000018202,772.9165021000081,772.9165021000081,m,0.4879124000435695,775.1170583000057,775.1170583000057,94,1.337,,,,,sub-035,25,45,700,bloc_loop.csv,2023-07-03_16h51.55.962,PainUncertainty,2022.2.5,142.99278179176378,
grave,moderee,stimuli/330Hz,stimuli/moderee,bloc_2,prob50_50_4trials.xlsx,2,8,50,50,1,,,,,0,1,1,1,1,3,7,0,,,,,,,,4.8,775.1170583000057,779.9178812000318,779.9180196400208,0.3047299000318162,780.3618808000465,780.3618808000465,n,0.44075949996476993,784.6578278000234,784.6578278000234,3,1.495,,,,,sub-035,25,45,700,bloc_loop.csv,2023-07-03_16h51.55.962,PainUncertainty,2022.2.5,142.99278179176378,
,,,,bloc_2,prob50_50_4trials.xlsx,2,8,50,50,1,,,,,0,1,1,1,,,,,0,0,0,0,,,,,,,,,,,,,,,,,784.6578278000234,846.8142501000548,,,sub-035,25,45,700,bloc_loop.csv,2023-07-03_16h51.55.962,PainUncertainty,2022.2.5,142.99278179176378,
aigu,moderee,stimuli/660Hz,stimuli/moderee,bloc_3,prob80hthp_12trials.xlsx,2,24,80,20,0,,,,,0,2,2,2,0,0,0,11,,,,,,,,4,847.938208000036,851.9400210000458,851.9399296400312,0.30503639997914433,852.3841920000268,852.3841920000268,n,0.4994200000073761,855.1924357000389,855.1924357000389,6,1.863,,,,,sub-035,25,45,700,bloc_loop.csv,2023-07-03_16h51.55.962,PainUncertainty,2022.2.5,142.99278179176378,
grave,moderee,stimuli/330Hz,stimuli/moderee,bloc_3,prob80hthp_12trials.xlsx,2,24,80,20,0,,,,,0,2,2,2,0,1,1,4,,,,,,,,4.5,855.1924357000389,859.6981862000539,859.698329940025,0.30474859999958426,860.1422261000262,860.1422261000262,n,0.5135069999960251,864.3631085000234,864.3631085000234,10,3.258,,,,,sub-035,25,45,700,bloc_loop.csv,2023-07-03_16h51.55.962,PainUncertainty,2022.2.5,142.99278179176378,
grave,moderee,stimuli/330Hz,stimuli/moderee,bloc_3,prob80hthp_12trials.xlsx,2,24,80,20,0,,,,,0,2,2,2,0,2,2,1,,,,,,,,4.2,864.3631085000234,868.5669084000401,868.5671501400008,0.30494599998928607,869.0135884000338,869.0135884000338,n,0.684686699998565,871.5383763000136,871.5383763000136,16,1.348,,,,,sub-035,25,45,700,bloc_loop.csv,2023-07-03_16h51.55.962,PainUncertainty,2022.2.5,142.99278179176378,
grave,moderee,stimuli/330Hz,stimuli/moderee,bloc_3,prob80hthp_12trials.xlsx,2,24,80,20,0,,,,,0,2,2,2,0,3,3,0,,,,,,,,4.4,871.5383763000136,875.9427738000522,875.942808640009,0.2994814999983646,876.3857881000149,876.3857881000149,n,0.7968798000365496,878.840857400035,878.840857400035,16,1.147,,,,,sub-035,25,45,700,bloc_loop.csv,2023-07-03_16h51.55.962,PainUncertainty,2022.2.5,142.99278179176378,
aigu,forte,stimuli/660Hz,stimuli/forte,bloc_3,prob80hthp_12trials.xlsx,2,24,80,20,0,,,,,0,2,2,2,0,4,4,8,,,,,,,,4.3,878.840857400035,883.1450279000564,883.1449784400116,0.3059874000027776,883.5924978000112,883.5924978000112,m,0.47931260004406795,886.6084574999986,886.6084574999986,85,2.064,,,,,sub-035,25,45,700,bloc_loop.csv,2023-07-03_16h51.55.962,PainUncertainty,2022.2.5,142.99278179176378,
grave,moderee,stimuli/330Hz,stimuli/moderee,bloc_3,prob80hthp_12trials.xlsx,2,24,80,20,0,,,,,0,2,2,2,0,5,5,3,,,,,,,,4.5,886.6084574999986,891.1111792000011,891.1112626400369,0.3052559000207111,891.5556911000167,891.5556911000167,n,0.4571443000459112,894.9172663000063,894.9172663000063,11,2.46,,,,,sub-035,25,45,700,bloc_loop.csv,2023-07-03_16h51.55.962,PainUncertainty,2022.2.5,142.99278179176378,
aigu,forte,stimuli/660Hz,stimuli/forte,bloc_3,prob80hthp_12trials.xlsx,2,24,80,20,0,,,,,0,2,2,2,0,6,6,7,,,,,,,,4.2,894.9172663000063,899.1192619000212,899.1193684400001,0.3022840000339784,899.5647425000207,899.5647425000207,m,0.40650039998581633,901.4209231000277,901.4209231000277,88,1.044,,,,,sub-035,25,45,700,bloc_loop.csv,2023-07-03_16h51.55.962,PainUncertainty,2022.2.5,142.99278179176378,
aigu,forte,stimuli/660Hz,stimuli/forte,bloc_3,prob80hthp_12trials.xlsx,2,24,80,20,0,,,,,0,2,2,2,0,7,7,9,,,,,,,,3.1,901.4209231000277,904.5225014000316,904.5225781400164,0.3051040000282228,904.9667362000328,904.9667362000328,m,0.44466699997428805,907.5734149000491,907.5734149000491,90,1.772,,,,,sub-035,25,45,700,bloc_loop.csv,2023-07-03_16h51.55.962,PainUncertainty,2022.2.5,142.99278179176378,
aigu,forte,stimuli/660Hz,stimuli/forte,bloc_3,prob80hthp_12trials.xlsx,2,24,80,20,0,,,,,0,2,2,2,0,8,8,6,,,,,,,,3,907.5734149000491,910.5723190000281,910.5724869400088,0.30496550002135336,911.0197126000421,911.0197126000421,m,0.4726238999865018,915.6922581000254,915.6922581000254,86,3.779,,,,,sub-035,25,45,700,bloc_loop.csv,2023-07-03_16h51.55.962,PainUncertainty,2022.2.5,142.99278179176378,
grave,moderee,stimuli/330Hz,stimuli/moderee,bloc_3,prob80hthp_12trials.xlsx,2,24,80,20,0,,,,,0,2,2,2,0,9,9,2,,,,,,,,3.7,915.6922581000254,919.3924173000269,919.3925133400422,0.3001869000145234,919.8371629000176,919.8371629000176,n,0.4355142000131309,924.527261900017,924.527261900017,9,3.877,,,,,sub-035,25,45,700,bloc_loop.csv,2023-07-03_16h51.55.962,PainUncertainty,2022.2.5,142.99278179176378,
aigu,forte,stimuli/660Hz,stimuli/forte,bloc_3,prob80hthp_12trials.xlsx,2,24,80,20,0,,,,,0,2,2,2,0,10,10,10,,,,,,,,5,924.527261900017,929.5330168000073,929.5329434400134,0.2997345000039786,929.9774265000015,929.9774265000015,m,0.3970514999818988,934.0834044000367,934.0834044000367,91,3.217,,,,,sub-035,25,45,700,bloc_loop.csv,2023-07-03_16h51.55.962,PainUncertainty,2022.2.5,142.99278179176378,
grave,forte,stimuli/330Hz,stimuli/forte,bloc_3,prob80hthp_12trials.xlsx,2,24,80,20,0,,,,,0,2,2,2,0,11,11,5,,,,,,,,4.2,934.0834044000367,938.2836127000046,938.2835652400332,0.30493480002041906,938.727841200016,938.727841200016,m,0.4108715000329539,940.8747238000506,940.8747238000506,92,1.348,,,,,sub-035,25,45,700,bloc_loop.csv,2023-07-03_16h51.55.962,PainUncertainty,2022.2.5,142.99278179176378,
aigu,forte,stimuli/660Hz,stimuli/forte,bloc_3,prob80hthp_12trials.xlsx,2,24,80,20,0,,,,,0,2,2,2,1,0,12,6,,,,,,,,3.2,940.8747238000506,944.0758408000111,944.0759155400389,0.3050306999939494,944.5201196000562,944.5201196000562,m,0.43676070001674816,947.7139687000308,947.7139687000308,86,2.29,,,,,sub-035,25,45,700,bloc_loop.csv,2023-07-03_16h51.55.962,PainUncertainty,2022.2.5,142.99278179176378,
grave,moderee,stimuli/330Hz,stimuli/moderee,bloc_3,prob80hthp_12trials.xlsx,2,24,80,20,0,,,,,0,2,2,2,1,1,13,2,,,,,,,,4.5,947.7139687000308,952.2157334000221,952.2157394400507,0.3045916000264697,952.6598919000244,952.6598919000244,n,0.37884349998785183,956.1047252000426,956.1047252000426,9,2.61,,,,,sub-035,25,45,700,bloc_loop.csv,2023-07-03_16h51.55.962,PainUncertainty,2022.2.5,142.99278179176378,
aigu,forte,stimuli/660Hz,stimuli/forte,bloc_3,prob80hthp_12trials.xlsx,2,24,80,20,0,,,,,0,2,2,2,1,2,14,9,,,,,,,,3,956.1047252000426,959.1060789000476,959.1069204400352,0.3035176999983378,959.5569899000111,959.5569899000111,m,0.3754583999980241,961.9838693000493,961.9838693000493,85,1.585,,,,,sub-035,25,45,700,bloc_loop.csv,2023-07-03_16h51.55.962,PainUncertainty,2022.2.5,142.99278179176378,
aigu,forte,stimuli/660Hz,stimuli/forte,bloc_3,prob80hthp_12trials.xlsx,2,24,80,20,0,,,,,0,2,2,2,1,3,15,7,,,,,,,,3.2,961.9838693000493,965.1895839000354,965.1896625400346,0.30487200000789016,965.6338196000434,965.6338196000434,m,0.43972339999163523,969.1926608000067,969.1926608000067,91,2.704,,,,,sub-035,25,45,700,bloc_loop.csv,2023-07-03_16h51.55.962,PainUncertainty,2022.2.5,142.99278179176378,
aigu,forte,stimuli/660Hz,stimuli/forte,bloc_3,prob80hthp_12trials.xlsx,2,24,80,20,0,,,,,0,2,2,2,1,4,16,8,,,,,,,,4.7,969.1926608000067,973.8919692000491,973.892028040014,0.3047660000156611,974.3363057000097,974.3363057000097,None,,980.6978422000539,980.6978422000539,50,3.404,,,976.8056951000472,976.8056951000472,sub-035,25,45,700,bloc_loop.csv,2023-07-03_16h51.55.962,PainUncertainty,2022.2.5,142.99278179176378,
aigu,forte,stimuli/660Hz,stimuli/forte,bloc_3,prob80hthp_12trials.xlsx,2,24,80,20,0,,,,,0,2,2,2,1,5,17,10,,,,,,,,4,980.6978422000539,984.6989500000491,984.6989410400216,0.3051407999591902,985.1433479000116,985.1433479000116,m,0.4598611000110395,987.4556408000062,987.4556408000062,87,1.458,,,,,sub-035,25,45,700,bloc_loop.csv,2023-07-03_16h51.55.962,PainUncertainty,2022.2.5,142.99278179176378,
grave,moderee,stimuli/330Hz,stimuli/moderee,bloc_3,prob80hthp_12trials.xlsx,2,24,80,20,0,,,,,0,2,2,2,1,6,18,4,,,,,,,,3.5,987.4556408000062,990.9569393000565,990.9567909400154,0.3050769000547007,991.4013684000238,991.4013684000238,n,0.46528679999755695,993.81542670005,993.81542670005,14,1.565,,,,,sub-035,25,45,700,bloc_loop.csv,2023-07-03_16h51.55.962,PainUncertainty,2022.2.5,142.99278179176378,
grave,moderee,stimuli/330Hz,stimuli/moderee,bloc_3,prob80hthp_12trials.xlsx,2,24,80,20,0,,,,,0,2,2,2,1,7,19,1,,,,,,,,4.3,993.81542670005,998.1170920000295,998.117097640055,0.3052615000051446,998.5613325000159,998.5613325000159,n,0.4834603000199422,1001.7434047000133,1001.7434047000133,9,2.28,,,,,sub-035,25,45,700,bloc_loop.csv,2023-07-03_16h51.55.962,PainUncertainty,2022.2.5,142.99278179176378,
grave,moderee,stimuli/330Hz,stimuli/moderee,bloc_3,prob80hthp_12trials.xlsx,2,24,80,20,0,,,,,0,2,2,2,1,8,20,3,,,,,,,,4.3,1001.7434047000133,1006.0484847000334,1006.0485355400539,0.3052023999625817,1006.4926883000298,1006.4926883000298,n,0.5498454000335187,1010.4027082000393,1010.4027082000393,18,3.001,,,,,sub-035,25,45,700,bloc_loop.csv,2023-07-03_16h51.55.962,PainUncertainty,2022.2.5,142.99278179176378,
aigu,moderee,stimuli/660Hz,stimuli/moderee,bloc_3,prob80hthp_12trials.xlsx,2,24,80,20,0,,,,,0,2,2,2,1,9,21,11,,,,,,,,3.9,1010.4027082000393,1014.3064511000412,1014.3066275400284,0.305072300019674,1014.750880800013,1014.750880800013,n,0.5438160999910906,1018.5379074000521,1018.5379074000521,15,2.849,,,,,sub-035,25,45,700,bloc_loop.csv,2023-07-03_16h51.55.962,PainUncertainty,2022.2.5,142.99278179176378,
grave,moderee,stimuli/330Hz,stimuli/moderee,bloc_3,prob80hthp_12trials.xlsx,2,24,80,20,0,,,,,0,2,2,2,1,10,22,0,,,,,,,,3.9,1018.5379074000521,1022.4393516000127,1022.4393996400119,0.3050741000333801,1022.887477900018,1022.887477900018,n,0.6982911000377499,1026.478285900026,1026.478285900026,19,2.53,,,,,sub-035,25,45,700,bloc_loop.csv,2023-07-03_16h51.55.962,PainUncertainty,2022.2.5,142.99278179176378,
grave,forte,stimuli/330Hz,stimuli/forte,bloc_3,prob80hthp_12trials.xlsx,2,24,80,20,0,,,,,0,2,2,2,1,11,23,5,,,,,,,,4.9,1026.478285900026,1031.3781006000354,1031.3781588400539,0.3048348000156693,1031.8222999999998,1031.8222999999998,m,0.45823639997979626,1034.675844100013,1034.675844100013,83,1.96,,,,,sub-035,25,45,700,bloc_loop.csv,2023-07-03_16h51.55.962,PainUncertainty,2022.2.5,142.99278179176378,
grave,forte,stimuli/330Hz,stimuli/forte,bloc_4,prob50_50_4trials.xlsx,2,8,50,50,1,,,,,0,3,3,3,0,0,0,1,,,,,,,,3.2,1034.675844100013,1037.8788246000186,1037.8787561400036,0.30500220000976697,1038.327301900019,1038.327301900019,m,0.4148078000289388,1041.1653409000137,1041.1653409000137,83,1.981,,,,,sub-035,25,45,700,bloc_loop.csv,2023-07-03_16h51.55.962,PainUncertainty,2022.2.5,142.99278179176378,
aigu,moderee,stimuli/660Hz,stimuli/moderee,bloc_4,prob50_50_4trials.xlsx,2,8,50,50,1,,,,,0,3,3,3,0,1,1,2,,,,,,,,4,1041.1653409000137,1045.1645476000267,1045.1646348400332,0.304933900013566,1045.608466500009,1045.608466500009,n,0.3977689000312239,1048.7393825000036,1048.7393825000036,5,2.313,,,,,sub-035,25,45,700,bloc_loop.csv,2023-07-03_16h51.55.962,PainUncertainty,2022.2.5,142.99278179176378,
aigu,forte,stimuli/660Hz,stimuli/forte,bloc_4,prob50_50_4trials.xlsx,2,8,50,50,1,,,,,0,3,3,3,0,2,2,3,,,,,,,,4.9,1048.7393825000036,1053.6444293000386,1053.6447310400486,0.30502810003235936,1054.0959147000103,1054.0959147000103,m,0.4034480999689549,1056.4890264000278,1056.4890264000278,88,1.584,,,,,sub-035,25,45,700,bloc_loop.csv,2023-07-03_16h51.55.962,PainUncertainty,2022.2.5,142.99278179176378,
grave,moderee,stimuli/330Hz,stimuli/moderee,bloc_4,prob50_50_4trials.xlsx,2,8,50,50,1,,,,,0,3,3,3,0,3,3,0,,,,,,,,4.1,1056.4890264000278,1060.5898330000346,1060.5897547400032,0.30499989999225363,1061.034048100002,1061.034048100002,n,0.6203449999447912,1063.9360262000118,1063.9360262000118,17,1.89,,,,,sub-035,25,45,700,bloc_loop.csv,2023-07-03_16h51.55.962,PainUncertainty,2022.2.5,142.99278179176378,
grave,forte,stimuli/330Hz,stimuli/forte,bloc_4,prob50_50_4trials.xlsx,2,8,50,50,1,,,,,0,3,3,3,1,0,4,1,,,,,,,,3,1063.9360262000118,1066.9376837000018,1066.9378011400054,0.30051849997835234,1067.3822954000207,1067.3822954000207,m,0.33897139999317005,1070.4881049000542,1070.4881049000542,89,2.385,,,,,sub-035,25,45,700,bloc_loop.csv,2023-07-03_16h51.55.962,PainUncertainty,2022.2.5,142.99278179176378,
aigu,forte,stimuli/660Hz,stimuli/forte,bloc_4,prob50_50_4trials.xlsx,2,8,50,50,1,,,,,0,3,3,3,1,1,5,3,,,,,,,,3.4,1070.4881049000542,1073.8899207000504,1073.8899399400048,0.30505849997280166,1074.334380300017,1074.334380300017,m,0.3597075000288896,1076.7498698000563,1076.7498698000563,88,1.684,,,,,sub-035,25,45,700,bloc_loop.csv,2023-07-03_16h51.55.962,PainUncertainty,2022.2.5,142.99278179176378,
aigu,moderee,stimuli/660Hz,stimuli/moderee,bloc_4,prob50_50_4trials.xlsx,2,8,50,50,1,,,,,0,3,3,3,1,2,6,2,,,,,,,,4.7,1076.7498698000563,1081.4535169000155,1081.4535364400303,0.30499260005308315,1081.8978375000297,1081.8978375000297,n,0.37280770001234487,1084.8671607000288,1084.8671607000288,6,2.238,,,,,sub-035,25,45,700,bloc_loop.csv,2023-07-03_16h51.55.962,PainUncertainty,2022.2.5,142.99278179176378,
grave,moderee,stimuli/330Hz,stimuli/moderee,bloc_4,prob50_50_4trials.xlsx,2,8,50,50,1,,,,,0,3,3,3,1,3,7,0,,,,,,,,4,1084.8671607000288,1088.871397000039,1088.871442540019,0.30488319997675717,1089.3195494000101,1089.3195494000101,n,0.7432475000387058,1094.1593655000324,1094.1593655000324,12,1.703,,,,,sub-035,25,45,700,bloc_loop.csv,2023-07-03_16h51.55.962,PainUncertainty,2022.2.5,142.99278179176378,
,,,,bloc_4,prob50_50_4trials.xlsx,2,8,50,50,1,,,,,0,3,3,3,,,,,0,0,0,0,,,,,,,,,,,,,,,,,1094.1593655000324,1140.7938250000007,,,sub-035,25,45,700,bloc_loop.csv,2023-07-03_16h51.55.962,PainUncertainty,2022.2.5,142.99278179176378,
grave,forte,stimuli/330Hz,stimuli/forte,bloc_5,prob20hthp_12trials.xlsx,2,24,20,80,0,,,,,0,4,4,4,0,0,0,4,,,,,,,,3.4,1141.8538204000215,1145.2530632000417,1145.252964740031,0.3051510999794118,1145.7006951000076,1145.7006951000076,m,0.3804122000001371,1148.2277327000047,1148.2277327000047,81,1.557,,,,,sub-035,25,45,700,bloc_loop.csv,2023-07-03_16h51.55.962,PainUncertainty,2022.2.5,142.99278179176378,
grave,forte,stimuli/330Hz,stimuli/forte,bloc_5,prob20hthp_12trials.xlsx,2,24,20,80,0,,,,,0,4,4,4,0,1,1,2,,,,,,,,3.7,1148.2277327000047,1151.927025800047,1151.9270805400388,0.30521419999422505,1152.3717983000097,1152.3717983000097,m,0.356124899990391,1155.3546774000279,1155.3546774000279,81,2.215,,,,,sub-035,25,45,700,bloc_loop.csv,2023-07-03_16h51.55.962,PainUncertainty,2022.2.5,142.99278179176378,
aigu,moderee,stimuli/660Hz,stimuli/moderee,bloc_5,prob20hthp_12trials.xlsx,2,24,20,80,0,,,,,0,4,4,4,0,2,2,7,,,,,,,,4.3,1155.3546774000279,1159.6574937000405,1159.6575056400557,0.3050795000162907,1160.1037623000448,1160.1037623000448,n,0.4570430999738164,1162.6414019000367,1162.6414019000367,11,1.634,,,,,sub-035,25,45,700,bloc_loop.csv,2023-07-03_16h51.55.962,PainUncertainty,2022.2.5,142.99278179176378,
aigu,forte,stimuli/660Hz,stimuli/forte,bloc_5,prob20hthp_12trials.xlsx,2,24,20,80,0,,,,,0,4,4,4,0,3,3,11,,,,,,,,4.1,1162.6414019000367,1166.7412825000356,1166.741394240054,0.30102710000937805,1167.185878200049,1167.185878200049,m,0.32697359996382147,1170.2942210000474,1170.2942210000474,79,2.411,,,,,sub-035,25,45,700,bloc_loop.csv,2023-07-03_16h51.55.962,PainUncertainty,2022.2.5,142.99278179176378,
aigu,moderee,stimuli/660Hz,stimuli/moderee,bloc_5,prob20hthp_12trials.xlsx,2,24,20,80,0,,,,,0,4,4,4,0,4,4,9,,,,,,,,3,1170.2942210000474,1173.2976914000465,1173.2977129400183,0.30651389999547973,1173.7460258000065,1173.7460258000065,n,0.39435919997049496,1176.8307953000185,1176.8307953000185,9,2.313,,,,,sub-035,25,45,700,bloc_loop.csv,2023-07-03_16h51.55.962,PainUncertainty,2022.2.5,142.99278179176378,
grave,moderee,stimuli/330Hz,stimuli/moderee,bloc_5,prob20hthp_12trials.xlsx,2,24,20,80,0,,,,,0,4,4,4,0,5,5,5,,,,,,,,3.9,1176.8307953000185,1180.7363286000327,1180.7366466400504,0.304937599983532,1181.1848734000232,1181.1848734000232,n,0.44834659999469295,1184.884814900055,1184.884814900055,10,2.78,,,,,sub-035,25,45,700,bloc_loop.csv,2023-07-03_16h51.55.962,PainUncertainty,2022.2.5,142.99278179176378,
aigu,moderee,stimuli/660Hz,stimuli/moderee,bloc_5,prob20hthp_12trials.xlsx,2,24,20,80,0,,,,,0,4,4,4,0,6,6,8,,,,,,,,3.2,1184.884814900055,1188.0842538000434,1188.0842351400001,0.305041000014171,1188.5320405000239,1188.5320405000239,n,0.4113475999911316,1190.6845574000035,1190.6845574000035,8,1.329,,,,,sub-035,25,45,700,bloc_loop.csv,2023-07-03_16h51.55.962,PainUncertainty,2022.2.5,142.99278179176378,
grave,forte,stimuli/330Hz,stimuli/forte,bloc_5,prob20hthp_12trials.xlsx,2,24,20,80,0,,,,,0,4,4,4,0,7,7,0,,,,,,,,4.5,1190.6845574000035,1195.1894998000353,1195.1892598400532,0.3055251999758184,1195.6374394000159,1195.6374394000159,m,0.3744336999952793,1198.4344991000253,1198.4344991000253,80,2.037,,,,,sub-035,25,45,700,bloc_loop.csv,2023-07-03_16h51.55.962,PainUncertainty,2022.2.5,142.99278179176378,
grave,forte,stimuli/330Hz,stimuli/forte,bloc_5,prob20hthp_12trials.xlsx,2,24,20,80,0,,,,,0,4,4,4,0,8,8,1,,,,,,,,4.6,1198.4344991000253,1203.0372495000483,1203.037325040024,0.30493189999833703,1203.4815115000238,1203.4815115000238,m,0.42959559999872,1207.0169981000363,1207.0169981000363,86,2.716,,,,,sub-035,25,45,700,bloc_loop.csv,2023-07-03_16h51.55.962,PainUncertainty,2022.2.5,142.99278179176378,
aigu,moderee,stimuli/660Hz,stimuli/moderee,bloc_5,prob20hthp_12trials.xlsx,2,24,20,80,0,,,,,0,4,4,4,0,9,9,6,,,,,,,,4.1,1207.0169981000363,1211.1216651000432,1211.1218116400355,0.3004639000282623,1211.5661850000033,1211.5661850000033,n,0.36406210000859573,1213.806809300033,1213.806809300033,6,1.466,,,,,sub-035,25,45,700,bloc_loop.csv,2023-07-03_16h51.55.962,PainUncertainty,2022.2.5,142.99278179176378,
aigu,moderee,stimuli/660Hz,stimuli/moderee,bloc_5,prob20hthp_12trials.xlsx,2,24,20,80,0,,,,,0,4,4,4,0,10,10,10,,,,,,,,3,1213.806809300033,1216.809881400026,1216.8099499400064,0.3048360999673605,1217.2540086000226,1217.2540086000226,n,0.41136379999807104,1220.437881000049,1220.437881000049,11,2.423,,,,,sub-035,25,45,700,bloc_loop.csv,2023-07-03_16h51.55.962,PainUncertainty,2022.2.5,142.99278179176378,
grave,forte,stimuli/330Hz,stimuli/forte,bloc_5,prob20hthp_12trials.xlsx,2,24,20,80,0,,,,,0,4,4,4,0,11,11,3,,,,,,,,3.1,1220.437881000049,1223.5397640000447,1223.539918440039,0.29982319998089224,1223.9848777000443,1223.9848777000443,m,0.37318679998861626,1226.3024483000045,1226.3024483000045,83,1.579,,,,,sub-035,25,45,700,bloc_loop.csv,2023-07-03_16h51.55.962,PainUncertainty,2022.2.5,142.99278179176378,
aigu,moderee,stimuli/660Hz,stimuli/moderee,bloc_5,prob20hthp_12trials.xlsx,2,24,20,80,0,,,,,0,4,4,4,1,0,12,9,,,,,,,,4.9,1226.3024483000045,1231.2095145000494,1231.2078656400495,0.3051145999925211,1231.65424980002,1231.65424980002,n,0.3389162000385113,1233.2217288000393,1233.2217288000393,11,0.843,,,,,sub-035,25,45,700,bloc_loop.csv,2023-07-03_16h51.55.962,PainUncertainty,2022.2.5,142.99278179176378,
grave,moderee,stimuli/330Hz,stimuli/moderee,bloc_5,prob20hthp_12trials.xlsx,2,24,20,80,0,,,,,0,4,4,4,1,1,13,5,,,,,,,,4.6,1233.2217288000393,1237.8262391000171,1237.8262700400023,0.30504250002559274,1238.2747989000054,1238.2747989000054,n,0.5515475999563932,1240.2520668000216,1240.2520668000216,10,1.065,,,,,sub-035,25,45,700,bloc_loop.csv,2023-07-03_16h51.55.962,PainUncertainty,2022.2.5,142.99278179176378,
grave,forte,stimuli/330Hz,stimuli/forte,bloc_5,prob20hthp_12trials.xlsx,2,24,20,80,0,,,,,0,4,4,4,1,2,14,0,,,,,,,,3.3,1240.2520668000216,1243.5561201000237,1243.5560985400166,0.3050940000102855,1244.0001970000449,1244.0001970000449,m,0.40372020000359043,1247.2036226000055,1247.2036226000055,88,2.404,,,,,sub-035,25,45,700,bloc_loop.csv,2023-07-03_16h51.55.962,PainUncertainty,2022.2.5,142.99278179176378,
grave,forte,stimuli/330Hz,stimuli/forte,bloc_5,prob20hthp_12trials.xlsx,2,24,20,80,0,,,,,0,4,4,4,1,3,15,1,,,,,,,,4.9,1247.2036226000055,1252.1060860000434,1252.1060311400156,0.30522979999659583,1252.5539540000027,1252.5539540000027,m,0.40363689995137975,1254.3302017000387,1254.3302017000387,91,1.022,,,,,sub-035,25,45,700,bloc_loop.csv,2023-07-03_16h51.55.962,PainUncertainty,2022.2.5,142.99278179176378,
grave,forte,stimuli/330Hz,stimuli/forte,bloc_5,prob20hthp_12trials.xlsx,2,24,20,80,0,,,,,0,4,4,4,1,4,16,3,,,,,,,,3.6,1254.3302017000387,1257.9326886000345,1257.9327812400238,0.30500469997059554,1258.3768940000446,1258.3768940000446,m,0.31008140003541484,1259.843732700043,1259.843732700043,89,0.813,,,,,sub-035,25,45,700,bloc_loop.csv,2023-07-03_16h51.55.962,PainUncertainty,2022.2.5,142.99278179176378,
aigu,forte,stimuli/660Hz,stimuli/forte,bloc_5,prob20hthp_12trials.xlsx,2,24,20,80,0,,,,,0,4,4,4,1,5,17,11,,,,,,,,3.2,1259.843732700043,1263.0448700000416,1263.045951540052,0.30004429997643456,1263.4890994000016,1263.4890994000016,m,0.41598559997510165,1266.699716800009,1266.699716800009,89,2.738,,,,,sub-035,25,45,700,bloc_loop.csv,2023-07-03_16h51.55.962,PainUncertainty,2022.2.5,142.99278179176378,
aigu,moderee,stimuli/660Hz,stimuli/moderee,bloc_5,prob20hthp_12trials.xlsx,2,24,20,80,0,,,,,0,4,4,4,1,6,18,8,,,,,,,,3.7,1266.699716800009,1270.3994855000055,1270.3995334400038,0.30496199999470264,1270.8436341000488,1270.8436341000488,n,0.44880000001285225,1272.9958454000298,1272.9958454000298,7,1.28,,,,,sub-035,25,45,700,bloc_loop.csv,2023-07-03_16h51.55.962,PainUncertainty,2022.2.5,142.99278179176378,
aigu,moderee,stimuli/660Hz,stimuli/moderee,bloc_5,prob20hthp_12trials.xlsx,2,24,20,80,0,,,,,0,4,4,4,1,7,19,10,,,,,,,,4.5,1272.9958454000298,1277.4979731000494,1277.4978468400018,0.30500240001128986,1277.9417519000126,1277.9417519000126,n,0.5090285000042059,1281.6088671000325,1281.6088671000325,7,2.771,,,,,sub-035,25,45,700,bloc_loop.csv,2023-07-03_16h51.55.962,PainUncertainty,2022.2.5,142.99278179176378,
aigu,moderee,stimuli/660Hz,stimuli/moderee,bloc_5,prob20hthp_12trials.xlsx,2,24,20,80,0,,,,,0,4,4,4,1,8,20,7,,,,,,,,3.3,1281.6088671000325,1284.9086625000346,1284.908649440034,0.30497950001154095,1285.3526517000282,1285.3526517000282,n,0.5168382999836467,1288.2545428000158,1288.2545428000158,6,2.028,,,,,sub-035,25,45,700,bloc_loop.csv,2023-07-03_16h51.55.962,PainUncertainty,2022.2.5,142.99278179176378,
grave,forte,stimuli/330Hz,stimuli/forte,bloc_5,prob20hthp_12trials.xlsx,2,24,20,80,0,,,,,0,4,4,4,1,9,21,4,,,,,,,,3.5,1288.2545428000158,1291.7562305000029,1291.756266540027,0.3052494000294246,1292.2009848000016,1292.2009848000016,m,1.0079982999595813,1294.9352102000266,1294.9352102000266,85,1.356,,,,,sub-035,25,45,700,bloc_loop.csv,2023-07-03_16h51.55.962,PainUncertainty,2022.2.5,142.99278179176378,
aigu,moderee,stimuli/660Hz,stimuli/moderee,bloc_5,prob20hthp_12trials.xlsx,2,24,20,80,0,,,,,0,4,4,4,1,10,22,6,,,,,,,,3.8,1294.9352102000266,1298.7360998000368,1298.73613944003,0.30565569997997954,1299.1843628000352,1299.1843628000352,n,0.44766649999655783,1302.9418321000412,1302.9418321000412,9,2.919,,,,,sub-035,25,45,700,bloc_loop.csv,2023-07-03_16h51.55.962,PainUncertainty,2022.2.5,142.99278179176378,
grave,forte,stimuli/330Hz,stimuli/forte,bloc_5,prob20hthp_12trials.xlsx,2,24,20,80,0,,,,,0,4,4,4,1,11,23,2,,,,,,,,3.2,1302.9418321000412,1306.1468600000371,1306.1469339400005,0.29911599995102733,1306.5847295000567,1306.5847295000567,m,0.49164689995814115,1310.403481800051,1310.403481800051,89,2.886,,,,,sub-035,25,45,700,bloc_loop.csv,2023-07-03_16h51.55.962,PainUncertainty,2022.2.5,142.99278179176378,
grave,moderee,stimuli/330Hz,stimuli/moderee,bloc_6,prob50_50_4trials.xlsx,2,8,50,50,0,,,,,0,5,5,5,0,0,0,0,,,,,,,,4.5,1310.403481800051,1314.9053090000525,1314.9052061400084,0.3049532999866642,1315.3494506000425,1315.3494506000425,n,0.47180420003132895,1318.0251366000157,1318.0251366000157,10,1.814,,,,,sub-035,25,45,700,bloc_loop.csv,2023-07-03_16h51.55.962,PainUncertainty,2022.2.5,142.99278179176378,
aigu,forte,stimuli/660Hz,stimuli/forte,bloc_6,prob50_50_4trials.xlsx,2,8,50,50,0,,,,,0,5,5,5,0,1,1,3,,,,,,,,3.9,1318.0251366000157,1321.9271569000557,1321.9271731400454,0.2995958999963477,1322.372596900037,1322.372596900037,m,0.21811279997928068,1324.5768461000407,1324.5768461000407,86,1.544,,,,,sub-035,25,45,700,bloc_loop.csv,2023-07-03_16h51.55.962,PainUncertainty,2022.2.5,142.99278179176378,
aigu,moderee,stimuli/660Hz,stimuli/moderee,bloc_6,prob50_50_4trials.xlsx,2,8,50,50,0,,,,,0,5,5,5,0,2,2,2,,,,,,,,4.9,1324.5768461000407,1329.4763351000147,1329.4768738400248,0.30647839995799586,1329.927908600017,1329.927908600017,m,0.2063507999991998,1332.1843038000516,1332.1843038000516,15,1.642,,,,,sub-035,25,45,700,bloc_loop.csv,2023-07-03_16h51.55.962,PainUncertainty,2022.2.5,142.99278179176378,
grave,forte,stimuli/330Hz,stimuli/forte,bloc_6,prob50_50_4trials.xlsx,2,8,50,50,0,,,,,0,5,5,5,0,3,3,1,,,,,,,,3.7,1332.1843038000516,1335.8870374000398,1335.8870394400378,0.3052245000144467,1336.3337787000346,1336.3337787000346,m,0.24356020003324375,1338.0953199000214,1338.0953199000214,87,1.127,,,,,sub-035,25,45,700,bloc_loop.csv,2023-07-03_16h51.55.962,PainUncertainty,2022.2.5,142.99278179176378,
aigu,forte,stimuli/660Hz,stimuli/forte,bloc_6,prob50_50_4trials.xlsx,2,8,50,50,0,,,,,0,5,5,5,1,0,4,3,,,,,,,,4.4,1338.0953199000214,1342.4989994000061,1342.4998137400194,0.303848699957598,1342.9429455000209,1342.9429455000209,m,0.3447090000263415,1344.8866885000025,1344.8866885000025,87,1.196,,,,,sub-035,25,45,700,bloc_loop.csv,2023-07-03_16h51.55.962,PainUncertainty,2022.2.5,142.99278179176378,
grave,moderee,stimuli/330Hz,stimuli/moderee,bloc_6,prob50_50_4trials.xlsx,2,8,50,50,0,,,,,0,5,5,5,1,1,5,0,,,,,,,,4,1344.8866885000025,1348.888351600035,1348.8884451400313,0.3050980999832973,1349.334388200019,1349.334388200019,n,0.3255853000446223,1351.0880074000452,1351.0880074000452,7,1.015,,,,,sub-035,25,45,700,bloc_loop.csv,2023-07-03_16h51.55.962,PainUncertainty,2022.2.5,142.99278179176378,
grave,forte,stimuli/330Hz,stimuli/forte,bloc_6,prob50_50_4trials.xlsx,2,8,50,50,0,,,,,0,5,5,5,1,2,6,1,,,,,,,,4.7,1351.0880074000452,1355.791954800021,1355.7920976400433,0.305298599996604,1356.2397589000175,1356.2397589000175,m,0.27975960000185296,1357.9759037000476,1357.9759037000476,83,1.036,,,,,sub-035,25,45,700,bloc_loop.csv,2023-07-03_16h51.55.962,PainUncertainty,2022.2.5,142.99278179176378,
aigu,moderee,stimuli/660Hz,stimuli/moderee,bloc_6,prob50_50_4trials.xlsx,2,8,50,50,0,,,,,0,5,5,5,1,3,7,2,,,,,,,,4.5,1357.9759037000476,1362.479977900046,1362.4801176400447,0.3015081000048667,1362.9247484000516,1362.9247484000516,n,0.3340065000229515,1365.9488709000289,1365.9488709000289,7,2.292,,,,,sub-035,25,45,700,bloc_loop.csv,2023-07-03_16h51.55.962,PainUncertainty,2022.2.5,142.99278179176378,
aigu,moderee,stimuli/660Hz,stimuli/moderee,bloc_7,prob80hthp_12trials.xlsx,2,24,80,20,1,,,,,0,6,6,6,0,0,0,11,,,,,,,,4.7,1365.9488709000289,1370.654631900019,1370.654681640031,0.3048059999709949,1371.0986711000442,1371.0986711000442,n,0.5780817999620922,1375.4715305000427,1375.4715305000427,11,3.321,,,,,sub-035,25,45,700,bloc_loop.csv,2023-07-03_16h51.55.962,PainUncertainty,2022.2.5,142.99278179176378,
aigu,forte,stimuli/660Hz,stimuli/forte,bloc_7,prob80hthp_12trials.xlsx,2,24,80,20,1,,,,,0,6,6,6,0,1,1,6,,,,,,,,3.3,1375.4715305000427,1378.7737175000366,1378.7735584400302,0.30527220002841204,1379.2176321000443,1379.2176321000443,m,0.2939518000348471,1381.25701880001,1381.25701880001,85,1.305,,,,,sub-035,25,45,700,bloc_loop.csv,2023-07-03_16h51.55.962,PainUncertainty,2022.2.5,142.99278179176378,
aigu,forte,stimuli/660Hz,stimuli/forte,bloc_7,prob80hthp_12trials.xlsx,2,24,80,20,1,,,,,0,6,6,6,0,2,2,9,,,,,,,,3.1,1381.25701880001,1384.3575636000023,1384.3575221400183,0.30530790000921115,1384.8026331000146,1384.8026331000146,m,0.2704288000240922,1387.953050400014,1387.953050400014,88,2.48,,,,,sub-035,25,45,700,bloc_loop.csv,2023-07-03_16h51.55.962,PainUncertainty,2022.2.5,142.99278179176378,
grave,moderee,stimuli/330Hz,stimuli/moderee,bloc_7,prob80hthp_12trials.xlsx,2,24,80,20,1,,,,,0,6,6,6,0,3,3,1,,,,,,,,3.4,1387.953050400014,1391.3586848000414,1391.3586726400476,0.30538749997504056,1391.8063826000434,1391.8063826000434,n,0.328668900008779,1395.621625400032,1395.621625400032,8,3.065,,,,,sub-035,25,45,700,bloc_loop.csv,2023-07-03_16h51.55.962,PainUncertainty,2022.2.5,142.99278179176378,
aigu,forte,stimuli/660Hz,stimuli/forte,bloc_7,prob80hthp_12trials.xlsx,2,24,80,20,1,,,,,0,6,6,6,0,4,4,10,,,,,,,,4.6,1395.621625400032,1400.2274096000474,1400.227433740039,0.30528959998628125,1400.671742400038,1400.671742400038,m,0.291711000027135,1402.3652027000207,1402.3652027000207,80,1.008,,,,,sub-035,25,45,700,bloc_loop.csv,2023-07-03_16h51.55.962,PainUncertainty,2022.2.5,142.99278179176378,
grave,moderee,stimuli/330Hz,stimuli/moderee,bloc_7,prob80hthp_12trials.xlsx,2,24,80,20,1,,,,,0,6,6,6,0,5,5,2,,,,,,,,4.8,1402.3652027000207,1407.166132500046,1407.1661168400256,0.3049755999818444,1407.6101322000031,1407.6101322000031,n,0.4028085999889299,1410.2276257000049,1410.2276257000049,8,1.758,,,,,sub-035,25,45,700,bloc_loop.csv,2023-07-03_16h51.55.962,PainUncertainty,2022.2.5,142.99278179176378,
grave,moderee,stimuli/330Hz,stimuli/moderee,bloc_7,prob80hthp_12trials.xlsx,2,24,80,20,1,,,,,0,6,6,6,0,6,6,0,,,,,,,,4.2,1410.2276257000049,1414.4309554000502,1414.4309693400223,0.30502979998709634,1414.8752734000445,1414.8752734000445,n,0.4900678999838419,1417.2422251000535,1417.2422251000535,9,1.454,,,,,sub-035,25,45,700,bloc_loop.csv,2023-07-03_16h51.55.962,PainUncertainty,2022.2.5,142.99278179176378,
aigu,forte,stimuli/660Hz,stimuli/forte,bloc_7,prob80hthp_12trials.xlsx,2,24,80,20,1,,,,,0,6,6,6,0,7,7,7,,,,,,,,4.4,1417.2422251000535,1421.6467718000058,1421.6467233400267,0.3052318000118248,1422.0909164000186,1422.0909164000186,m,0.2600549000198953,1425.0902198000113,1425.0902198000113,88,2.329,,,,,sub-035,25,45,700,bloc_loop.csv,2023-07-03_16h51.55.962,PainUncertainty,2022.2.5,142.99278179176378,
grave,moderee,stimuli/330Hz,stimuli/moderee,bloc_7,prob80hthp_12trials.xlsx,2,24,80,20,1,,,,,0,6,6,6,0,8,8,4,,,,,,,,3.4,1425.0902198000113,1428.4947995000402,1428.4948084400326,0.3051343000261113,1428.9431276000105,1428.9431276000105,n,0.6563322999863885,1431.6084521000157,1431.6084521000157,7,1.593,,,,,sub-035,25,45,700,bloc_loop.csv,2023-07-03_16h51.55.962,PainUncertainty,2022.2.5,142.99278179176378,
grave,moderee,stimuli/330Hz,stimuli/moderee,bloc_7,prob80hthp_12trials.xlsx,2,24,80,20,1,,,,,0,6,6,6,0,9,9,3,,,,,,,,4.6,1431.6084521000157,1436.2109045000398,1436.2111814400355,0.3051782000111416,1436.655474600033,1436.655474600033,n,0.40373489999910817,1438.7351151000476,1438.7351151000476,13,1.258,,,,,sub-035,25,45,700,bloc_loop.csv,2023-07-03_16h51.55.962,PainUncertainty,2022.2.5,142.99278179176378,
grave,forte,stimuli/330Hz,stimuli/forte,bloc_7,prob80hthp_12trials.xlsx,2,24,80,20,1,,,,,0,6,6,6,0,10,10,5,,,,,,,,4.4,1438.7351151000476,1443.1360308000003,1443.135892040032,0.3047327999956906,1443.580039500026,1443.580039500026,m,0.3347766000078991,1446.0856543000555,1446.0856543000555,83,1.44,,,,,sub-035,25,45,700,bloc_loop.csv,2023-07-03_16h51.55.962,PainUncertainty,2022.2.5,142.99278179176378,
aigu,forte,stimuli/660Hz,stimuli/forte,bloc_7,prob80hthp_12trials.xlsx,2,24,80,20,1,,,,,0,6,6,6,0,11,11,8,,,,,,,,3.4,1446.0856543000555,1449.4905851000221,1449.4906250400177,0.3049401000025682,1449.934735900024,1449.934735900024,m,0.46390520001295954,1453.3566537000006,1453.3566537000006,89,2.41,,,,,sub-035,25,45,700,bloc_loop.csv,2023-07-03_16h51.55.962,PainUncertainty,2022.2.5,142.99278179176378,
grave,moderee,stimuli/330Hz,stimuli/moderee,bloc_7,prob80hthp_12trials.xlsx,2,24,80,20,1,,,,,0,6,6,6,1,0,12,2,,,,,,,,3.2,1453.3566537000006,1456.5610539000481,1456.5622010400343,0.30002819997025654,1457.0054452000186,1457.0054452000186,n,0.3764540000120178,1458.7099825000041,1458.7099825000041,15,0.931,,,,,sub-035,25,45,700,bloc_loop.csv,2023-07-03_16h51.55.962,PainUncertainty,2022.2.5,142.99278179176378,
aigu,forte,stimuli/660Hz,stimuli/forte,bloc_7,prob80hthp_12trials.xlsx,2,24,80,20,1,,,,,0,6,6,6,1,1,13,8,,,,,,,,4.1,1458.7099825000041,1462.8115657000453,1462.8112828400276,0.2997326999902725,1463.2499241000041,1463.2499241000041,m,0.29061409999849275,1464.9756956000347,1464.9756956000347,81,1.034,,,,,sub-035,25,45,700,bloc_loop.csv,2023-07-03_16h51.55.962,PainUncertainty,2022.2.5,142.99278179176378,
aigu,forte,stimuli/660Hz,stimuli/forte,bloc_7,prob80hthp_12trials.xlsx,2,24,80,20,1,,,,,0,6,6,6,1,2,14,9,,,,,,,,5,1464.9756956000347,1469.9788258000044,1469.9788590400071,0.3051217999891378,1470.423005400051,1470.423005400051,m,0.385342399997171,1472.325236900011,1472.325236900011,77,1.14,,,,,sub-035,25,45,700,bloc_loop.csv,2023-07-03_16h51.55.962,PainUncertainty,2022.2.5,142.99278179176378,
grave,moderee,stimuli/330Hz,stimuli/moderee,bloc_7,prob80hthp_12trials.xlsx,2,24,80,20,1,,,,,0,6,6,6,1,3,15,1,,,,,,,,3.2,1472.325236900011,1475.5294474000111,1475.5286739400412,0.3049196000210941,1475.979428700055,1475.979428700055,n,0.45632979995571077,1479.0540556000196,1479.0540556000196,6,2.217,,,,,sub-035,25,45,700,bloc_loop.csv,2023-07-03_16h51.55.962,PainUncertainty,2022.2.5,142.99278179176378,
aigu,moderee,stimuli/660Hz,stimuli/moderee,bloc_7,prob80hthp_12trials.xlsx,2,24,80,20,1,,,,,0,6,6,6,1,4,16,11,,,,,,,,3.4,1479.0540556000196,1482.459598000045,1482.4596884400175,0.30494000000180677,1482.9082169000176,1482.9082169000176,n,0.3963480000384152,1485.10906050005,1485.10906050005,6,1.398,,,,,sub-035,25,45,700,bloc_loop.csv,2023-07-03_16h51.55.962,PainUncertainty,2022.2.5,142.99278179176378,
grave,forte,stimuli/330Hz,stimuli/forte,bloc_7,prob80hthp_12trials.xlsx,2,24,80,20,1,,,,,0,6,6,6,1,5,17,5,,,,,,,,4.5,1485.10906050005,1489.6136731000151,1489.613476240012,0.30036470002960414,1490.057653900003,1490.057653900003,m,0.29612739995354787,1492.0596959000104,1492.0596959000104,87,1.308,,,,,sub-035,25,45,700,bloc_loop.csv,2023-07-03_16h51.55.962,PainUncertainty,2022.2.5,142.99278179176378,
grave,moderee,stimuli/330Hz,stimuli/moderee,bloc_7,prob80hthp_12trials.xlsx,2,24,80,20,1,,,,,0,6,6,6,1,6,18,4,,,,,,,,4.1,1492.0596959000104,1496.1629021000117,1496.1627637400466,0.30596409999998286,1496.608491800027,1496.608491800027,n,0.38553879997925833,1500.3068149000173,1500.3068149000173,12,2.857,,,,,sub-035,25,45,700,bloc_loop.csv,2023-07-03_16h51.55.962,PainUncertainty,2022.2.5,142.99278179176378,
aigu,forte,stimuli/660Hz,stimuli/forte,bloc_7,prob80hthp_12trials.xlsx,2,24,80,20,1,,,,,0,6,6,6,1,7,19,6,,,,,,,,3.8,1500.3068149000173,1504.107945100055,1504.1081687400524,0.30486849998123944,1504.5560891000205,1504.5560891000205,m,0.37637250003172085,1508.137563300028,1508.137563300028,85,2.759,,,,,sub-035,25,45,700,bloc_loop.csv,2023-07-03_16h51.55.962,PainUncertainty,2022.2.5,142.99278179176378,
aigu,forte,stimuli/660Hz,stimuli/forte,bloc_7,prob80hthp_12trials.xlsx,2,24,80,20,1,,,,,0,6,6,6,1,8,20,10,,,,,,,,3.4,1508.137563300028,1511.5393356000423,1511.5394348400237,0.30513749999227,1511.9834600000177,1511.9834600000177,m,0.33402609993936494,1514.3829288000125,1514.3829288000125,88,1.661,,,,,sub-035,25,45,700,bloc_loop.csv,2023-07-03_16h51.55.962,PainUncertainty,2022.2.5,142.99278179176378,
aigu,forte,stimuli/660Hz,stimuli/forte,bloc_7,prob80hthp_12trials.xlsx,2,24,80,20,1,,,,,0,6,6,6,1,9,21,7,,,,,,,,3.9,1514.3829288000125,1518.283793700044,1518.283380440023,0.30524150002747774,1518.7310629000422,1518.7310629000422,m,0.3734276000177488,1520.9189272000222,1520.9189272000222,91,1.41,,,,,sub-035,25,45,700,bloc_loop.csv,2023-07-03_16h51.55.962,PainUncertainty,2022.2.5,142.99278179176378,
grave,moderee,stimuli/330Hz,stimuli/moderee,bloc_7,prob80hthp_12trials.xlsx,2,24,80,20,1,,,,,0,6,6,6,1,10,22,0,,,,,,,,4.4,1520.9189272000222,1525.3192454000236,1525.3188505400262,0.30539029999636114,1525.7631352000171,1525.7631352000171,n,0.375966600026004,1527.8380340000149,1527.8380340000149,6,1.273,,,,,sub-035,25,45,700,bloc_loop.csv,2023-07-03_16h51.55.962,PainUncertainty,2022.2.5,142.99278179176378,
grave,moderee,stimuli/330Hz,stimuli/moderee,bloc_7,prob80hthp_12trials.xlsx,2,24,80,20,1,,,,,0,6,6,6,1,11,23,3,,,,,,,,4,1527.8380340000149,1531.8404327000026,1531.840608740045,0.3049130000290461,1532.2848985000164,1532.2848985000164,n,0.4049914000206627,1537.9849144000327,1537.9849144000327,7,2.912,,,,,sub-035,25,45,700,bloc_loop.csv,2023-07-03_16h51.55.962,PainUncertainty,2022.2.5,142.99278179176378,
,,,,bloc_7,prob80hthp_12trials.xlsx,2,24,80,20,1,,,,,0,6,6,6,,,,,0,0,0,0,,,,,,,,,,,,,,,,,1537.9849144000327,1582.8815116000478,,,sub-035,25,45,700,bloc_loop.csv,2023-07-03_16h51.55.962,PainUncertainty,2022.2.5,142.99278179176378,
grave,moderee,stimuli/330Hz,stimuli/moderee,bloc_8,prob50_50_4trials.xlsx,3,12,50,50,0,,,,,0,7,7,7,0,0,0,0,,,,,,,,4.9,1584.1362301000045,1589.0420568000409,1589.0420482400164,0.30070649995468557,1589.4863769000513,1589.4863769000513,n,0.43571970000630245,1591.8853370000143,1591.8853370000143,10,1.578,,,,,sub-035,25,45,700,bloc_loop.csv,2023-07-03_16h51.55.962,PainUncertainty,2022.2.5,142.99278179176378,
grave,forte,stimuli/330Hz,stimuli/forte,bloc_8,prob50_50_4trials.xlsx,3,12,50,50,0,,,,,0,7,7,7,0,1,1,1,,,,,,,,5,1591.8853370000143,1596.8901195000508,1596.8902741400466,0.3046994999749586,1597.3340241000406,1597.3340241000406,m,0.3033980999607593,1600.6109415000537,1600.6109415000537,81,2.55,,,,,sub-035,25,45,700,bloc_loop.csv,2023-07-03_16h51.55.962,PainUncertainty,2022.2.5,142.99278179176378,
aigu,moderee,stimuli/660Hz,stimuli/moderee,bloc_8,prob50_50_4trials.xlsx,3,12,50,50,0,,,,,0,7,7,7,0,2,2,2,,,,,,,,4.5,1600.6109415000537,1605.1128779000137,1605.1130532400507,0.30490619997726753,1605.5574315000558,1605.5574315000558,n,0.3169394999858923,1607.9276535000536,1607.9276535000536,11,1.662,,,,,sub-035,25,45,700,bloc_loop.csv,2023-07-03_16h51.55.962,PainUncertainty,2022.2.5,142.99278179176378,
aigu,forte,stimuli/660Hz,stimuli/forte,bloc_8,prob50_50_4trials.xlsx,3,12,50,50,0,,,,,0,7,7,7,0,3,3,3,,,,,,,,4.2,1607.9276535000536,1612.1277904000017,1612.1277819400361,0.3052888000383973,1612.5724425000371,1612.5724425000371,m,0.3056473999749869,1614.7834221000085,1614.7834221000085,88,1.542,,,,,sub-035,25,45,700,bloc_loop.csv,2023-07-03_16h51.55.962,PainUncertainty,2022.2.5,142.99278179176378,
grave,forte,stimuli/330Hz,stimuli/forte,bloc_8,prob50_50_4trials.xlsx,3,12,50,50,0,,,,,0,7,7,7,1,0,4,1,,,,,,,,5,1614.7834221000085,1619.788801000046,1619.7889683400222,0.301328600035049,1620.2330288000521,1620.2330288000521,m,0.4542801000061445,1622.1827060000505,1622.1827060000505,84,1.084,,,,,sub-035,25,45,700,bloc_loop.csv,2023-07-03_16h51.55.962,PainUncertainty,2022.2.5,142.99278179176378,
aigu,moderee,stimuli/660Hz,stimuli/moderee,bloc_8,prob50_50_4trials.xlsx,3,12,50,50,0,,,,,0,7,7,7,1,1,5,2,,,,,,,,3.4,1622.1827060000505,1625.5876289000153,1625.5877235400199,0.3055155999609269,1626.0347149000154,1626.0347149000154,n,0.4013333000475541,1628.1582780000172,1628.1582780000172,7,1.35,,,,,sub-035,25,45,700,bloc_loop.csv,2023-07-03_16h51.55.962,PainUncertainty,2022.2.5,142.99278179176378,
grave,moderee,stimuli/330Hz,stimuli/moderee,bloc_8,prob50_50_4trials.xlsx,3,12,50,50,0,,,,,0,7,7,7,1,2,6,0,,,,,,,,5,1628.1582780000172,1633.1585223000147,1633.1582562400085,0.30535919999238104,1633.604700100026,1633.604700100026,n,0.4115419000154361,1636.0061231,1636.0061231,13,1.55,,,,,sub-035,25,45,700,bloc_loop.csv,2023-07-03_16h51.55.962,PainUncertainty,2022.2.5,142.99278179176378,
aigu,forte,stimuli/660Hz,stimuli/forte,bloc_8,prob50_50_4trials.xlsx,3,12,50,50,0,,,,,0,7,7,7,1,3,7,3,,,,,,,,4.2,1636.0061231,1640.2075232000207,1640.2075157400045,0.3049977999762632,1640.6516250000568,1640.6516250000568,m,0.34107859997311607,1643.2595112000126,1643.2595112000126,87,1.848,,,,,sub-035,25,45,700,bloc_loop.csv,2023-07-03_16h51.55.962,PainUncertainty,2022.2.5,142.99278179176378,
grave,forte,stimuli/330Hz,stimuli/forte,bloc_8,prob50_50_4trials.xlsx,3,12,50,50,0,,,,,0,7,7,7,2,0,8,1,,,,,,,,5,1643.2595112000126,1648.264149499999,1648.2640467400138,0.3049806000199169,1648.7081635000068,1648.7081635000068,m,0.33946370001649484,1652.0160073000006,1652.0160073000006,92,2.612,,,,,sub-035,25,45,700,bloc_loop.csv,2023-07-03_16h51.55.962,PainUncertainty,2022.2.5,142.99278179176378,
aigu,forte,stimuli/660Hz,stimuli/forte,bloc_8,prob50_50_4trials.xlsx,3,12,50,50,0,,,,,0,7,7,7,2,1,9,3,,,,,,,,4.9,1652.0160073000006,1656.9181196000427,1656.9181207400338,0.30496570002287626,1657.3619748000056,1657.3619748000056,m,0.41872389998752624,1659.3041478000232,1659.3041478000232,84,1.134,,,,,sub-035,25,45,700,bloc_loop.csv,2023-07-03_16h51.55.962,PainUncertainty,2022.2.5,142.99278179176378,
aigu,moderee,stimuli/660Hz,stimuli/moderee,bloc_8,prob50_50_4trials.xlsx,3,12,50,50,0,,,,,0,7,7,7,2,2,10,2,,,,,,,,3.8,1659.3041478000232,1663.107209400041,1663.106526240002,0.3051131999818608,1663.5546526000253,1663.5546526000253,n,0.3915417999960482,1666.8768135000137,1666.8768135000137,10,2.523,,,,,sub-035,25,45,700,bloc_loop.csv,2023-07-03_16h51.55.962,PainUncertainty,2022.2.5,142.99278179176378,
grave,moderee,stimuli/330Hz,stimuli/moderee,bloc_8,prob50_50_4trials.xlsx,3,12,50,50,0,,,,,0,7,7,7,2,3,11,0,,,,,,,,5,1666.8768135000137,1671.877960600017,1671.8779007400094,0.3050723999622278,1672.3221863000072,1672.3221863000072,n,0.41429909999715164,1674.1313723000349,1674.1313723000349,15,0.96,,,,,sub-035,25,45,700,bloc_loop.csv,2023-07-03_16h51.55.962,PainUncertainty,2022.2.5,142.99278179176378,
grave,forte,stimuli/330Hz,stimuli/forte,bloc_9,prob20hthp_12trials.xlsx,3,36,80,20,0,,,,,0,8,8,8,0,0,0,0,,,,,,,,3.9,1674.1313723000349,1678.031514100032,1678.0315216400136,0.3051120000309311,1678.475546200003,1678.475546200003,m,0.3551139999763109,1680.3478966000257,1680.3478966000257,86,1.124,,,,,sub-035,25,45,700,bloc_loop.csv,2023-07-03_16h51.55.962,PainUncertainty,2022.2.5,142.99278179176378,
aigu,moderee,stimuli/660Hz,stimuli/moderee,bloc_9,prob20hthp_12trials.xlsx,3,36,80,20,0,,,,,0,8,8,8,0,1,1,8,,,,,,,,3.2,1680.3478966000257,1683.5465383000555,1683.5474232400243,0.2995470000314526,1683.9907158000278,1683.9907158000278,n,0.45732779998797923,1685.9411813000333,1685.9411813000333,15,1.029,,,,,sub-035,25,45,700,bloc_loop.csv,2023-07-03_16h51.55.962,PainUncertainty,2022.2.5,142.99278179176378,
grave,forte,stimuli/330Hz,stimuli/forte,bloc_9,prob20hthp_12trials.xlsx,3,36,80,20,0,,,,,0,8,8,8,0,2,2,1,,,,,,,,4.7,1685.9411813000333,1690.6440081000328,1690.6442377400176,0.304866399965249,1691.0951270000078,1691.0951270000078,m,0.38856039999518543,1693.115329500055,1693.115329500055,85,1.231,,,,,sub-035,25,45,700,bloc_loop.csv,2023-07-03_16h51.55.962,PainUncertainty,2022.2.5,142.99278179176378,
grave,forte,stimuli/330Hz,stimuli/forte,bloc_9,prob20hthp_12trials.xlsx,3,36,80,20,0,,,,,0,8,8,8,0,3,3,2,,,,,,,,3,1693.115329500055,1696.117084300029,1696.1170720400346,0.3049833999830298,1696.561457200034,1696.561457200034,m,0.41141659999266267,1700.1786043000175,1700.1786043000175,86,2.815,,,,,sub-035,25,45,700,bloc_loop.csv,2023-07-03_16h51.55.962,PainUncertainty,2022.2.5,142.99278179176378,
aigu,moderee,stimuli/660Hz,stimuli/moderee,bloc_9,prob20hthp_12trials.xlsx,3,36,80,20,0,,,,,0,8,8,8,0,4,4,6,,,,,,,,4.6,1700.1786043000175,1704.7777193000074,1704.7778178400417,0.305671300040558,1705.225213800033,1705.225213800033,n,0.5638483000220731,1707.7526632000227,1707.7526632000227,14,1.571,,,,,sub-035,25,45,700,bloc_loop.csv,2023-07-03_16h51.55.962,PainUncertainty,2022.2.5,142.99278179176378,
aigu,moderee,stimuli/660Hz,stimuli/moderee,bloc_9,prob20hthp_12trials.xlsx,3,36,80,20,0,,,,,0,8,8,8,0,5,5,9,,,,,,,,4.5,1707.7526632000227,1712.2580696000368,1712.2587423400196,0.3043662999989465,1712.7019470000523,1712.7019470000523,n,0.2951795000117272,1716.4314858000143,1716.4314858000143,11,3.022,,,,,sub-035,25,45,700,bloc_loop.csv,2023-07-03_16h51.55.962,PainUncertainty,2022.2.5,142.99278179176378,
aigu,forte,stimuli/660Hz,stimuli/forte,bloc_9,prob20hthp_12trials.xlsx,3,36,80,20,0,,,,,0,8,8,8,0,6,6,11,,,,,,,,4.5,1716.4314858000143,1720.93246000004,1720.9324952399998,0.30534640001133084,1721.3806504000095,1721.3806504000095,m,0.2894822000525892,1723.1754190000356,1723.1754190000356,86,1.102,,,,,sub-035,25,45,700,bloc_loop.csv,2023-07-03_16h51.55.962,PainUncertainty,2022.2.5,142.99278179176378,
grave,forte,stimuli/330Hz,stimuli/forte,bloc_9,prob20hthp_12trials.xlsx,3,36,80,20,0,,,,,0,8,8,8,0,7,7,4,,,,,,,,4.3,1723.1754190000356,1727.474760800018,1727.4748376400034,0.30526640004245564,1727.9228870000225,1727.9228870000225,m,0.3259252000134438,1730.2360859000473,1730.2360859000473,91,1.592,,,,,sub-035,25,45,700,bloc_loop.csv,2023-07-03_16h51.55.962,PainUncertainty,2022.2.5,142.99278179176378,
grave,forte,stimuli/330Hz,stimuli/forte,bloc_9,prob20hthp_12trials.xlsx,3,36,80,20,0,,,,,0,8,8,8,0,8,8,3,,,,,,,,3.4,1730.2360859000473,1733.6352373000118,1733.6353965400426,0.30517529998905957,1734.0800213000039,1734.0800213000039,m,0.3125893999822438,1736.819874500041,1736.819874500041,86,2.036,,,,,sub-035,25,45,700,bloc_loop.csv,2023-07-03_16h51.55.962,PainUncertainty,2022.2.5,142.99278179176378,
aigu,moderee,stimuli/660Hz,stimuli/moderee,bloc_9,prob20hthp_12trials.xlsx,3,36,80,20,0,,,,,0,8,8,8,0,9,9,10,,,,,,,,3.5,1736.819874500041,1740.3234484000131,1740.3240227400033,0.30434820003574714,1740.7677553000394,1740.7677553000394,n,0.38057830004254356,1742.6846549000475,1742.6846549000475,17,1.162,,,,,sub-035,25,45,700,bloc_loop.csv,2023-07-03_16h51.55.962,PainUncertainty,2022.2.5,142.99278179176378,
aigu,moderee,stimuli/660Hz,stimuli/moderee,bloc_9,prob20hthp_12trials.xlsx,3,36,80,20,0,,,,,0,8,8,8,0,10,10,7,,,,,,,,4.9,1742.6846549000475,1747.5885709000286,1747.5887977400503,0.30487759999232367,1748.0347674000077,1748.0347674000077,n,0.40719639998860657,1752.0645695000421,1752.0645695000421,1,3.217,,,,,sub-035,25,45,700,bloc_loop.csv,2023-07-03_16h51.55.962,PainUncertainty,2022.2.5,142.99278179176378,
grave,moderee,stimuli/330Hz,stimuli/moderee,bloc_9,prob20hthp_12trials.xlsx,3,36,80,20,0,,,,,0,8,8,8,0,11,11,5,,,,,,,,3.4,1752.0645695000421,1755.4642341000144,1755.4643574400047,0.3049161999952048,1755.9084262000397,1755.9084262000397,n,0.38536149996798486,1758.0115950000472,1758.0115950000472,6,1.335,,,,,sub-035,25,45,700,bloc_loop.csv,2023-07-03_16h51.55.962,PainUncertainty,2022.2.5,142.99278179176378,
grave,forte,stimuli/330Hz,stimuli/forte,bloc_9,prob20hthp_12trials.xlsx,3,36,80,20,0,,,,,0,8,8,8,1,0,12,2,,,,,,,,3.8,1758.0115950000472,1761.8122164000524,1761.8122779400378,0.3049845999921672,1762.2563725000364,1762.2563725000364,m,0.32824090000940487,1766.0485592000186,1766.0485592000186,92,3.059,,,,,sub-035,25,45,700,bloc_loop.csv,2023-07-03_16h51.55.962,PainUncertainty,2022.2.5,142.99278179176378,
grave,moderee,stimuli/330Hz,stimuli/moderee,bloc_9,prob20hthp_12trials.xlsx,3,36,80,20,0,,,,,0,8,8,8,1,1,13,5,,,,,,,,4.7,1766.0485592000186,1770.750787500001,1770.7509382400253,0.3002248999546282,1771.195121100056,1771.195121100056,n,0.39152179996017367,1774.7718410000089,1774.7718410000089,1,2.814,,,,,sub-035,25,45,700,bloc_loop.csv,2023-07-03_16h51.55.962,PainUncertainty,2022.2.5,142.99278179176378,
grave,forte,stimuli/330Hz,stimuli/forte,bloc_9,prob20hthp_12trials.xlsx,3,36,80,20,0,,,,,0,8,8,8,1,2,14,0,,,,,,,,3.6,1774.7718410000089,1778.3767974000075,1778.3768450400034,0.30485010001575574,1778.8209128000308,1778.8209128000308,m,0.31082579999929294,1782.220309700002,1782.220309700002,84,2.731,,,,,sub-035,25,45,700,bloc_loop.csv,2023-07-03_16h51.55.962,PainUncertainty,2022.2.5,142.99278179176378,
aigu,moderee,stimuli/660Hz,stimuli/moderee,bloc_9,prob20hthp_12trials.xlsx,3,36,80,20,0,,,,,0,8,8,8,1,3,15,8,,,,,,,,4.1,1782.220309700002,1786.3221010000561,1786.3222339400031,0.30486740003107116,1786.766330000013,1786.766330000013,n,0.4027998000383377,1789.6663736000191,1789.6663736000191,3,2.133,,,,,sub-035,25,45,700,bloc_loop.csv,2023-07-03_16h51.55.962,PainUncertainty,2022.2.5,142.99278179176378,
grave,forte,stimuli/330Hz,stimuli/forte,bloc_9,prob20hthp_12trials.xlsx,3,36,80,20,0,,,,,0,8,8,8,1,4,16,4,,,,,,,,4.4,1789.6663736000191,1794.066163600015,1794.0660654400067,0.30522979999659583,1794.5102239000262,1794.5102239000262,m,0.3538708999985829,1796.6657932000235,1796.6657932000235,84,1.377,,,,,sub-035,25,45,700,bloc_loop.csv,2023-07-03_16h51.55.962,PainUncertainty,2022.2.5,142.99278179176378,
aigu,moderee,stimuli/660Hz,stimuli/moderee,bloc_9,prob20hthp_12trials.xlsx,3,36,80,20,0,,,,,0,8,8,8,1,5,17,6,,,,,,,,3.6,1796.6657932000235,1800.2682252000086,1800.2683856400486,0.30484919995069504,1800.7127754000248,1800.7127754000248,n,0.3147057000314817,1804.5421136000077,1804.5421136000077,5,3.093,,,,,sub-035,25,45,700,bloc_loop.csv,2023-07-03_16h51.55.962,PainUncertainty,2022.2.5,142.99278179176378,
grave,forte,stimuli/330Hz,stimuli/forte,bloc_9,prob20hthp_12trials.xlsx,3,36,80,20,0,,,,,0,8,8,8,1,6,18,3,,,,,,,,4.3,1804.5421136000077,1808.846269700036,1808.8465704400382,0.30468479997944087,1809.292438500037,1809.292438500037,m,0.34085680003045127,1811.0779239000403,1811.0779239000403,87,1.05,,,,,sub-035,25,45,700,bloc_loop.csv,2023-07-03_16h51.55.962,PainUncertainty,2022.2.5,142.99278179176378,
aigu,moderee,stimuli/660Hz,stimuli/moderee,bloc_9,prob20hthp_12trials.xlsx,3,36,80,20,0,,,,,0,8,8,8,1,7,19,7,,,,,,,,4.4,1811.0779239000403,1815.4790313000558,1815.479057240003,0.30487100000027567,1815.9266774000134,1815.9266774000134,n,0.3328532000305131,1820.2677172000404,1820.2677172000404,4,3.593,,,,,sub-035,25,45,700,bloc_loop.csv,2023-07-03_16h51.55.962,PainUncertainty,2022.2.5,142.99278179176378,
aigu,moderee,stimuli/660Hz,stimuli/moderee,bloc_9,prob20hthp_12trials.xlsx,3,36,80,20,0,,,,,0,8,8,8,1,8,20,10,,,,,,,,3.2,1820.2677172000404,1823.4725448000245,1823.4725458400148,0.3006856000283733,1823.917396200006,1823.917396200006,n,0.3949016999686137,1825.7946661000024,1825.7946661000024,10,1.079,,,,,sub-035,25,45,700,bloc_loop.csv,2023-07-03_16h51.55.962,PainUncertainty,2022.2.5,142.99278179176378,
aigu,forte,stimuli/660Hz,stimuli/forte,bloc_9,prob20hthp_12trials.xlsx,3,36,80,20,0,,,,,0,8,8,8,1,9,21,11,,,,,,,,3.2,1825.7946661000024,1828.9939914999995,1828.9938799400056,0.3051429000333883,1829.4380325000384,1829.4380325000384,m,0.3203759000170976,1832.5554952000384,1832.5554952000384,91,2.404,,,,,sub-035,25,45,700,bloc_loop.csv,2023-07-03_16h51.55.962,PainUncertainty,2022.2.5,142.99278179176378,
grave,forte,stimuli/330Hz,stimuli/forte,bloc_9,prob20hthp_12trials.xlsx,3,36,80,20,0,,,,,0,8,8,8,1,10,22,1,,,,,,,,3.9,1832.5554952000384,1836.4602480000467,1836.4604201400011,0.301904599997215,1836.904513000045,1836.904513000045,n,0.3479871000163257,1840.368646100047,1840.368646100047,88,2.675,,,,,sub-035,25,45,700,bloc_loop.csv,2023-07-03_16h51.55.962,PainUncertainty,2022.2.5,142.99278179176378,
aigu,moderee,stimuli/660Hz,stimuli/moderee,bloc_9,prob20hthp_12trials.xlsx,3,36,80,20,0,,,,,0,8,8,8,1,11,23,9,,,,,,,,4.4,1840.368646100047,1844.7737365000066,1844.7736971400386,0.30498830002034083,1845.2216453000437,1845.2216453000437,n,0.3835671999840997,1849.0940451000351,1849.0940451000351,8,2.876,,,,,sub-035,25,45,700,bloc_loop.csv,2023-07-03_16h51.55.962,PainUncertainty,2022.2.5,142.99278179176378,
grave,forte,stimuli/330Hz,stimuli/forte,bloc_9,prob20hthp_12trials.xlsx,3,36,80,20,0,,,,,0,8,8,8,2,0,24,3,,,,,,,,4.5,1849.0940451000351,1853.5942724000197,1853.5944379400403,0.3051798999658786,1854.0419223000063,1854.0419223000063,m,0.3142822000081651,1856.9094521000516,1856.9094521000516,83,2.104,,,,,sub-035,25,45,700,bloc_loop.csv,2023-07-03_16h51.55.962,PainUncertainty,2022.2.5,142.99278179176378,
grave,forte,stimuli/330Hz,stimuli/forte,bloc_9,prob20hthp_12trials.xlsx,3,36,80,20,0,,,,,0,8,8,8,2,1,25,2,,,,,,,,3,1856.9094521000516,1859.9142281000386,1859.9142890400194,0.3049841999891214,1860.3587506000185,1860.3587506000185,m,0.28231100004632026,1862.4049736000015,1862.4049736000015,87,1.348,,,,,sub-035,25,45,700,bloc_loop.csv,2023-07-03_16h51.55.962,PainUncertainty,2022.2.5,142.99278179176378,
grave,forte,stimuli/330Hz,stimuli/forte,bloc_9,prob20hthp_12trials.xlsx,3,36,80,20,0,,,,,0,8,8,8,2,2,26,0,,,,,,,,3.7,1862.4049736000015,1866.1098460000358,1866.1100724400544,0.3047569000045769,1866.554163200024,1866.554163200024,m,0.286505899974145,1869.1803787000244,1869.1803787000244,90,1.946,,,,,sub-035,25,45,700,bloc_loop.csv,2023-07-03_16h51.55.962,PainUncertainty,2022.2.5,142.99278179176378,
aigu,moderee,stimuli/660Hz,stimuli/moderee,bloc_9,prob20hthp_12trials.xlsx,3,36,80,20,0,,,,,0,8,8,8,2,3,27,8,,,,,,,,4.7,1869.1803787000244,1873.8812278000405,1873.8812730400182,0.3051710999570787,1874.3275424000458,1874.3275424000458,n,0.45713479997357354,1877.5550301000476,1877.5550301000476,4,2.349,,,,,sub-035,25,45,700,bloc_loop.csv,2023-07-03_16h51.55.962,PainUncertainty,2022.2.5,142.99278179176378,
aigu,moderee,stimuli/660Hz,stimuli/moderee,bloc_9,prob20hthp_12trials.xlsx,3,36,80,20,0,,,,,0,8,8,8,2,4,28,9,,,,,,,,3.5,1877.5550301000476,1881.055967900029,1881.0560649400518,0.3049293999793008,1881.500223400013,1881.500223400013,n,0.3779289000085555,1884.9853856000118,1884.9853856000118,2,2.743,,,,,sub-035,25,45,700,bloc_loop.csv,2023-07-03_16h51.55.962,PainUncertainty,2022.2.5,142.99278179176378,
aigu,moderee,stimuli/660Hz,stimuli/moderee,bloc_9,prob20hthp_12trials.xlsx,3,36,80,20,0,,,,,0,8,8,8,2,5,29,7,,,,,,,,3.5,1884.9853856000118,1888.4870769000263,1888.487154440017,0.30491010000696406,1888.931236500037,1888.931236500037,n,0.3710694999899715,1892.7029898000183,1892.7029898000183,8,3.009,,,,,sub-035,25,45,700,bloc_loop.csv,2023-07-03_16h51.55.962,PainUncertainty,2022.2.5,142.99278179176378,
aigu,moderee,stimuli/660Hz,stimuli/moderee,bloc_9,prob20hthp_12trials.xlsx,3,36,80,20,0,,,,,0,8,8,8,2,6,30,10,,,,,,,,4.5,1892.7029898000183,1897.2034137000446,1897.2034353400172,0.30560720001813024,1897.6530223000445,1897.6530223000445,n,0.5287450000178069,1900.5337251000456,1900.5337251000456,9,1.975,,,,,sub-035,25,45,700,bloc_loop.csv,2023-07-03_16h51.55.962,PainUncertainty,2022.2.5,142.99278179176378,
grave,forte,stimuli/330Hz,stimuli/forte,bloc_9,prob20hthp_12trials.xlsx,3,36,80,20,0,,,,,0,8,8,8,2,7,31,4,,,,,,,,4.6,1900.5337251000456,1905.1348089000094,1905.1350035400187,0.3050366000388749,1905.5794061000342,1905.5794061000342,m,0.2603256999864243,1907.4199518000241,1907.4199518000241,92,1.154,,,,,sub-035,25,45,700,bloc_loop.csv,2023-07-03_16h51.55.962,PainUncertainty,2022.2.5,142.99278179176378,
aigu,forte,stimuli/660Hz,stimuli/forte,bloc_9,prob20hthp_12trials.xlsx,3,36,80,20,0,,,,,0,8,8,8,2,8,32,11,,,,,,,,3.8,1907.4199518000241,1911.2189767000382,1911.219037240016,0.30512330000055954,1911.6671715000411,1911.6671715000411,m,0.31635280000045896,1913.604177900008,1913.604177900008,87,1.235,,,,,sub-035,25,45,700,bloc_loop.csv,2023-07-03_16h51.55.962,PainUncertainty,2022.2.5,142.99278179176378,
grave,forte,stimuli/330Hz,stimuli/forte,bloc_9,prob20hthp_12trials.xlsx,3,36,80,20,0,,,,,0,8,8,8,2,9,33,1,,,,,,,,3.7,1913.604177900008,1917.310103100026,1917.310098940035,0.3048609999823384,1917.7542230000254,1917.7542230000254,m,0.2615108999889344,1920.9868918000138,1920.9868918000138,90,2.585,,,,,sub-035,25,45,700,bloc_loop.csv,2023-07-03_16h51.55.962,PainUncertainty,2022.2.5,142.99278179176378,
aigu,moderee,stimuli/660Hz,stimuli/moderee,bloc_9,prob20hthp_12trials.xlsx,3,36,80,20,0,,,,,0,8,8,8,2,10,34,6,,,,,,,,3.7,1920.9868918000138,1924.6858886000118,1924.6859006400277,0.30505180003819987,1925.1301940000267,1925.1301940000267,n,0.5393940000212751,1927.4750318000442,1927.4750318000442,12,1.411,,,,,sub-035,25,45,700,bloc_loop.csv,2023-07-03_16h51.55.962,PainUncertainty,2022.2.5,142.99278179176378,
grave,moderee,stimuli/330Hz,stimuli/moderee,bloc_9,prob20hthp_12trials.xlsx,3,36,80,20,0,,,,,0,8,8,8,2,11,35,5,,,,,,,,4.1,1927.4750318000442,1931.5756741000223,1931.5755968399985,0.30510470003355294,1932.0203478000476,1932.0203478000476,n,0.4405864999862388,1935.9148635000456,1935.9148635000456,4,3.107,,,,,sub-035,25,45,700,bloc_loop.csv,2023-07-03_16h51.55.962,PainUncertainty,2022.2.5,142.99278179176378,
