cue_,stimulus_,cue_fichier,stimulus_fichier,block_name,block_trials_file,block_n_reps,block_ntrials,block_prob_highP_highT,block_prob_highP_lowT,block_pause_after,Bloc_essai.thisRepN,Bloc_essai.thisTrialN,Bloc_essai.thisN,Bloc_essai.thisIndex,blocks.thisRepN,blocks.thisTrialN,blocks.thisN,blocks.thisIndex,trials.thisRepN,trials.thisTrialN,trials.thisN,trials.thisIndex,pause_loop.thisRepN,pause_loop.thisTrialN,pause_loop.thisN,pause_loop.thisIndex,key_resp_5.started,start_calib.started,key_resp_2.started,ISI_duration,pause.started,pause.stopped,cue.started,ISI.started,choice_pain.started,Choice.started,choice_pain.keys,choice_pain.rt,main_text.started,confirm_text.started,ratingScale.response,ratingScale.rt,key_resp_3.started,key_resp_6.started,participant,low_ma,high_ma,failsafe_ma,block_file,date,expName,psychopyVersion,frameRate,
aigu,forte,stimuli/660Hz,stimuli/forte,,,,,,,,0,0,0,3,,,,,,,,,,,,,17.141140099999987,23.035361999999992,25.306470199999993,4.3,26.67951819999999,30.98864669999999,30.9882002,0.2992083999999977,31.435385499999995,31.435385499999995,m,1.034920999999997,35.298278499999995,35.298278499999995,69,2.585,,,sub-018,50,100,700,bloc_loop.csv,2023-05-31_12h33.58.155,PainUncertainty,2022.2.5,143.34513063758314,
grave,forte,stimuli/330Hz,stimuli/forte,,,,,,,,0,1,1,1,,,,,,,,,,,,,,,,4,35.298278499999995,39.30105209999999,39.301284299999985,0.3091799999999978,39.75333629999999,39.75333629999999,m,0.7989543000000054,41.966986399999996,41.966986399999996,80,0.837,,,sub-018,50,100,700,bloc_loop.csv,2023-05-31_12h33.58.155,PainUncertainty,2022.2.5,143.34513063758314,
aigu,moderee,stimuli/660Hz,stimuli/moderee,,,,,,,,0,2,2,2,,,,,,,,,,,,,,,,3.2,41.966986399999996,45.17004689999999,45.170150099999994,0.30493330000000185,45.614382899999995,45.614382899999995,n,0.7894443999999936,47.531508099999996,47.531508099999996,20,0.913,,,sub-018,50,100,700,bloc_loop.csv,2023-05-31_12h33.58.155,PainUncertainty,2022.2.5,143.34513063758314,
grave,moderee,stimuli/330Hz,stimuli/moderee,,,,,,,,0,3,3,0,,,,,,,,,,,,,,,,3.6,47.531508099999996,51.1360706,51.13617849999999,0.30676270000000727,51.5874597,51.5874597,n,0.7787378000000018,53.455432599999995,53.455432599999995,9,1.059,,,sub-018,50,100,700,bloc_loop.csv,2023-05-31_12h33.58.155,PainUncertainty,2022.2.5,143.34513063758314,
aigu,moderee,stimuli/660Hz,stimuli/moderee,bloc_1,prob20hthp_12trials.xlsx,4,48,20,80,0,,,,,0,0,0,0,0,0,0,8,,,,,,,,3.5,87.2942316,90.79346249999999,90.79336049999999,0.2995110999999895,91.23191679999998,91.23191679999998,n,0.5881123000000201,93.06772840000001,93.06772840000001,10,1.039,,,sub-018,50,100,700,bloc_loop.csv,2023-05-31_12h33.58.155,PainUncertainty,2022.2.5,143.34513063758314,
aigu,moderee,stimuli/660Hz,stimuli/moderee,bloc_1,prob20hthp_12trials.xlsx,4,48,20,80,0,,,,,0,0,0,0,0,1,1,10,,,,,,,,4.4,93.06772840000001,97.4678525,97.4678661,0.3042658999999901,97.91535359999999,97.91535359999999,n,0.5595297999999929,99.8293613,99.8293613,13,1.148,,,sub-018,50,100,700,bloc_loop.csv,2023-05-31_12h33.58.155,PainUncertainty,2022.2.5,143.34513063758314,
grave,forte,stimuli/330Hz,stimuli/forte,bloc_1,prob20hthp_12trials.xlsx,4,48,20,80,0,,,,,0,0,0,0,0,2,2,4,,,,,,,,4.2,99.8293613,104.03128119999998,104.0311544,0.3055463999999972,104.47556299999998,104.47556299999998,m,0.6165292000000164,107.2330831,107.2330831,48,1.929,,,sub-018,50,100,700,bloc_loop.csv,2023-05-31_12h33.58.155,PainUncertainty,2022.2.5,143.34513063758314,
grave,forte,stimuli/330Hz,stimuli/forte,bloc_1,prob20hthp_12trials.xlsx,4,48,20,80,0,,,,,0,0,0,0,0,3,3,0,,,,,,,,3.7,107.2330831,110.93483339999999,110.934791,0.30563340000000494,111.37905499999998,111.37905499999998,m,0.4755889000000053,112.90796769999999,112.90796769999999,59,0.847,,,sub-018,50,100,700,bloc_loop.csv,2023-05-31_12h33.58.155,PainUncertainty,2022.2.5,143.34513063758314,
grave,moderee,stimuli/330Hz,stimuli/moderee,bloc_1,prob20hthp_12trials.xlsx,4,48,20,80,0,,,,,0,0,0,0,0,4,4,5,,,,,,,,4.5,112.90796769999999,117.4078426,117.40780869999999,0.3019204000000002,117.85234869999998,117.85234869999998,n,0.6082375000000155,120.67839779999998,120.67839779999998,19,2.019,,,sub-018,50,100,700,bloc_loop.csv,2023-05-31_12h33.58.155,PainUncertainty,2022.2.5,143.34513063758314,
grave,forte,stimuli/330Hz,stimuli/forte,bloc_1,prob20hthp_12trials.xlsx,4,48,20,80,0,,,,,0,0,0,0,0,5,5,3,,,,,,,,4.8,120.67839779999998,125.47818159999998,125.47813459999999,0.30334080000000085,125.9227431,125.9227431,m,0.5112453000000272,128.04951239999997,128.04951239999997,61,1.423,,,sub-018,50,100,700,bloc_loop.csv,2023-05-31_12h33.58.155,PainUncertainty,2022.2.5,143.34513063758314,
aigu,moderee,stimuli/660Hz,stimuli/moderee,bloc_1,prob20hthp_12trials.xlsx,4,48,20,80,0,,,,,0,0,0,0,0,6,6,7,,,,,,,,4.3,128.04951239999997,132.3541106,132.35398759999998,0.2994376999999986,132.79251649999998,132.79251649999998,n,0.6139332000000053,135.8369905,135.8369905,18,2.235,,,sub-018,50,100,700,bloc_loop.csv,2023-05-31_12h33.58.155,PainUncertainty,2022.2.5,143.34513063758314,
aigu,moderee,stimuli/660Hz,stimuli/moderee,bloc_1,prob20hthp_12trials.xlsx,4,48,20,80,0,,,,,0,0,0,0,0,7,7,9,,,,,,,,4.4,135.8369905,140.23702579999997,140.23700639999998,0.3048233999999752,140.68124109999997,140.68124109999997,n,0.6209625000000045,143.2224104,143.2224104,21,1.721,,,sub-018,50,100,700,bloc_loop.csv,2023-05-31_12h33.58.155,PainUncertainty,2022.2.5,143.34513063758314,
grave,forte,stimuli/330Hz,stimuli/forte,bloc_1,prob20hthp_12trials.xlsx,4,48,20,80,0,,,,,0,0,0,0,0,8,8,1,,,,,,,,3.2,143.2224104,146.42596959999997,146.4259679,0.2997866999999985,146.8698951,146.8698951,m,0.9592267000000021,149.49223519999998,149.49223519999998,54,1.466,,,sub-018,50,100,700,bloc_loop.csv,2023-05-31_12h33.58.155,PainUncertainty,2022.2.5,143.34513063758314,
aigu,moderee,stimuli/660Hz,stimuli/moderee,bloc_1,prob20hthp_12trials.xlsx,4,48,20,80,0,,,,,0,0,0,0,0,9,9,6,,,,,,,,4.6,149.49223519999998,154.09399200000001,154.0944917,0.30044789999999466,154.5380134,154.5380134,n,0.639445699999996,156.1421413,156.1421413,20,0.763,,,sub-018,50,100,700,bloc_loop.csv,2023-05-31_12h33.58.155,PainUncertainty,2022.2.5,143.34513063758314,
aigu,forte,stimuli/660Hz,stimuli/forte,bloc_1,prob20hthp_12trials.xlsx,4,48,20,80,0,,,,,0,0,0,0,0,10,10,11,,,,,,,,4.8,156.1421413,160.94778159999998,160.94790590000002,0.30539519999999243,161.39419429999998,161.39419429999998,m,0.5428457999999949,163.73689559999997,163.73689559999997,55,1.602,,,sub-018,50,100,700,bloc_loop.csv,2023-05-31_12h33.58.155,PainUncertainty,2022.2.5,143.34513063758314,
grave,forte,stimuli/330Hz,stimuli/forte,bloc_1,prob20hthp_12trials.xlsx,4,48,20,80,0,,,,,0,0,0,0,0,11,11,2,,,,,,,,3.8,163.73689559999997,167.5386861,167.5389126,0.30236759999999663,167.98306309999998,167.98306309999998,m,0.6361420999999865,169.97212639999998,169.97212639999998,55,1.15,,,sub-018,50,100,700,bloc_loop.csv,2023-05-31_12h33.58.155,PainUncertainty,2022.2.5,143.34513063758314,
grave,forte,stimuli/330Hz,stimuli/forte,bloc_1,prob20hthp_12trials.xlsx,4,48,20,80,0,,,,,0,0,0,0,1,0,12,1,,,,,,,,3.9,169.97212639999998,173.87316979999997,173.87303429999997,0.30485740000000305,174.3212148,174.3212148,m,0.5729506999999927,175.90484429999998,175.90484429999998,59,0.802,,,sub-018,50,100,700,bloc_loop.csv,2023-05-31_12h33.58.155,PainUncertainty,2022.2.5,143.34513063758314,
grave,forte,stimuli/330Hz,stimuli/forte,bloc_1,prob20hthp_12trials.xlsx,4,48,20,80,0,,,,,0,0,0,0,1,1,13,2,,,,,,,,5,175.90484429999998,180.90859790000002,180.9085973,0.301146000000017,181.35307109999997,181.35307109999997,m,0.48977310000002205,183.32338319999997,183.32338319999997,70,1.261,,,sub-018,50,100,700,bloc_loop.csv,2023-05-31_12h33.58.155,PainUncertainty,2022.2.5,143.34513063758314,
aigu,moderee,stimuli/660Hz,stimuli/moderee,bloc_1,prob20hthp_12trials.xlsx,4,48,20,80,0,,,,,0,0,0,0,1,2,14,9,,,,,,,,4.2,183.32338319999997,187.52749439999997,187.52742469999998,0.30110000000001946,187.9718494,187.9718494,n,0.743504399999992,191.17789349999998,191.17789349999998,15,1.908,,,sub-018,50,100,700,bloc_loop.csv,2023-05-31_12h33.58.155,PainUncertainty,2022.2.5,143.34513063758314,
aigu,moderee,stimuli/660Hz,stimuli/moderee,bloc_1,prob20hthp_12trials.xlsx,4,48,20,80,0,,,,,0,0,0,0,1,3,15,7,,,,,,,,3.6,191.17789349999998,194.77834000000001,194.778499,0.2991991000000098,195.2169144,195.2169144,n,0.6917201000000119,197.5100114,197.5100114,13,1.394,,,sub-018,50,100,700,bloc_loop.csv,2023-05-31_12h33.58.155,PainUncertainty,2022.2.5,143.34513063758314,
grave,forte,stimuli/330Hz,stimuli/forte,bloc_1,prob20hthp_12trials.xlsx,4,48,20,80,0,,,,,0,0,0,0,1,4,16,4,,,,,,,,5,197.5100114,202.51563270000003,202.5155855,0.2993092000000388,202.95360540000001,202.95360540000001,m,0.5033532000000065,205.39360420000003,205.39360420000003,64,1.367,,,sub-018,50,100,700,bloc_loop.csv,2023-05-31_12h33.58.155,PainUncertainty,2022.2.5,143.34513063758314,
grave,forte,stimuli/330Hz,stimuli/forte,bloc_1,prob20hthp_12trials.xlsx,4,48,20,80,0,,,,,0,0,0,0,1,5,17,3,,,,,,,,4.3,205.39360420000003,209.6967987,209.6967623,0.30547630000000936,210.1411129,210.1411129,m,0.53595159999999,212.74813690000002,212.74813690000002,67,1.845,,,sub-018,50,100,700,bloc_loop.csv,2023-05-31_12h33.58.155,PainUncertainty,2022.2.5,143.34513063758314,
aigu,moderee,stimuli/660Hz,stimuli/moderee,bloc_1,prob20hthp_12trials.xlsx,4,48,20,80,0,,,,,0,0,0,0,1,6,18,8,,,,,,,,5,212.74813690000002,217.75334900000001,217.75316229999999,0.3049740000000156,218.19741020000004,218.19741020000004,n,0.6519439000000062,220.95438760000002,220.95438760000002,18,1.517,,,sub-018,50,100,700,bloc_loop.csv,2023-05-31_12h33.58.155,PainUncertainty,2022.2.5,143.34513063758314,
grave,forte,stimuli/330Hz,stimuli/forte,bloc_1,prob20hthp_12trials.xlsx,4,48,20,80,0,,,,,0,0,0,0,1,7,19,0,,,,,,,,4.4,220.95438760000002,225.3582328,225.3582793,0.30138040000002775,225.8030127,225.8030127,m,1.081545800000029,228.6125111,228.6125111,56,1.532,,,sub-018,50,100,700,bloc_loop.csv,2023-05-31_12h33.58.155,PainUncertainty,2022.2.5,143.34513063758314,
grave,moderee,stimuli/330Hz,stimuli/moderee,bloc_1,prob20hthp_12trials.xlsx,4,48,20,80,0,,,,,0,0,0,0,1,8,20,5,,,,,,,,4.2,228.6125111,232.8175602,232.81768520000003,0.3043966000000182,233.26521460000004,233.26521460000004,n,0.6858191000000176,237.4710174,237.4710174,18,3.305,,,sub-018,50,100,700,bloc_loop.csv,2023-05-31_12h33.58.155,PainUncertainty,2022.2.5,143.34513063758314,
aigu,moderee,stimuli/660Hz,stimuli/moderee,bloc_1,prob20hthp_12trials.xlsx,4,48,20,80,0,,,,,0,0,0,0,1,9,21,6,,,,,,,,4.5,237.4710174,241.9717533,241.97307160000003,0.3035127999999645,242.41555060000002,242.41555060000002,n,0.6012761000000211,244.8873966,244.8873966,19,1.658,,,sub-018,50,100,700,bloc_loop.csv,2023-05-31_12h33.58.155,PainUncertainty,2022.2.5,143.34513063758314,
aigu,forte,stimuli/660Hz,stimuli/forte,bloc_1,prob20hthp_12trials.xlsx,4,48,20,80,0,,,,,0,0,0,0,1,10,22,11,,,,,,,,3.9,244.8873966,248.79214960000002,248.7921255,0.3080770000000257,249.2428235,249.2428235,m,0.6108798000000348,251.6684566,251.6684566,73,1.594,,,sub-018,50,100,700,bloc_loop.csv,2023-05-31_12h33.58.155,PainUncertainty,2022.2.5,143.34513063758314,
aigu,moderee,stimuli/660Hz,stimuli/moderee,bloc_1,prob20hthp_12trials.xlsx,4,48,20,80,0,,,,,0,0,0,0,1,11,23,10,,,,,,,,4.1,251.6684566,255.77167150000002,255.77177420000004,0.30503120000003037,256.2158619,256.2158619,n,0.6304718999999892,258.2543714,258.2543714,22,1.163,,,sub-018,50,100,700,bloc_loop.csv,2023-05-31_12h33.58.155,PainUncertainty,2022.2.5,143.34513063758314,
aigu,forte,stimuli/660Hz,stimuli/forte,bloc_1,prob20hthp_12trials.xlsx,4,48,20,80,0,,,,,0,0,0,0,2,0,24,11,,,,,,,,4.1,258.2543714,262.3558535,262.3558718,0.29934789999998657,262.7941312,262.7941312,m,0.6002297999999797,265.9294777,265.9294777,71,2.34,,,sub-018,50,100,700,bloc_loop.csv,2023-05-31_12h33.58.155,PainUncertainty,2022.2.5,143.34513063758314,
aigu,moderee,stimuli/660Hz,stimuli/moderee,bloc_1,prob20hthp_12trials.xlsx,4,48,20,80,0,,,,,0,0,0,0,2,1,25,8,,,,,,,,3,265.9294777,268.93308030000003,268.9332098,0.3051494000000048,269.3779503,269.3779503,n,0.599601700000008,271.5732888,271.5732888,17,1.38,,,sub-018,50,100,700,bloc_loop.csv,2023-05-31_12h33.58.155,PainUncertainty,2022.2.5,143.34513063758314,
grave,moderee,stimuli/330Hz,stimuli/moderee,bloc_1,prob20hthp_12trials.xlsx,4,48,20,80,0,,,,,0,0,0,0,2,2,26,5,,,,,,,,3.9,271.5732888,275.4759285,275.47600220000004,0.30582379999998466,275.924865,275.924865,n,0.6866936999999922,278.7207487,278.7207487,18,1.908,,,sub-018,50,100,700,bloc_loop.csv,2023-05-31_12h33.58.155,PainUncertainty,2022.2.5,143.34513063758314,
grave,forte,stimuli/330Hz,stimuli/forte,bloc_1,prob20hthp_12trials.xlsx,4,48,20,80,0,,,,,0,0,0,0,2,3,27,1,,,,,,,,3.4,278.7207487,282.1223317,282.1224371,0.2992478999999548,282.5612194,282.5612194,m,0.7930761999999874,284.7161736,284.7161736,70,1.138,,,sub-018,50,100,700,bloc_loop.csv,2023-05-31_12h33.58.155,PainUncertainty,2022.2.5,143.34513063758314,
grave,forte,stimuli/330Hz,stimuli/forte,bloc_1,prob20hthp_12trials.xlsx,4,48,20,80,0,,,,,0,0,0,0,2,4,28,0,,,,,,,,3.2,284.7161736,287.9215032,287.9215055,0.305012300000044,288.3655973,288.3655973,m,0.5096716000000043,290.59919130000003,290.59919130000003,65,1.526,,,sub-018,50,100,700,bloc_loop.csv,2023-05-31_12h33.58.155,PainUncertainty,2022.2.5,143.34513063758314,
aigu,moderee,stimuli/660Hz,stimuli/moderee,bloc_1,prob20hthp_12trials.xlsx,4,48,20,80,0,,,,,0,0,0,0,2,5,29,7,,,,,,,,3.4,290.59919130000003,293.9986753,293.9985509,0.30541970000001584,294.442951,294.442951,n,0.6885459999999881,297.7313257,297.7313257,13,2.379,,,sub-018,50,100,700,bloc_loop.csv,2023-05-31_12h33.58.155,PainUncertainty,2022.2.5,143.34513063758314,
grave,forte,stimuli/330Hz,stimuli/forte,bloc_1,prob20hthp_12trials.xlsx,4,48,20,80,0,,,,,0,0,0,0,2,6,30,3,,,,,,,,3.3,297.7313257,301.0341146,301.0341819,0.30492739999999685,301.4821782,301.4821782,m,0.5599817999999601,302.9101945,302.9101945,70,0.664,,,sub-018,50,100,700,bloc_loop.csv,2023-05-31_12h33.58.155,PainUncertainty,2022.2.5,143.34513063758314,
aigu,moderee,stimuli/660Hz,stimuli/moderee,bloc_1,prob20hthp_12trials.xlsx,4,48,20,80,0,,,,,0,0,0,0,2,7,31,10,,,,,,,,4.6,302.9101945,307.5145206,307.51700420000003,0.3003069000000096,307.9601567,307.9601567,n,0.6588271000000105,310.9377116,310.9377116,11,2.109,,,sub-018,50,100,700,bloc_loop.csv,2023-05-31_12h33.58.155,PainUncertainty,2022.2.5,143.34513063758314,
grave,forte,stimuli/330Hz,stimuli/forte,bloc_1,prob20hthp_12trials.xlsx,4,48,20,80,0,,,,,0,0,0,0,2,8,32,4,,,,,,,,4.7,310.9377116,315.6399109,315.6399088,0.30551750000000766,316.0881035,316.0881035,m,0.9619452000000166,318.9479978,318.9479978,66,1.687,,,sub-018,50,100,700,bloc_loop.csv,2023-05-31_12h33.58.155,PainUncertainty,2022.2.5,143.34513063758314,
aigu,moderee,stimuli/660Hz,stimuli/moderee,bloc_1,prob20hthp_12trials.xlsx,4,48,20,80,0,,,,,0,0,0,0,2,9,33,6,,,,,,,,3.5,318.9479978,322.45340120000003,322.4535482,0.3049900999999977,322.8974898,322.8974898,m,0.7652899000000417,327.0049627,327.0049627,34,3.145,,,sub-018,50,100,700,bloc_loop.csv,2023-05-31_12h33.58.155,PainUncertainty,2022.2.5,143.34513063758314,
aigu,moderee,stimuli/660Hz,stimuli/moderee,bloc_1,prob20hthp_12trials.xlsx,4,48,20,80,0,,,,,0,0,0,0,2,10,34,9,,,,,,,,3.5,327.0049627,330.50989450000003,330.5100598,0.3036564999999882,330.9544235,330.9544235,m,0.6154796999999945,334.1521875,334.1521875,34,2.367,,,sub-018,50,100,700,bloc_loop.csv,2023-05-31_12h33.58.155,PainUncertainty,2022.2.5,143.34513063758314,
grave,forte,stimuli/330Hz,stimuli/forte,bloc_1,prob20hthp_12trials.xlsx,4,48,20,80,0,,,,,0,0,0,0,2,11,35,2,,,,,,,,3.2,334.1521875,337.3522639,337.3516263,0.3046863000000144,337.7955935,337.7955935,m,0.5068584000000129,340.0835462,340.0835462,68,1.587,,,sub-018,50,100,700,bloc_loop.csv,2023-05-31_12h33.58.155,PainUncertainty,2022.2.5,143.34513063758314,
aigu,moderee,stimuli/660Hz,stimuli/moderee,bloc_1,prob20hthp_12trials.xlsx,4,48,20,80,0,,,,,0,0,0,0,3,0,36,10,,,,,,,,4.1,340.0835462,344.1852778,344.1852898,0.30149990000001026,344.629809,344.629809,n,0.6584593000000183,346.4313881,346.4313881,27,0.941,,,sub-018,50,100,700,bloc_loop.csv,2023-05-31_12h33.58.155,PainUncertainty,2022.2.5,143.34513063758314,
aigu,moderee,stimuli/660Hz,stimuli/moderee,bloc_1,prob20hthp_12trials.xlsx,4,48,20,80,0,,,,,0,0,0,0,3,1,37,8,,,,,,,,4.6,346.4313881,351.03339470000003,351.0334058,0.3049744999999575,351.4778714,351.4778714,m,1.0866258999999587,354.3781033,354.3781033,43,1.61,,,sub-018,50,100,700,bloc_loop.csv,2023-05-31_12h33.58.155,PainUncertainty,2022.2.5,143.34513063758314,
grave,moderee,stimuli/330Hz,stimuli/moderee,bloc_1,prob20hthp_12trials.xlsx,4,48,20,80,0,,,,,0,0,0,0,3,2,38,5,,,,,,,,3.3,354.3781033,357.6802748,357.68236310000003,0.29983579999998256,358.12453320000003,358.12453320000003,m,1.2838813000000329,361.12638630000004,361.12638630000004,29,1.497,,,sub-018,50,100,700,bloc_loop.csv,2023-05-31_12h33.58.155,PainUncertainty,2022.2.5,143.34513063758314,
grave,forte,stimuli/330Hz,stimuli/forte,bloc_1,prob20hthp_12trials.xlsx,4,48,20,80,0,,,,,0,0,0,0,3,3,39,0,,,,,,,,4.7,361.12638630000004,365.8272754,365.82702770000003,0.30427939999998443,366.2711335,366.2711335,m,0.5785646000000071,368.5297714,368.5297714,63,1.464,,,sub-018,50,100,700,bloc_loop.csv,2023-05-31_12h33.58.155,PainUncertainty,2022.2.5,143.34513063758314,
aigu,moderee,stimuli/660Hz,stimuli/moderee,bloc_1,prob20hthp_12trials.xlsx,4,48,20,80,0,,,,,0,0,0,0,3,4,40,7,,,,,,,,3,368.5297714,371.5287564,371.528883,0.3017520000000218,371.9746351,371.9746351,n,0.6782592999999935,375.6434082,375.6434082,16,2.79,,,sub-018,50,100,700,bloc_loop.csv,2023-05-31_12h33.58.155,PainUncertainty,2022.2.5,143.34513063758314,
grave,forte,stimuli/330Hz,stimuli/forte,bloc_1,prob20hthp_12trials.xlsx,4,48,20,80,0,,,,,0,0,0,0,3,5,41,2,,,,,,,,4.2,375.6434082,379.842773,379.8426279,0.29958579999998847,380.2870737,380.2870737,m,0.570726300000004,382.5981114,382.5981114,67,1.541,,,sub-018,50,100,700,bloc_loop.csv,2023-05-31_12h33.58.155,PainUncertainty,2022.2.5,143.34513063758314,
grave,forte,stimuli/330Hz,stimuli/forte,bloc_1,prob20hthp_12trials.xlsx,4,48,20,80,0,,,,,0,0,0,0,3,6,42,1,,,,,,,,3.2,382.5981114,385.8018902,385.8021344,0.3045556000000147,386.2459437,386.2459437,m,0.7500779999999878,389.47490750000003,389.47490750000003,65,2.274,,,sub-018,50,100,700,bloc_loop.csv,2023-05-31_12h33.58.155,PainUncertainty,2022.2.5,143.34513063758314,
grave,forte,stimuli/330Hz,stimuli/forte,bloc_1,prob20hthp_12trials.xlsx,4,48,20,80,0,,,,,0,0,0,0,3,7,43,3,,,,,,,,4.9,389.47490750000003,394.378824,394.3790365,0.3001515999999924,394.82333370000003,394.82333370000003,m,0.5683238000000443,397.324184,397.324184,72,1.712,,,sub-018,50,100,700,bloc_loop.csv,2023-05-31_12h33.58.155,PainUncertainty,2022.2.5,143.34513063758314,
aigu,forte,stimuli/660Hz,stimuli/forte,bloc_1,prob20hthp_12trials.xlsx,4,48,20,80,0,,,,,0,0,0,0,3,8,44,11,,,,,,,,3.8,397.324184,401.1233017,401.1235206,0.30008520000001226,401.5675617,401.5675617,m,0.5959962999999817,403.0473912,403.0473912,70,0.69,,,sub-018,50,100,700,bloc_loop.csv,2023-05-31_12h33.58.155,PainUncertainty,2022.2.5,143.34513063758314,
aigu,moderee,stimuli/660Hz,stimuli/moderee,bloc_1,prob20hthp_12trials.xlsx,4,48,20,80,0,,,,,0,0,0,0,3,9,45,9,,,,,,,,3.7,403.0473912,406.7484942,406.7484164,0.3041076000000089,407.192853,407.192853,n,0.7068899000000357,409.41216810000003,409.41216810000003,13,1.317,,,sub-018,50,100,700,bloc_loop.csv,2023-05-31_12h33.58.155,PainUncertainty,2022.2.5,143.34513063758314,
grave,forte,stimuli/330Hz,stimuli/forte,bloc_1,prob20hthp_12trials.xlsx,4,48,20,80,0,,,,,0,0,0,0,3,10,46,4,,,,,,,,4,409.41216810000003,413.416418,413.4163333,0.306861500000025,413.8688641,413.8688641,m,0.5580011000000269,416.3030833,416.3030833,71,1.68,,,sub-018,50,100,700,bloc_loop.csv,2023-05-31_12h33.58.155,PainUncertainty,2022.2.5,143.34513063758314,
aigu,moderee,stimuli/660Hz,stimuli/moderee,bloc_1,prob20hthp_12trials.xlsx,4,48,20,80,0,,,,,0,0,0,0,3,11,47,6,,,,,,,,4.2,416.3030833,420.5074264,420.5072118,0.3019764000000009,420.952022,420.952022,n,0.6707184999999782,423.8846211,423.8846211,18,1.706,,,sub-018,50,100,700,bloc_loop.csv,2023-05-31_12h33.58.155,PainUncertainty,2022.2.5,143.34513063758314,
aigu,moderee,stimuli/660Hz,stimuli/moderee,bloc_2,prob50_50_4trials.xlsx,2,8,50,50,1,,,,,0,1,1,1,0,0,0,2,,,,,,,,5,423.8846211,428.8899148,428.8900082,0.3049224000000095,429.3340288,429.3340288,n,0.8745918999999986,431.5922437,431.5922437,25,1.173,,,sub-018,50,100,700,bloc_loop.csv,2023-05-31_12h33.58.155,PainUncertainty,2022.2.5,143.34513063758314,
grave,forte,stimuli/330Hz,stimuli/forte,bloc_2,prob50_50_4trials.xlsx,2,8,50,50,1,,,,,0,1,1,1,0,1,1,1,,,,,,,,4.8,431.5922437,436.3977432,436.3978725,0.30009480000001076,436.8422484,436.8422484,m,0.6361210999999827,439.6495667,439.6495667,78,1.964,,,sub-018,50,100,700,bloc_loop.csv,2023-05-31_12h33.58.155,PainUncertainty,2022.2.5,143.34513063758314,
aigu,forte,stimuli/660Hz,stimuli/forte,bloc_2,prob50_50_4trials.xlsx,2,8,50,50,1,,,,,0,1,1,1,0,2,2,3,,,,,,,,3.2,439.6495667,442.8505381,442.850799,0.3043744000000288,443.2944201,443.2944201,m,0.6384703000000087,445.86841400000003,445.86841400000003,73,1.732,,,sub-018,50,100,700,bloc_loop.csv,2023-05-31_12h33.58.155,PainUncertainty,2022.2.5,143.34513063758314,
grave,moderee,stimuli/330Hz,stimuli/moderee,bloc_2,prob50_50_4trials.xlsx,2,8,50,50,1,,,,,0,1,1,1,0,3,3,0,,,,,,,,4.4,445.86841400000003,450.2675505,450.26766779999997,0.3051159000000325,450.7120247,450.7120247,n,0.7382412000000755,454.0549577,454.0549577,17,2.393,,,sub-018,50,100,700,bloc_loop.csv,2023-05-31_12h33.58.155,PainUncertainty,2022.2.5,143.34513063758314,
grave,moderee,stimuli/330Hz,stimuli/moderee,bloc_2,prob50_50_4trials.xlsx,2,8,50,50,1,,,,,0,1,1,1,1,0,4,0,,,,,,,,5,454.0549577,459.06032369999997,459.0603524,0.299079499999948,459.49861089999996,459.49861089999996,n,0.6961503999999792,462.94384110000004,462.94384110000004,11,2.547,,,sub-018,50,100,700,bloc_loop.csv,2023-05-31_12h33.58.155,PainUncertainty,2022.2.5,143.34513063758314,
grave,forte,stimuli/330Hz,stimuli/forte,bloc_2,prob50_50_4trials.xlsx,2,8,50,50,1,,,,,0,1,1,1,1,1,5,1,,,,,,,,4.2,462.94384110000004,467.1446458,467.1446299,0.30837769999993725,467.5958158,467.5958158,m,0.6694338999999587,470.25247440000004,470.25247440000004,68,1.775,,,sub-018,50,100,700,bloc_loop.csv,2023-05-31_12h33.58.155,PainUncertainty,2022.2.5,143.34513063758314,
aigu,forte,stimuli/660Hz,stimuli/forte,bloc_2,prob50_50_4trials.xlsx,2,8,50,50,1,,,,,0,1,1,1,1,2,6,3,,,,,,,,4.2,470.25247440000004,474.4517228,474.4515724,0.301643399999989,474.8958525,474.8958525,m,0.6132702000000023,477.11028030000006,477.11028030000006,73,1.401,,,sub-018,50,100,700,bloc_loop.csv,2023-05-31_12h33.58.155,PainUncertainty,2022.2.5,143.34513063758314,
aigu,moderee,stimuli/660Hz,stimuli/moderee,bloc_2,prob50_50_4trials.xlsx,2,8,50,50,1,,,,,0,1,1,1,1,3,7,2,,,,,,,,3.4,477.11028030000006,480.51443720000003,480.51437189999996,0.30504610000002685,480.95871860000005,480.95871860000005,n,0.7382456000000417,485.67079889999997,485.67079889999997,17,1.941,,,sub-018,50,100,700,bloc_loop.csv,2023-05-31_12h33.58.155,PainUncertainty,2022.2.5,143.34513063758314,
,,,,bloc_2,prob50_50_4trials.xlsx,2,8,50,50,1,,,,,0,1,1,1,,,,,0,0,0,0,,,,,,,,,,,,,,,,,485.67079889999997,600.7371618999999,sub-018,50,100,700,bloc_loop.csv,2023-05-31_12h33.58.155,PainUncertainty,2022.2.5,143.34513063758314,
grave,forte,stimuli/330Hz,stimuli/forte,bloc_3,prob80hthp_12trials.xlsx,2,24,80,20,0,,,,,0,2,2,2,0,0,0,5,,,,,,,,4.2,602.6546540999999,606.8560302999999,606.8561139999999,0.3050402999999733,607.3002211999999,607.3002211999999,m,0.8101181999999909,609.5125984,609.5125984,31,1.178,,,sub-018,50,100,700,bloc_loop.csv,2023-05-31_12h33.58.155,PainUncertainty,2022.2.5,143.34513063758314,
aigu,moderee,stimuli/660Hz,stimuli/moderee,bloc_3,prob80hthp_12trials.xlsx,2,24,80,20,0,,,,,0,2,2,2,0,1,1,11,,,,,,,,4.3,609.5125984,613.8152494,613.8155052999999,0.30136559999994006,614.2595947,614.2595947,n,0.6341978999998474,616.1005897,616.1005897,20,1.0,,,sub-018,50,100,700,bloc_loop.csv,2023-05-31_12h33.58.155,PainUncertainty,2022.2.5,143.34513063758314,
aigu,forte,stimuli/660Hz,stimuli/forte,bloc_3,prob80hthp_12trials.xlsx,2,24,80,20,0,,,,,0,2,2,2,0,2,2,8,,,,,,,,4.1,616.1005897,620.2049619999999,620.2052223999999,0.3063712000000578,620.6563246,620.6563246,m,0.6009211000000079,622.8146787,622.8146787,62,1.351,,,sub-018,50,100,700,bloc_loop.csv,2023-05-31_12h33.58.155,PainUncertainty,2022.2.5,143.34513063758314,
grave,moderee,stimuli/330Hz,stimuli/moderee,bloc_3,prob80hthp_12trials.xlsx,2,24,80,20,0,,,,,0,2,2,2,0,3,3,1,,,,,,,,3.2,622.8146787,626.0181993,626.0181976,0.30511300000000574,626.4667158999999,626.4667158999999,n,0.6329080000000005,629.1940172,629.1940172,7,1.899,,,sub-018,50,100,700,bloc_loop.csv,2023-05-31_12h33.58.155,PainUncertainty,2022.2.5,143.34513063758314,
aigu,forte,stimuli/660Hz,stimuli/forte,bloc_3,prob80hthp_12trials.xlsx,2,24,80,20,0,,,,,0,2,2,2,0,4,4,7,,,,,,,,3.6,629.1940172,632.7969394999999,632.7969737,0.3009809000000132,633.2417997,633.2417997,m,0.6365919999999079,635.7498393999999,635.7498393999999,76,1.656,,,sub-018,50,100,700,bloc_loop.csv,2023-05-31_12h33.58.155,PainUncertainty,2022.2.5,143.34513063758314,
aigu,forte,stimuli/660Hz,stimuli/forte,bloc_3,prob80hthp_12trials.xlsx,2,24,80,20,0,,,,,0,2,2,2,0,5,5,10,,,,,,,,4.4,635.7498393999999,640.1519387,640.1519500999999,0.305185100000017,640.5964379,640.5964379,m,0.9262361000000539,644.4482313,644.4482313,72,2.708,,,sub-018,50,100,700,bloc_loop.csv,2023-05-31_12h33.58.155,PainUncertainty,2022.2.5,143.34513063758314,
grave,moderee,stimuli/330Hz,stimuli/moderee,bloc_3,prob80hthp_12trials.xlsx,2,24,80,20,0,,,,,0,2,2,2,0,6,6,0,,,,,,,,3.7,644.4482313,648.1527466,648.1528165,0.30477970000004007,648.5970332999999,648.5970332999999,n,0.6195742000000592,651.0346771,651.0346771,9,1.61,,,sub-018,50,100,700,bloc_loop.csv,2023-05-31_12h33.58.155,PainUncertainty,2022.2.5,143.34513063758314,
aigu,forte,stimuli/660Hz,stimuli/forte,bloc_3,prob80hthp_12trials.xlsx,2,24,80,20,0,,,,,0,2,2,2,0,7,7,9,,,,,,,,3.4,651.0346771,654.4382836999999,654.4384646,0.30493090000004486,654.8825473999999,654.8825473999999,m,0.9094771000000748,657.1265023999999,657.1265023999999,68,1.143,,,sub-018,50,100,700,bloc_loop.csv,2023-05-31_12h33.58.155,PainUncertainty,2022.2.5,143.34513063758314,
grave,moderee,stimuli/330Hz,stimuli/moderee,bloc_3,prob80hthp_12trials.xlsx,2,24,80,20,0,,,,,0,2,2,2,0,8,8,4,,,,,,,,3.2,657.1265023999999,660.3279023,660.3279351,0.3012473,660.7723119,660.7723119,n,0.5757564999999687,663.0271217,663.0271217,10,1.456,,,sub-018,50,100,700,bloc_loop.csv,2023-05-31_12h33.58.155,PainUncertainty,2022.2.5,143.34513063758314,
grave,moderee,stimuli/330Hz,stimuli/moderee,bloc_3,prob80hthp_12trials.xlsx,2,24,80,20,0,,,,,0,2,2,2,0,9,9,2,,,,,,,,4,663.0271217,667.0301338999999,667.0301168999999,0.30067810000002737,667.4745061,667.4745061,n,0.6151843999999329,671.5807044999999,671.5807044999999,15,3.291,,,sub-018,50,100,700,bloc_loop.csv,2023-05-31_12h33.58.155,PainUncertainty,2022.2.5,143.34513063758314,
grave,moderee,stimuli/330Hz,stimuli/moderee,bloc_3,prob80hthp_12trials.xlsx,2,24,80,20,0,,,,,0,2,2,2,0,10,10,3,,,,,,,,4.5,671.5807044999999,676.0798090999999,676.0798368,0.3053619999999455,676.5242791,676.5242791,n,0.6369587000001076,678.4556144999999,678.4556144999999,17,1.102,,,sub-018,50,100,700,bloc_loop.csv,2023-05-31_12h33.58.155,PainUncertainty,2022.2.5,143.34513063758314,
aigu,forte,stimuli/660Hz,stimuli/forte,bloc_3,prob80hthp_12trials.xlsx,2,24,80,20,0,,,,,0,2,2,2,0,11,11,6,,,,,,,,3.6,678.4556144999999,682.0597634,682.0596554,0.30527169999993475,682.5038235999999,682.5038235999999,m,0.5508457000000391,684.9150010999999,684.9150010999999,76,1.607,,,sub-018,50,100,700,bloc_loop.csv,2023-05-31_12h33.58.155,PainUncertainty,2022.2.5,143.34513063758314,
grave,moderee,stimuli/330Hz,stimuli/moderee,bloc_3,prob80hthp_12trials.xlsx,2,24,80,20,0,,,,,0,2,2,2,1,0,12,4,,,,,,,,3.5,684.9150010999999,688.4146841999999,688.4146757,0.3069034999999758,688.8666070999999,688.8666070999999,n,0.6621048000000229,692.0510213,692.0510213,13,1.97,,,sub-018,50,100,700,bloc_loop.csv,2023-05-31_12h33.58.155,PainUncertainty,2022.2.5,143.34513063758314,
grave,moderee,stimuli/330Hz,stimuli/moderee,bloc_3,prob80hthp_12trials.xlsx,2,24,80,20,0,,,,,0,2,2,2,1,1,13,0,,,,,,,,3.4,692.0510213,695.4506954999999,695.4506994999999,0.3051633000000038,695.8992483999999,695.8992483999999,n,0.5868184000000412,697.968665,697.968665,13,1.263,,,sub-018,50,100,700,bloc_loop.csv,2023-05-31_12h33.58.155,PainUncertainty,2022.2.5,143.34513063758314,
grave,moderee,stimuli/330Hz,stimuli/moderee,bloc_3,prob80hthp_12trials.xlsx,2,24,80,20,0,,,,,0,2,2,2,1,2,14,3,,,,,,,,3.6,697.968665,701.5692677,701.5693435,0.2990243000000419,702.0101447999999,702.0101447999999,n,0.6375582000000151,704.7468941999999,704.7468941999999,15,1.883,,,sub-018,50,100,700,bloc_loop.csv,2023-05-31_12h33.58.155,PainUncertainty,2022.2.5,143.34513063758314,
grave,moderee,stimuli/330Hz,stimuli/moderee,bloc_3,prob80hthp_12trials.xlsx,2,24,80,20,0,,,,,0,2,2,2,1,3,15,1,,,,,,,,5,704.7468941999999,709.7506228,709.7506536999999,0.30496449999998276,710.1946952,710.1946952,n,1.1189348999999567,713.3460514,713.3460514,22,1.836,,,sub-018,50,100,700,bloc_loop.csv,2023-05-31_12h33.58.155,PainUncertainty,2022.2.5,143.34513063758314,
aigu,moderee,stimuli/660Hz,stimuli/moderee,bloc_3,prob80hthp_12trials.xlsx,2,24,80,20,0,,,,,0,2,2,2,1,4,16,11,,,,,,,,4.9,713.3460514,718.2516691,718.2517277999999,0.3012347999999747,718.6962926,718.6962926,n,0.621849599999976,721.9826443,721.9826443,16,2.448,,,sub-018,50,100,700,bloc_loop.csv,2023-05-31_12h33.58.155,PainUncertainty,2022.2.5,143.34513063758314,
aigu,forte,stimuli/660Hz,stimuli/forte,bloc_3,prob80hthp_12trials.xlsx,2,24,80,20,0,,,,,0,2,2,2,1,5,17,10,,,,,,,,3.3,721.9826443,725.2872543999999,725.2872606,0.3006275000000187,725.7330887999999,725.7330887999999,m,0.8828683000001121,728.4087016,728.4087016,59,1.579,,,sub-018,50,100,700,bloc_loop.csv,2023-05-31_12h33.58.155,PainUncertainty,2022.2.5,143.34513063758314,
aigu,forte,stimuli/660Hz,stimuli/forte,bloc_3,prob80hthp_12trials.xlsx,2,24,80,20,0,,,,,0,2,2,2,1,6,18,8,,,,,,,,5,728.4087016,733.4136385999999,733.4134505,0.3053403999999773,733.8574332,733.8574332,m,0.6358247000001285,735.2825223,735.2825223,70,0.594,,,sub-018,50,100,700,bloc_loop.csv,2023-05-31_12h33.58.155,PainUncertainty,2022.2.5,143.34513063758314,
grave,forte,stimuli/330Hz,stimuli/forte,bloc_3,prob80hthp_12trials.xlsx,2,24,80,20,0,,,,,0,2,2,2,1,7,19,5,,,,,,,,4.9,735.2825223,740.1849385999999,740.1848769,0.30364829999996346,740.6293916,740.6293916,m,0.5810139999999393,742.9887951999999,742.9887951999999,69,1.58,,,sub-018,50,100,700,bloc_loop.csv,2023-05-31_12h33.58.155,PainUncertainty,2022.2.5,143.34513063758314,
aigu,forte,stimuli/660Hz,stimuli/forte,bloc_3,prob80hthp_12trials.xlsx,2,24,80,20,0,,,,,0,2,2,2,1,8,20,6,,,,,,,,3.3,742.9887951999999,746.2898991,746.2898355,0.3049699000000601,746.734126,746.734126,m,0.8861366999999092,749.3519609,749.3519609,59,1.547,,,sub-018,50,100,700,bloc_loop.csv,2023-05-31_12h33.58.155,PainUncertainty,2022.2.5,143.34513063758314,
grave,moderee,stimuli/330Hz,stimuli/moderee,bloc_3,prob80hthp_12trials.xlsx,2,24,80,20,0,,,,,0,2,2,2,1,9,21,2,,,,,,,,3.6,749.3519609,752.9573239,752.9574653,0.30016379999995024,753.4017659,753.4017659,n,0.6264995999999456,755.7180327,755.7180327,9,1.471,,,sub-018,50,100,700,bloc_loop.csv,2023-05-31_12h33.58.155,PainUncertainty,2022.2.5,143.34513063758314,
aigu,forte,stimuli/660Hz,stimuli/forte,bloc_3,prob80hthp_12trials.xlsx,2,24,80,20,0,,,,,0,2,2,2,1,10,22,7,,,,,,,,3,755.7180327,758.7224668,758.7225234,0.3017409999999927,759.1674697999999,759.1674697999999,m,0.7462091999999103,762.1126737999999,762.1126737999999,67,1.999,,,sub-018,50,100,700,bloc_loop.csv,2023-05-31_12h33.58.155,PainUncertainty,2022.2.5,143.34513063758314,
aigu,forte,stimuli/660Hz,stimuli/forte,bloc_3,prob80hthp_12trials.xlsx,2,24,80,20,0,,,,,0,2,2,2,1,11,23,9,,,,,,,,4.2,762.1126737999999,766.3137355,766.3137899999999,0.30005389999996623,766.7576785,766.7576785,m,0.5990274000000255,769.3562532999999,769.3562532999999,74,1.784,,,sub-018,50,100,700,bloc_loop.csv,2023-05-31_12h33.58.155,PainUncertainty,2022.2.5,143.34513063758314,
aigu,moderee,stimuli/660Hz,stimuli/moderee,bloc_4,prob50_50_4trials.xlsx,2,8,50,50,1,,,,,0,3,3,3,0,0,0,2,,,,,,,,4,769.3562532999999,773.3560028999999,773.3576899999999,0.3045432000000119,773.8011517,773.8011517,n,0.6428011999999654,775.9908800999999,775.9908800999999,16,1.351,,,sub-018,50,100,700,bloc_loop.csv,2023-05-31_12h33.58.155,PainUncertainty,2022.2.5,143.34513063758314,
aigu,forte,stimuli/660Hz,stimuli/forte,bloc_4,prob50_50_4trials.xlsx,2,8,50,50,1,,,,,0,3,3,3,0,1,1,3,,,,,,,,4.4,775.9908800999999,780.3912164999999,780.3912233,0.305038399999944,780.8354716,780.8354716,m,0.6481395000000276,783.6634839999999,783.6634839999999,79,1.985,,,sub-018,50,100,700,bloc_loop.csv,2023-05-31_12h33.58.155,PainUncertainty,2022.2.5,143.34513063758314,
grave,moderee,stimuli/330Hz,stimuli/moderee,bloc_4,prob50_50_4trials.xlsx,2,8,50,50,1,,,,,0,3,3,3,0,2,2,0,,,,,,,,4.2,783.6634839999999,787.8648271999999,787.8650475,0.3053034999999227,788.309943,788.309943,n,0.6480284999999668,790.0444517,790.0444517,18,0.866,,,sub-018,50,100,700,bloc_loop.csv,2023-05-31_12h33.58.155,PainUncertainty,2022.2.5,143.34513063758314,
grave,forte,stimuli/330Hz,stimuli/forte,bloc_4,prob50_50_4trials.xlsx,2,8,50,50,1,,,,,0,3,3,3,0,3,3,1,,,,,,,,4.7,790.0444517,794.7471777999999,794.7472187,0.3047641000000567,795.1912659999999,795.1912659999999,m,0.6515005999999204,797.8139258,797.8139258,77,1.775,,,sub-018,50,100,700,bloc_loop.csv,2023-05-31_12h33.58.155,PainUncertainty,2022.2.5,143.34513063758314,
aigu,forte,stimuli/660Hz,stimuli/forte,bloc_4,prob50_50_4trials.xlsx,2,8,50,50,1,,,,,0,3,3,3,1,0,4,3,,,,,,,,4.3,797.8139258,802.1162833999999,802.1165536,0.3012443999999732,802.5620105999999,802.5620105999999,m,0.7423312000000379,805.6321545,805.6321545,79,2.131,,,sub-018,50,100,700,bloc_loop.csv,2023-05-31_12h33.58.155,PainUncertainty,2022.2.5,143.34513063758314,
grave,moderee,stimuli/330Hz,stimuli/moderee,bloc_4,prob50_50_4trials.xlsx,2,8,50,50,1,,,,,0,3,3,3,1,1,5,0,,,,,,,,3.2,805.6321545,808.8321622,808.8321869,0.3051178999999138,809.2835659,809.2835659,n,0.6237183999998734,811.9173761,811.9173761,13,1.811,,,sub-018,50,100,700,bloc_loop.csv,2023-05-31_12h33.58.155,PainUncertainty,2022.2.5,143.34513063758314,
grave,forte,stimuli/330Hz,stimuli/forte,bloc_4,prob50_50_4trials.xlsx,2,8,50,50,1,,,,,0,3,3,3,1,2,6,1,,,,,,,,3.6,811.9173761,815.52094,815.5209411,0.3052284000000327,815.9686898,815.9686898,m,0.8188183999998984,818.2160683999999,818.2160683999999,71,1.215,,,sub-018,50,100,700,bloc_loop.csv,2023-05-31_12h33.58.155,PainUncertainty,2022.2.5,143.34513063758314,
aigu,moderee,stimuli/660Hz,stimuli/moderee,bloc_4,prob50_50_4trials.xlsx,2,8,50,50,1,,,,,0,3,3,3,1,3,7,2,,,,,,,,4.4,818.2160683999999,822.6188444,822.6188433,0.30057320000003074,823.0628932999999,823.0628932999999,n,0.668845500000046,826.9024181,826.9024181,20,1.138,,,sub-018,50,100,700,bloc_loop.csv,2023-05-31_12h33.58.155,PainUncertainty,2022.2.5,143.34513063758314,
,,,,bloc_4,prob50_50_4trials.xlsx,2,8,50,50,1,,,,,0,3,3,3,,,,,0,0,0,0,,,,,,,,,,,,,,,,,826.9024181,902.8024002,sub-018,50,100,700,bloc_loop.csv,2023-05-31_12h33.58.155,PainUncertainty,2022.2.5,143.34513063758314,
aigu,moderee,stimuli/660Hz,stimuli/moderee,bloc_5,prob20hthp_12trials.xlsx,2,24,20,80,0,,,,,0,4,4,4,0,0,0,10,,,,,,,,3.1,904.1074732,907.2135625,907.2124362,0.2993205999999873,907.6546874999999,907.6546874999999,n,0.538872599999948,910.0235730999999,910.0235730999999,12,1.627,,,sub-018,50,100,700,bloc_loop.csv,2023-05-31_12h33.58.155,PainUncertainty,2022.2.5,143.34513063758314,
grave,moderee,stimuli/330Hz,stimuli/moderee,bloc_5,prob20hthp_12trials.xlsx,2,24,20,80,0,,,,,0,4,4,4,0,1,1,5,,,,,,,,3.1,910.0235730999999,913.1231396999999,913.123113,0.30481700000007095,913.56697,913.56697,n,0.6090482000000321,916.6751618,916.6751618,6,2.305,,,sub-018,50,100,700,bloc_loop.csv,2023-05-31_12h33.58.155,PainUncertainty,2022.2.5,143.34513063758314,
grave,forte,stimuli/330Hz,stimuli/forte,bloc_5,prob20hthp_12trials.xlsx,2,24,20,80,0,,,,,0,4,4,4,0,2,2,3,,,,,,,,4.1,916.6751618,920.776221,920.7763755,0.30338110000002416,921.2228748,921.2228748,m,0.8330879999999325,923.2793823,923.2793823,67,0.998,,,sub-018,50,100,700,bloc_loop.csv,2023-05-31_12h33.58.155,PainUncertainty,2022.2.5,143.34513063758314,
grave,forte,stimuli/330Hz,stimuli/forte,bloc_5,prob20hthp_12trials.xlsx,2,24,20,80,0,,,,,0,4,4,4,0,3,3,2,,,,,,,,3.7,923.2793823,926.9784185,926.9784357,0.30206429999998363,927.4228194,927.4228194,m,0.9009206999999861,930.3761638999999,930.3761638999999,75,1.853,,,sub-018,50,100,700,bloc_loop.csv,2023-05-31_12h33.58.155,PainUncertainty,2022.2.5,143.34513063758314,
aigu,forte,stimuli/660Hz,stimuli/forte,bloc_5,prob20hthp_12trials.xlsx,2,24,20,80,0,,,,,0,4,4,4,0,4,4,11,,,,,,,,4.8,930.3761638999999,935.1812775999999,935.1811690999999,0.3049921000000495,935.6256558,935.6256558,m,0.75281379999997,939.4811337,939.4811337,78,2.525,,,sub-018,50,100,700,bloc_loop.csv,2023-05-31_12h33.58.155,PainUncertainty,2022.2.5,143.34513063758314,
grave,forte,stimuli/330Hz,stimuli/forte,bloc_5,prob20hthp_12trials.xlsx,2,24,20,80,0,,,,,0,4,4,4,0,5,5,0,,,,,,,,4.4,939.4811337,943.8835097,943.8836928999999,0.30488150000007863,944.3274462999999,944.3274462999999,m,0.8669110999999958,947.4430976,947.4430976,62,2.053,,,sub-018,50,100,700,bloc_loop.csv,2023-05-31_12h33.58.155,PainUncertainty,2022.2.5,143.34513063758314,
aigu,moderee,stimuli/660Hz,stimuli/moderee,bloc_5,prob20hthp_12trials.xlsx,2,24,20,80,0,,,,,0,4,4,4,0,6,6,8,,,,,,,,3.4,947.4430976,950.8423286999999,950.8423842,0.2996097999999847,951.2809145,951.2809145,n,0.8888428999999434,954.1909443999999,954.1909443999999,9,1.811,,,sub-018,50,100,700,bloc_loop.csv,2023-05-31_12h33.58.155,PainUncertainty,2022.2.5,143.34513063758314,
aigu,moderee,stimuli/660Hz,stimuli/moderee,bloc_5,prob20hthp_12trials.xlsx,2,24,20,80,0,,,,,0,4,4,4,0,7,7,6,,,,,,,,4.3,954.1909443999999,958.4892590999999,958.4900868999999,0.30468710000002375,958.9378888,958.9378888,n,0.7529502000000576,963.0327609999999,963.0327609999999,15,3.122,,,sub-018,50,100,700,bloc_loop.csv,2023-05-31_12h33.58.155,PainUncertainty,2022.2.5,143.34513063758314,
grave,forte,stimuli/330Hz,stimuli/forte,bloc_5,prob20hthp_12trials.xlsx,2,24,20,80,0,,,,,0,4,4,4,0,8,8,4,,,,,,,,4.1,963.0327609999999,967.1362858,967.1362384999999,0.30360459999997147,967.5824596,967.5824596,m,0.6904852999998212,970.2444642,970.2444642,68,1.761,,,sub-018,50,100,700,bloc_loop.csv,2023-05-31_12h33.58.155,PainUncertainty,2022.2.5,143.34513063758314,
aigu,moderee,stimuli/660Hz,stimuli/moderee,bloc_5,prob20hthp_12trials.xlsx,2,24,20,80,0,,,,,0,4,4,4,0,9,9,7,,,,,,,,3.4,970.2444642,973.6437796,973.6437794,0.30490450000002056,974.0881222,974.0881222,n,0.6924308999998203,977.4051281,977.4051281,14,2.413,,,sub-018,50,100,700,bloc_loop.csv,2023-05-31_12h33.58.155,PainUncertainty,2022.2.5,143.34513063758314,
aigu,moderee,stimuli/660Hz,stimuli/moderee,bloc_5,prob20hthp_12trials.xlsx,2,24,20,80,0,,,,,0,4,4,4,0,10,10,9,,,,,,,,4.8,977.4051281,982.2073504999998,982.2073993,0.3051825000000008,982.6513995999999,982.6513995999999,n,1.097814100000008,986.4866053999999,986.4866053999999,10,2.533,,,sub-018,50,100,700,bloc_loop.csv,2023-05-31_12h33.58.155,PainUncertainty,2022.2.5,143.34513063758314,
grave,forte,stimuli/330Hz,stimuli/forte,bloc_5,prob20hthp_12trials.xlsx,2,24,20,80,0,,,,,0,4,4,4,0,11,11,1,,,,,,,,3.6,986.4866053999999,990.0904223999999,990.0902351999999,0.3051101999999446,990.5349291999999,990.5349291999999,m,0.6128751000000676,992.7696191,992.7696191,72,1.422,,,sub-018,50,100,700,bloc_loop.csv,2023-05-31_12h33.58.155,PainUncertainty,2022.2.5,143.34513063758314,
grave,forte,stimuli/330Hz,stimuli/forte,bloc_5,prob20hthp_12trials.xlsx,2,24,20,80,0,,,,,0,4,4,4,1,0,12,2,,,,,,,,3.2,992.7696191,995.9727651000001,995.9728451,0.3049184999999852,996.4169460999999,996.4169460999999,m,0.6683296999999158,999.0376328,999.0376328,65,1.742,,,sub-018,50,100,700,bloc_loop.csv,2023-05-31_12h33.58.155,PainUncertainty,2022.2.5,143.34513063758314,
aigu,moderee,stimuli/660Hz,stimuli/moderee,bloc_5,prob20hthp_12trials.xlsx,2,24,20,80,0,,,,,0,4,4,4,1,1,13,9,,,,,,,,4.6,999.0376328,1003.6405606999999,1003.6406725999999,0.3049135000001115,1004.0849321000001,1004.0849321000001,n,1.1336980999999042,1008.7285347,1008.7285347,15,3.307,,,sub-018,50,100,700,bloc_loop.csv,2023-05-31_12h33.58.155,PainUncertainty,2022.2.5,143.34513063758314,
grave,forte,stimuli/330Hz,stimuli/forte,bloc_5,prob20hthp_12trials.xlsx,2,24,20,80,0,,,,,0,4,4,4,1,2,14,1,,,,,,,,4,1008.7285347,1012.7318645,1012.7319174,0.30024360000015804,1013.1763873999998,1013.1763873999998,m,0.83444690000006,1015.8913900999999,1015.8913900999999,59,1.659,,,sub-018,50,100,700,bloc_loop.csv,2023-05-31_12h33.58.155,PainUncertainty,2022.2.5,143.34513063758314,
aigu,moderee,stimuli/660Hz,stimuli/moderee,bloc_5,prob20hthp_12trials.xlsx,2,24,20,80,0,,,,,0,4,4,4,1,3,15,6,,,,,,,,4.8,1015.8913900999999,1020.6909475999998,1020.6912206000001,0.30492869999989125,1021.1351338,1021.1351338,n,0.6934994000000216,1024.1899425,1024.1899425,9,2.145,,,sub-018,50,100,700,bloc_loop.csv,2023-05-31_12h33.58.155,PainUncertainty,2022.2.5,143.34513063758314,
grave,forte,stimuli/330Hz,stimuli/forte,bloc_5,prob20hthp_12trials.xlsx,2,24,20,80,0,,,,,0,4,4,4,1,4,16,3,,,,,,,,3.2,1024.1899425,1027.3935167,1027.3934576999998,0.30474009999988994,1027.8372801,1027.8372801,m,0.592519600000017,1029.7838474999999,1029.7838474999999,81,1.144,,,sub-018,50,100,700,bloc_loop.csv,2023-05-31_12h33.58.155,PainUncertainty,2022.2.5,143.34513063758314,
aigu,moderee,stimuli/660Hz,stimuli/moderee,bloc_5,prob20hthp_12trials.xlsx,2,24,20,80,0,,,,,0,4,4,4,1,5,17,8,,,,,,,,4.4,1029.7838474999999,1034.1858815,1034.1857277999998,0.30158110000002125,1034.6301782,1034.6301782,n,0.5928674999999686,1036.852617,1036.852617,15,1.423,,,sub-018,50,100,700,bloc_loop.csv,2023-05-31_12h33.58.155,PainUncertainty,2022.2.5,143.34513063758314,
aigu,moderee,stimuli/660Hz,stimuli/moderee,bloc_5,prob20hthp_12trials.xlsx,2,24,20,80,0,,,,,0,4,4,4,1,6,18,10,,,,,,,,3.7,1036.852617,1040.5555660999999,1040.5550492999998,0.30858950000015284,1041.0060925999999,1041.0060925999999,n,1.2310330999998342,1043.9044173,1043.9044173,16,1.443,,,sub-018,50,100,700,bloc_loop.csv,2023-05-31_12h33.58.155,PainUncertainty,2022.2.5,143.34513063758314,
aigu,moderee,stimuli/660Hz,stimuli/moderee,bloc_5,prob20hthp_12trials.xlsx,2,24,20,80,0,,,,,0,4,4,4,1,7,19,7,,,,,,,,3.1,1043.9044173,1047.0066438,1047.0067468999998,0.3025716999998167,1047.4512382,1047.4512382,n,1.3371666999998553,1050.3782928,1050.3782928,10,1.394,,,sub-018,50,100,700,bloc_loop.csv,2023-05-31_12h33.58.155,PainUncertainty,2022.2.5,143.34513063758314,
grave,moderee,stimuli/330Hz,stimuli/moderee,bloc_5,prob20hthp_12trials.xlsx,2,24,20,80,0,,,,,0,4,4,4,1,8,20,5,,,,,,,,3.8,1050.3782928,1054.1812349,1054.1810847999998,0.3051155000000563,1054.6259526,1054.6259526,n,0.6246496999999209,1057.0979317,1057.0979317,17,1.297,,,sub-018,50,100,700,bloc_loop.csv,2023-05-31_12h33.58.155,PainUncertainty,2022.2.5,143.34513063758314,
grave,forte,stimuli/330Hz,stimuli/forte,bloc_5,prob20hthp_12trials.xlsx,2,24,20,80,0,,,,,0,4,4,4,1,9,21,0,,,,,,,,4.8,1057.0979317,1061.8973337,1061.897405,0.30625549999990653,1062.3469227,1062.3469227,m,0.5313342999999833,1064.5536184,1064.5536184,78,1.088,,,sub-018,50,100,700,bloc_loop.csv,2023-05-31_12h33.58.155,PainUncertainty,2022.2.5,143.34513063758314,
grave,forte,stimuli/330Hz,stimuli/forte,bloc_5,prob20hthp_12trials.xlsx,2,24,20,80,0,,,,,0,4,4,4,1,10,22,4,,,,,,,,3,1064.5536184,1067.5577446,1067.5577328,0.30475350000006074,1068.0018579999999,1068.0018579999999,m,0.56829890000013,1071.7010062,1071.7010062,85,2.919,,,sub-018,50,100,700,bloc_loop.csv,2023-05-31_12h33.58.155,PainUncertainty,2022.2.5,143.34513063758314,
aigu,forte,stimuli/660Hz,stimuli/forte,bloc_5,prob20hthp_12trials.xlsx,2,24,20,80,0,,,,,0,4,4,4,1,11,23,11,,,,,,,,3.5,1071.7010062,1075.204508,1075.2045388999998,0.3066650999999183,1075.6497537,1075.6497537,m,0.5829189999999045,1078.1754764,1078.1754764,82,1.748,,,sub-018,50,100,700,bloc_loop.csv,2023-05-31_12h33.58.155,PainUncertainty,2022.2.5,143.34513063758314,
aigu,forte,stimuli/660Hz,stimuli/forte,bloc_6,prob50_50_4trials.xlsx,2,8,50,50,0,,,,,0,5,5,5,0,0,0,3,,,,,,,,3.3,1078.1754764,1081.4761008,1081.4760555999999,0.3050146999999015,1081.9241617,1081.9241617,m,0.8646112000000841,1085.0209677,1085.0209677,81,2.025,,,sub-018,50,100,700,bloc_loop.csv,2023-05-31_12h33.58.155,PainUncertainty,2022.2.5,143.34513063758314,
grave,forte,stimuli/330Hz,stimuli/forte,bloc_6,prob50_50_4trials.xlsx,2,8,50,50,0,,,,,0,5,5,5,0,1,1,1,,,,,,,,4.1,1085.0209677,1089.1228237999999,1089.1228829999998,0.30472160000022086,1089.5757529,1089.5757529,m,0.6416118999997735,1092.4873516,1092.4873516,82,2.059,,,sub-018,50,100,700,bloc_loop.csv,2023-05-31_12h33.58.155,PainUncertainty,2022.2.5,143.34513063758314,
aigu,moderee,stimuli/660Hz,stimuli/moderee,bloc_6,prob50_50_4trials.xlsx,2,8,50,50,0,,,,,0,5,5,5,0,2,2,2,,,,,,,,3,1092.4873516,1095.4921087,1095.4923559999997,0.3045680000000175,1095.9360419,1095.9360419,n,0.6409799000000049,1098.8491201,1098.8491201,15,2.075,,,sub-018,50,100,700,bloc_loop.csv,2023-05-31_12h33.58.155,PainUncertainty,2022.2.5,143.34513063758314,
grave,moderee,stimuli/330Hz,stimuli/moderee,bloc_6,prob50_50_4trials.xlsx,2,8,50,50,0,,,,,0,5,5,5,0,3,3,0,,,,,,,,3.3,1098.8491201,1102.1525527,1102.152547,0.30046710000010535,1102.5965509999999,1102.5965509999999,n,0.5645946000001487,1104.8773627,1104.8773627,18,1.52,,,sub-018,50,100,700,bloc_loop.csv,2023-05-31_12h33.58.155,PainUncertainty,2022.2.5,143.34513063758314,
aigu,moderee,stimuli/660Hz,stimuli/moderee,bloc_6,prob50_50_4trials.xlsx,2,8,50,50,0,,,,,0,5,5,5,1,0,4,2,,,,,,,,4.9,1104.8773627,1109.7781946,1109.7781942999998,0.2991360999999415,1110.2165791999998,1110.2165791999998,n,0.6168554000000341,1112.1847794,1112.1847794,10,1.128,,,sub-018,50,100,700,bloc_loop.csv,2023-05-31_12h33.58.155,PainUncertainty,2022.2.5,143.34513063758314,
aigu,forte,stimuli/660Hz,stimuli/forte,bloc_6,prob50_50_4trials.xlsx,2,8,50,50,0,,,,,0,5,5,5,1,1,5,3,,,,,,,,3.9,1112.1847794,1116.0843152999998,1116.0843599999998,0.3060813000001872,1116.5298662,1116.5298662,m,0.5162585000000064,1118.9469113999999,1118.9469113999999,75,1.699,,,sub-018,50,100,700,bloc_loop.csv,2023-05-31_12h33.58.155,PainUncertainty,2022.2.5,143.34513063758314,
grave,forte,stimuli/330Hz,stimuli/forte,bloc_6,prob50_50_4trials.xlsx,2,8,50,50,0,,,,,0,5,5,5,1,2,6,1,,,,,,,,3.6,1118.9469113999999,1122.5504193,1122.5505022999998,0.3049267000001237,1122.9946138999999,1122.9946138999999,m,0.587744300000125,1125.3923246,1125.3923246,76,1.596,,,sub-018,50,100,700,bloc_loop.csv,2023-05-31_12h33.58.155,PainUncertainty,2022.2.5,143.34513063758314,
grave,moderee,stimuli/330Hz,stimuli/moderee,bloc_6,prob50_50_4trials.xlsx,2,8,50,50,0,,,,,0,5,5,5,1,3,7,0,,,,,,,,4,1125.3923246,1129.3923972999999,1129.3917634,0.30144879999988916,1129.8361235999998,1129.8361235999998,n,0.6433100999999652,1131.9143198,1131.9143198,12,1.225,,,sub-018,50,100,700,bloc_loop.csv,2023-05-31_12h33.58.155,PainUncertainty,2022.2.5,143.34513063758314,
aigu,forte,stimuli/660Hz,stimuli/forte,bloc_7,prob80hthp_12trials.xlsx,2,24,80,20,1,,,,,0,6,6,6,0,0,0,6,,,,,,,,4.7,1131.9143198,1136.6145179999999,1136.614666,0.30281349999995655,1137.0589197,1137.0589197,m,0.5417133999998924,1139.7036775,1139.7036775,84,1.879,,,sub-018,50,100,700,bloc_loop.csv,2023-05-31_12h33.58.155,PainUncertainty,2022.2.5,143.34513063758314,
aigu,forte,stimuli/660Hz,stimuli/forte,bloc_7,prob80hthp_12trials.xlsx,2,24,80,20,1,,,,,0,6,6,6,0,1,1,8,,,,,,,,4.8,1139.7036775,1144.5045284999999,1144.5044423999998,0.3019949000001816,1144.9488815,1144.9488815,m,0.5697584999999918,1147.5191946999998,1147.5191946999998,90,1.795,,,sub-018,50,100,700,bloc_loop.csv,2023-05-31_12h33.58.155,PainUncertainty,2022.2.5,143.34513063758314,
grave,forte,stimuli/330Hz,stimuli/forte,bloc_7,prob80hthp_12trials.xlsx,2,24,80,20,1,,,,,0,6,6,6,0,2,2,5,,,,,,,,3.2,1147.5191946999998,1150.720506,1150.7205282999998,0.3045520000000579,1151.164653,1151.164653,m,0.5419426999998933,1154.7475061999999,1154.7475061999999,84,2.824,,,sub-018,50,100,700,bloc_loop.csv,2023-05-31_12h33.58.155,PainUncertainty,2022.2.5,143.34513063758314,
grave,moderee,stimuli/330Hz,stimuli/moderee,bloc_7,prob80hthp_12trials.xlsx,2,24,80,20,1,,,,,0,6,6,6,0,3,3,0,,,,,,,,3.5,1154.7475061999999,1158.2489458,1158.2527737999999,0.3002195000001393,1158.6934675999998,1158.6934675999998,n,0.5888486000000768,1161.0139213999998,1161.0139213999998,19,1.51,,,sub-018,50,100,700,bloc_loop.csv,2023-05-31_12h33.58.155,PainUncertainty,2022.2.5,143.34513063758314,
aigu,forte,stimuli/660Hz,stimuli/forte,bloc_7,prob80hthp_12trials.xlsx,2,24,80,20,1,,,,,0,6,6,6,0,4,4,9,,,,,,,,3.8,1161.0139213999998,1164.8192403,1164.8192307999998,0.300376199999846,1165.2641004,1165.2641004,m,0.4710206999997837,1167.9877119,1167.9877119,81,2.045,,,sub-018,50,100,700,bloc_loop.csv,2023-05-31_12h33.58.155,PainUncertainty,2022.2.5,143.34513063758314,
grave,moderee,stimuli/330Hz,stimuli/moderee,bloc_7,prob80hthp_12trials.xlsx,2,24,80,20,1,,,,,0,6,6,6,0,5,5,2,,,,,,,,4.5,1167.9877119,1172.487339,1172.4873212999998,0.299751600000036,1172.9316632999999,1172.9316632999999,n,0.5508538000000982,1175.3445683999998,1175.3445683999998,7,1.638,,,sub-018,50,100,700,bloc_loop.csv,2023-05-31_12h33.58.155,PainUncertainty,2022.2.5,143.34513063758314,
aigu,forte,stimuli/660Hz,stimuli/forte,bloc_7,prob80hthp_12trials.xlsx,2,24,80,20,1,,,,,0,6,6,6,0,6,6,7,,,,,,,,3.7,1175.3445683999998,1179.0434983999999,1179.0446688,0.3042374999999993,1179.4910955,1179.4910955,m,0.47766629999996724,1182.2641119,1182.2641119,86,2.083,,,sub-018,50,100,700,bloc_loop.csv,2023-05-31_12h33.58.155,PainUncertainty,2022.2.5,143.34513063758314,
grave,moderee,stimuli/330Hz,stimuli/moderee,bloc_7,prob80hthp_12trials.xlsx,2,24,80,20,1,,,,,0,6,6,6,0,7,7,3,,,,,,,,3.3,1182.2641119,1185.5651261,1185.5651203999998,0.3061611000000539,1186.0140589999999,1186.0140589999999,n,0.632431999999838,1188.1310028,1188.1310028,18,1.283,,,sub-018,50,100,700,bloc_loop.csv,2023-05-31_12h33.58.155,PainUncertainty,2022.2.5,143.34513063758314,
aigu,moderee,stimuli/660Hz,stimuli/moderee,bloc_7,prob80hthp_12trials.xlsx,2,24,80,20,1,,,,,0,6,6,6,0,8,8,11,,,,,,,,3.7,1188.1310028,1191.8363583999999,1191.8363872999998,0.3072688999998263,1192.2882452,1192.2882452,n,0.5963449000000338,1194.6406871,1194.6406871,22,1.531,,,sub-018,50,100,700,bloc_loop.csv,2023-05-31_12h33.58.155,PainUncertainty,2022.2.5,143.34513063758314,
grave,moderee,stimuli/330Hz,stimuli/moderee,bloc_7,prob80hthp_12trials.xlsx,2,24,80,20,1,,,,,0,6,6,6,0,9,9,1,,,,,,,,4.1,1194.6406871,1198.7399345,1198.7400638999998,0.3049481000000469,1199.1862675,1199.1862675,n,0.5980182999998789,1202.2501562,1202.2501562,19,2.248,,,sub-018,50,100,700,bloc_loop.csv,2023-05-31_12h33.58.155,PainUncertainty,2022.2.5,143.34513063758314,
grave,moderee,stimuli/330Hz,stimuli/moderee,bloc_7,prob80hthp_12trials.xlsx,2,24,80,20,1,,,,,0,6,6,6,0,10,10,4,,,,,,,,4,1202.2501562,1206.2552346999998,1206.2557112999998,0.30586079999989124,1206.7039986,1206.7039986,n,0.596270799999914,1208.853741,1208.853741,20,1.353,,,sub-018,50,100,700,bloc_loop.csv,2023-05-31_12h33.58.155,PainUncertainty,2022.2.5,143.34513063758314,
aigu,forte,stimuli/660Hz,stimuli/forte,bloc_7,prob80hthp_12trials.xlsx,2,24,80,20,1,,,,,0,6,6,6,0,11,11,10,,,,,,,,3.5,1208.853741,1212.3531658,1212.3547784999998,0.30644840000013573,1212.8044955999999,1212.8044955999999,m,0.5565536999999523,1215.6008167,1215.6008167,82,2.047,,,sub-018,50,100,700,bloc_loop.csv,2023-05-31_12h33.58.155,PainUncertainty,2022.2.5,143.34513063758314,
aigu,forte,stimuli/660Hz,stimuli/forte,bloc_7,prob80hthp_12trials.xlsx,2,24,80,20,1,,,,,0,6,6,6,1,0,12,8,,,,,,,,3.5,1215.6008167,1219.1046543,1219.1038296999998,0.30505310000012287,1219.5478018,1219.5478018,m,0.5432783000000683,1221.6275965,1221.6275965,78,1.333,,,sub-018,50,100,700,bloc_loop.csv,2023-05-31_12h33.58.155,PainUncertainty,2022.2.5,143.34513063758314,
aigu,forte,stimuli/660Hz,stimuli/forte,bloc_7,prob80hthp_12trials.xlsx,2,24,80,20,1,,,,,0,6,6,6,1,1,13,6,,,,,,,,3,1221.6275965,1224.6319666,1224.6321170999997,0.3048473000001195,1225.0762811,1225.0762811,m,0.568024699999981,1227.8629489999998,1227.8629489999998,82,2.025,,,sub-018,50,100,700,bloc_loop.csv,2023-05-31_12h33.58.155,PainUncertainty,2022.2.5,143.34513063758314,
aigu,forte,stimuli/660Hz,stimuli/forte,bloc_7,prob80hthp_12trials.xlsx,2,24,80,20,1,,,,,0,6,6,6,1,2,14,7,,,,,,,,3.2,1227.8629489999998,1231.0638717,1231.0637603999999,0.30480869999996685,1231.5080026,1231.5080026,m,0.5641242000001085,1235.3455075,1235.3455075,86,3.068,,,sub-018,50,100,700,bloc_loop.csv,2023-05-31_12h33.58.155,PainUncertainty,2022.2.5,143.34513063758314,
grave,forte,stimuli/330Hz,stimuli/forte,bloc_7,prob80hthp_12trials.xlsx,2,24,80,20,1,,,,,0,6,6,6,1,3,15,5,,,,,,,,4.2,1235.3455075,1239.5441295,1239.5448712999998,0.30102179999994405,1239.9888624,1239.9888624,m,0.5971371000000119,1242.3004928999999,1242.3004928999999,80,1.509,,,sub-018,50,100,700,bloc_loop.csv,2023-05-31_12h33.58.155,PainUncertainty,2022.2.5,143.34513063758314,
aigu,forte,stimuli/660Hz,stimuli/forte,bloc_7,prob80hthp_12trials.xlsx,2,24,80,20,1,,,,,0,6,6,6,1,4,16,10,,,,,,,,3.5,1242.3004928999999,1245.8013376,1245.8013150999998,0.30482630000005884,1246.2453197,1246.2453197,m,0.6212096999999659,1250.7423509999999,1250.7423509999999,87,3.672,,,sub-018,50,100,700,bloc_loop.csv,2023-05-31_12h33.58.155,PainUncertainty,2022.2.5,143.34513063758314,
grave,moderee,stimuli/330Hz,stimuli/moderee,bloc_7,prob80hthp_12trials.xlsx,2,24,80,20,1,,,,,0,6,6,6,1,5,17,0,,,,,,,,4,1250.7423509999999,1254.7471017,1254.7472394,0.30063099999983933,1255.1914136,1255.1914136,n,0.6293789999999291,1258.067432,1258.067432,12,2.047,,,sub-018,50,100,700,bloc_loop.csv,2023-05-31_12h33.58.155,PainUncertainty,2022.2.5,143.34513063758314,
grave,moderee,stimuli/330Hz,stimuli/moderee,bloc_7,prob80hthp_12trials.xlsx,2,24,80,20,1,,,,,0,6,6,6,1,6,18,2,,,,,,,,4.3,1258.067432,1262.3724974,1262.3725470999998,0.3053052000000207,1262.8166535,1262.8166535,n,0.606294199999823,1264.7672721,1264.7672721,15,1.122,,,sub-018,50,100,700,bloc_loop.csv,2023-05-31_12h33.58.155,PainUncertainty,2022.2.5,143.34513063758314,
grave,moderee,stimuli/330Hz,stimuli/moderee,bloc_7,prob80hthp_12trials.xlsx,2,24,80,20,1,,,,,0,6,6,6,1,7,19,3,,,,,,,,4,1264.7672721,1268.7691914,1268.7692438,0.3054652000000715,1269.2171292,1269.2171292,n,0.6242273999998389,1271.7677827,1271.7677827,10,1.72,,,sub-018,50,100,700,bloc_loop.csv,2023-05-31_12h33.58.155,PainUncertainty,2022.2.5,143.34513063758314,
aigu,moderee,stimuli/660Hz,stimuli/moderee,bloc_7,prob80hthp_12trials.xlsx,2,24,80,20,1,,,,,0,6,6,6,1,8,20,11,,,,,,,,4.9,1271.7677827,1276.6728034,1276.6729377999998,0.3051284000000578,1277.1169769,1277.1169769,n,0.6806372999999013,1279.1724205,1279.1724205,20,1.155,,,sub-018,50,100,700,bloc_loop.csv,2023-05-31_12h33.58.155,PainUncertainty,2022.2.5,143.34513063758314,
grave,moderee,stimuli/330Hz,stimuli/moderee,bloc_7,prob80hthp_12trials.xlsx,2,24,80,20,1,,,,,0,6,6,6,1,9,21,1,,,,,,,,3.2,1279.1724205,1282.3748755,1282.3749976999998,0.30176959999994324,1282.8193486,1282.8193486,n,0.6162143999999472,1286.2704446999999,1286.2704446999999,15,2.628,,,sub-018,50,100,700,bloc_loop.csv,2023-05-31_12h33.58.155,PainUncertainty,2022.2.5,143.34513063758314,
grave,moderee,stimuli/330Hz,stimuli/moderee,bloc_7,prob80hthp_12trials.xlsx,2,24,80,20,1,,,,,0,6,6,6,1,10,22,4,,,,,,,,4.3,1286.2704446999999,1290.5707599,1290.5709332,0.3008982000001197,1291.0147259999999,1291.0147259999999,n,1.4129010999997291,1294.9191346,1294.9191346,18,2.276,,,sub-018,50,100,700,bloc_loop.csv,2023-05-31_12h33.58.155,PainUncertainty,2022.2.5,143.34513063758314,
aigu,forte,stimuli/660Hz,stimuli/forte,bloc_7,prob80hthp_12trials.xlsx,2,24,80,20,1,,,,,0,6,6,6,1,11,23,9,,,,,,,,3.2,1294.9191346,1298.1198157,1298.1198471999999,0.30485839999983,1298.5640452999999,1298.5640452999999,m,0.6852665999999346,1303.2126733,1303.2126733,81,1.936,,,sub-018,50,100,700,bloc_loop.csv,2023-05-31_12h33.58.155,PainUncertainty,2022.2.5,143.34513063758314,
,,,,bloc_7,prob80hthp_12trials.xlsx,2,24,80,20,1,,,,,0,6,6,6,,,,,0,0,0,0,,,,,,,,,,,,,,,,,1303.2126733,1408.1397067,sub-018,50,100,700,bloc_loop.csv,2023-05-31_12h33.58.155,PainUncertainty,2022.2.5,143.34513063758314,
grave,forte,stimuli/330Hz,stimuli/forte,bloc_8,prob50_50_4trials.xlsx,3,12,50,50,0,,,,,0,7,7,7,0,0,0,1,,,,,,,,4.7,1409.3189651,1414.0230373,1414.0229906999998,0.3049005999998826,1414.4670784,1414.4670784,m,0.7332427999999283,1416.5642303,1416.5642303,58,1.148,,,sub-018,50,100,700,bloc_loop.csv,2023-05-31_12h33.58.155,PainUncertainty,2022.2.5,143.34513063758314,
grave,moderee,stimuli/330Hz,stimuli/moderee,bloc_8,prob50_50_4trials.xlsx,3,12,50,50,0,,,,,0,7,7,7,0,1,1,0,,,,,,,,5,1416.5642303,1421.565589,1421.5654286,0.30298530000004575,1422.009441,1422.009441,n,0.606647199999955,1424.7026011,1424.7026011,12,1.874,,,sub-018,50,100,700,bloc_loop.csv,2023-05-31_12h33.58.155,PainUncertainty,2022.2.5,143.34513063758314,
aigu,moderee,stimuli/660Hz,stimuli/moderee,bloc_8,prob50_50_4trials.xlsx,3,12,50,50,0,,,,,0,7,7,7,0,2,2,2,,,,,,,,5,1424.7026011,1429.7054085,1429.7053866999997,0.30852950000007695,1430.1566854999999,1430.1566854999999,n,0.6313064999998943,1433.1111248,1433.1111248,25,2.127,,,sub-018,50,100,700,bloc_loop.csv,2023-05-31_12h33.58.155,PainUncertainty,2022.2.5,143.34513063758314,
aigu,forte,stimuli/660Hz,stimuli/forte,bloc_8,prob50_50_4trials.xlsx,3,12,50,50,0,,,,,0,7,7,7,0,3,3,3,,,,,,,,3.5,1433.1111248,1436.6156518999999,1436.6158166999999,0.2994206999999278,1437.0599468,1437.0599468,m,0.6726998999999552,1439.6511418,1439.6511418,80,1.705,,,sub-018,50,100,700,bloc_loop.csv,2023-05-31_12h33.58.155,PainUncertainty,2022.2.5,143.34513063758314,
aigu,forte,stimuli/660Hz,stimuli/forte,bloc_8,prob50_50_4trials.xlsx,3,12,50,50,0,,,,,0,7,7,7,1,0,4,3,,,,,,,,4,1439.6511418,1443.6510719999999,1443.6510293,0.29999279999992723,1444.0959675,1444.0959675,m,0.606270299999963,1447.1189656,1447.1189656,82,2.219,,,sub-018,50,100,700,bloc_loop.csv,2023-05-31_12h33.58.155,PainUncertainty,2022.2.5,143.34513063758314,
grave,forte,stimuli/330Hz,stimuli/forte,bloc_8,prob50_50_4trials.xlsx,3,12,50,50,0,,,,,0,7,7,7,1,1,5,1,,,,,,,,3.3,1447.1189656,1450.423081,1450.4231492,0.30489669999997204,1450.8667877,1450.8667877,m,1.0869485000000196,1454.0110513,1454.0110513,67,1.853,,,sub-018,50,100,700,bloc_loop.csv,2023-05-31_12h33.58.155,PainUncertainty,2022.2.5,143.34513063758314,
aigu,moderee,stimuli/660Hz,stimuli/moderee,bloc_8,prob50_50_4trials.xlsx,3,12,50,50,0,,,,,0,7,7,7,1,2,6,2,,,,,,,,3.5,1454.0110513,1457.5138418,1457.5139298,0.30494709999993574,1457.9581974,1457.9581974,n,0.8359789999999094,1460.5640319,1460.5640319,10,1.566,,,sub-018,50,100,700,bloc_loop.csv,2023-05-31_12h33.58.155,PainUncertainty,2022.2.5,143.34513063758314,
grave,moderee,stimuli/330Hz,stimuli/moderee,bloc_8,prob50_50_4trials.xlsx,3,12,50,50,0,,,,,0,7,7,7,1,3,7,0,,,,,,,,4.9,1460.5640319,1465.4666101999999,1465.4668596,0.3016815000000861,1465.9106457999999,1465.9106457999999,n,0.7580282999999355,1467.9533913,1467.9533913,10,1.068,,,sub-018,50,100,700,bloc_loop.csv,2023-05-31_12h33.58.155,PainUncertainty,2022.2.5,143.34513063758314,
aigu,moderee,stimuli/660Hz,stimuli/moderee,bloc_8,prob50_50_4trials.xlsx,3,12,50,50,0,,,,,0,7,7,7,2,0,8,2,,,,,,,,5,1467.9533913,1472.9535941,1472.9536527999999,0.3044729999999163,1473.3975217,1473.3975217,n,0.6310025999998317,1476.5229488999998,1476.5229488999998,16,2.289,,,sub-018,50,100,700,bloc_loop.csv,2023-05-31_12h33.58.155,PainUncertainty,2022.2.5,143.34513063758314,
aigu,forte,stimuli/660Hz,stimuli/forte,bloc_8,prob50_50_4trials.xlsx,3,12,50,50,0,,,,,0,7,7,7,2,1,9,3,,,,,,,,4,1476.5229488999998,1480.5239082,1480.5248539,0.3010231999999178,1480.9687027999998,1480.9687027999998,m,0.6739303999999748,1483.6697469,1483.6697469,65,1.812,,,sub-018,50,100,700,bloc_loop.csv,2023-05-31_12h33.58.155,PainUncertainty,2022.2.5,143.34513063758314,
grave,moderee,stimuli/330Hz,stimuli/moderee,bloc_8,prob50_50_4trials.xlsx,3,12,50,50,0,,,,,0,7,7,7,2,2,10,0,,,,,,,,3.6,1483.6697469,1487.2748625,1487.2748086,0.30181949999996505,1487.7199973,1487.7199973,n,0.7132934999999208,1490.3367831,1490.3367831,17,1.705,,,sub-018,50,100,700,bloc_loop.csv,2023-05-31_12h33.58.155,PainUncertainty,2022.2.5,143.34513063758314,
grave,forte,stimuli/330Hz,stimuli/forte,bloc_8,prob50_50_4trials.xlsx,3,12,50,50,0,,,,,0,7,7,7,2,3,11,1,,,,,,,,4.2,1490.3367831,1494.5394342,1494.5404938999998,0.3039627999999084,1494.9832534,1494.9832534,m,0.5613866000000627,1496.893414,1496.893414,69,1.125,,,sub-018,50,100,700,bloc_loop.csv,2023-05-31_12h33.58.155,PainUncertainty,2022.2.5,143.34513063758314,
grave,moderee,stimuli/330Hz,stimuli/moderee,bloc_9,prob20hthp_12trials.xlsx,3,36,80,20,0,,,,,0,8,8,8,0,0,0,5,,,,,,,,3.9,1496.893414,1500.7970436,1500.7970569999998,0.3003542000001289,1501.241015,1501.241015,n,0.6746569999999821,1504.2792483,1504.2792483,20,2.145,,,sub-018,50,100,700,bloc_loop.csv,2023-05-31_12h33.58.155,PainUncertainty,2022.2.5,143.34513063758314,
aigu,forte,stimuli/660Hz,stimuli/forte,bloc_9,prob20hthp_12trials.xlsx,3,36,80,20,0,,,,,0,8,8,8,0,1,1,11,,,,,,,,3.7,1504.2792483,1507.9851541,1507.9852716999999,0.30096659999981057,1508.4294198,1508.4294198,m,0.9444422999999489,1511.4112149999999,1511.4112149999999,78,1.832,,,sub-018,50,100,700,bloc_loop.csv,2023-05-31_12h33.58.155,PainUncertainty,2022.2.5,143.34513063758314,
grave,forte,stimuli/330Hz,stimuli/forte,bloc_9,prob20hthp_12trials.xlsx,3,36,80,20,0,,,,,0,8,8,8,0,2,2,2,,,,,,,,4.4,1511.4112149999999,1515.8126717999999,1515.8135128,0.30476759999987735,1516.260542,1516.260542,m,0.8476396999999025,1518.9251858999999,1518.9251858999999,69,1.605,,,sub-018,50,100,700,bloc_loop.csv,2023-05-31_12h33.58.155,PainUncertainty,2022.2.5,143.34513063758314,
grave,forte,stimuli/330Hz,stimuli/forte,bloc_9,prob20hthp_12trials.xlsx,3,36,80,20,0,,,,,0,8,8,8,0,3,3,4,,,,,,,,4.6,1518.9251858999999,1523.5285519,1523.5286594999998,0.3009892999998556,1523.9728969,1523.9728969,m,0.7134150999999775,1526.3618803,1526.3618803,71,1.457,,,sub-018,50,100,700,bloc_loop.csv,2023-05-31_12h33.58.155,PainUncertainty,2022.2.5,143.34513063758314,
aigu,moderee,stimuli/660Hz,stimuli/moderee,bloc_9,prob20hthp_12trials.xlsx,3,36,80,20,0,,,,,0,8,8,8,0,4,4,9,,,,,,,,4.6,1526.3618803,1530.967015,1530.9668652999999,0.30488149999996494,1531.411107,1531.411107,n,0.7478023999999124,1534.3858578,1534.3858578,7,2.012,,,sub-018,50,100,700,bloc_loop.csv,2023-05-31_12h33.58.155,PainUncertainty,2022.2.5,143.34513063758314,
aigu,moderee,stimuli/660Hz,stimuli/moderee,bloc_9,prob20hthp_12trials.xlsx,3,36,80,20,0,,,,,0,8,8,8,0,5,5,10,,,,,,,,4.9,1534.3858578,1539.2874032,1539.2875439,0.30048759999999675,1539.7317516,1539.7317516,n,0.7054347999998782,1544.2049161,1544.2049161,2,3.546,,,sub-018,50,100,700,bloc_loop.csv,2023-05-31_12h33.58.155,PainUncertainty,2022.2.5,143.34513063758314,
aigu,moderee,stimuli/660Hz,stimuli/moderee,bloc_9,prob20hthp_12trials.xlsx,3,36,80,20,0,,,,,0,8,8,8,0,6,6,7,,,,,,,,3.1,1544.2049161,1547.309383,1547.3094663,0.30029629999989993,1547.7534785999999,1547.7534785999999,n,0.673056900000077,1550.2808678,1550.2808678,6,1.58,,,sub-018,50,100,700,bloc_loop.csv,2023-05-31_12h33.58.155,PainUncertainty,2022.2.5,143.34513063758314,
aigu,moderee,stimuli/660Hz,stimuli/moderee,bloc_9,prob20hthp_12trials.xlsx,3,36,80,20,0,,,,,0,8,8,8,0,7,7,6,,,,,,,,4.2,1550.2808678,1554.4835751,1554.4836324999999,0.30444989999978134,1554.9279457999999,1554.9279457999999,n,0.656812099999982,1557.4572928,1557.4572928,11,1.671,,,sub-018,50,100,700,bloc_loop.csv,2023-05-31_12h33.58.155,PainUncertainty,2022.2.5,143.34513063758314,
grave,forte,stimuli/330Hz,stimuli/forte,bloc_9,prob20hthp_12trials.xlsx,3,36,80,20,0,,,,,0,8,8,8,0,8,8,1,,,,,,,,5,1557.4572928,1562.4572258,1562.4573452999998,0.3015437000001384,1562.9012725,1562.9012725,m,0.6886879999999138,1565.7246616999998,1565.7246616999998,73,1.93,,,sub-018,50,100,700,bloc_loop.csv,2023-05-31_12h33.58.155,PainUncertainty,2022.2.5,143.34513063758314,
grave,forte,stimuli/330Hz,stimuli/forte,bloc_9,prob20hthp_12trials.xlsx,3,36,80,20,0,,,,,0,8,8,8,0,9,9,0,,,,,,,,3.3,1565.7246616999998,1569.0288286999998,1569.0272211999998,0.29986940000003415,1569.4693399,1569.4693399,m,0.7432803999999607,1571.7852644,1571.7852644,67,1.372,,,sub-018,50,100,700,bloc_loop.csv,2023-05-31_12h33.58.155,PainUncertainty,2022.2.5,143.34513063758314,
aigu,moderee,stimuli/660Hz,stimuli/moderee,bloc_9,prob20hthp_12trials.xlsx,3,36,80,20,0,,,,,0,8,8,8,0,10,10,8,,,,,,,,5,1571.7852644,1576.7848546999999,1576.7849248999999,0.3050269999998818,1577.2290771,1577.2290771,n,0.6568727999999311,1579.5860644,1579.5860644,16,1.498,,,sub-018,50,100,700,bloc_loop.csv,2023-05-31_12h33.58.155,PainUncertainty,2022.2.5,143.34513063758314,
grave,forte,stimuli/330Hz,stimuli/forte,bloc_9,prob20hthp_12trials.xlsx,3,36,80,20,0,,,,,0,8,8,8,0,11,11,3,,,,,,,,4.9,1579.5860644,1584.4871561999998,1584.4872093999998,0.30199599999991733,1584.9315763,1584.9315763,m,0.642100099999837,1586.6229372,1586.6229372,69,0.825,,,sub-018,50,100,700,bloc_loop.csv,2023-05-31_12h33.58.155,PainUncertainty,2022.2.5,143.34513063758314,
grave,forte,stimuli/330Hz,stimuli/forte,bloc_9,prob20hthp_12trials.xlsx,3,36,80,20,0,,,,,0,8,8,8,1,0,12,3,,,,,,,,3.1,1586.6229372,1589.7239319,1589.7239190999999,0.3013685999999325,1590.1684917999999,1590.1684917999999,m,0.6722120999997543,1592.8744301,1592.8744301,75,1.816,,,sub-018,50,100,700,bloc_loop.csv,2023-05-31_12h33.58.155,PainUncertainty,2022.2.5,143.34513063758314,
aigu,moderee,stimuli/660Hz,stimuli/moderee,bloc_9,prob20hthp_12trials.xlsx,3,36,80,20,0,,,,,0,8,8,8,1,1,13,10,,,,,,,,3.4,1592.8744301,1596.2736102,1596.2736820999999,0.30463259999987713,1596.7176471999999,1596.7176471999999,n,0.6323188999999303,1599.8124423,1599.8124423,10,2.239,,,sub-018,50,100,700,bloc_loop.csv,2023-05-31_12h33.58.155,PainUncertainty,2022.2.5,143.34513063758314,
grave,forte,stimuli/330Hz,stimuli/forte,bloc_9,prob20hthp_12trials.xlsx,3,36,80,20,0,,,,,0,8,8,8,1,2,14,0,,,,,,,,4.9,1599.8124423,1604.7120842,1604.7121101999999,0.30497219999983827,1605.1559333999999,1605.1559333999999,m,0.646013300000007,1608.2548142,1608.2548142,75,2.246,,,sub-018,50,100,700,bloc_loop.csv,2023-05-31_12h33.58.155,PainUncertainty,2022.2.5,143.34513063758314,
grave,moderee,stimuli/330Hz,stimuli/moderee,bloc_9,prob20hthp_12trials.xlsx,3,36,80,20,0,,,,,0,8,8,8,1,3,15,5,,,,,,,,4.5,1608.2548142,1612.7549663,1612.7549036999999,0.29945580000003247,1613.1992157,1613.1992157,n,1.0796351000000897,1616.7942686,1616.7942686,12,2.305,,,sub-018,50,100,700,bloc_loop.csv,2023-05-31_12h33.58.155,PainUncertainty,2022.2.5,143.34513063758314,
aigu,moderee,stimuli/660Hz,stimuli/moderee,bloc_9,prob20hthp_12trials.xlsx,3,36,80,20,0,,,,,0,8,8,8,1,4,16,8,,,,,,,,3.8,1616.7942686,1620.5959143999999,1620.5959922999998,0.30542160000004515,1621.04019,1621.04019,n,0.6514875999998395,1623.8123641,1623.8123641,17,1.915,,,sub-018,50,100,700,bloc_loop.csv,2023-05-31_12h33.58.155,PainUncertainty,2022.2.5,143.34513063758314,
grave,forte,stimuli/330Hz,stimuli/forte,bloc_9,prob20hthp_12trials.xlsx,3,36,80,20,0,,,,,0,8,8,8,1,5,17,4,,,,,,,,4.9,1623.8123641,1628.7147195999999,1628.7147539999999,0.2991672999999082,1629.1530202,1629.1530202,m,0.6199806999999993,1632.1261243,1632.1261243,69,2.144,,,sub-018,50,100,700,bloc_loop.csv,2023-05-31_12h33.58.155,PainUncertainty,2022.2.5,143.34513063758314,
grave,forte,stimuli/330Hz,stimuli/forte,bloc_9,prob20hthp_12trials.xlsx,3,36,80,20,0,,,,,0,8,8,8,1,6,18,2,,,,,,,,3.4,1632.1261243,1635.5280137,1635.5281085,0.30532590000007076,1635.9726928,1635.9726928,m,0.7233079999998182,1638.8414363,1638.8414363,69,1.922,,,sub-018,50,100,700,bloc_loop.csv,2023-05-31_12h33.58.155,PainUncertainty,2022.2.5,143.34513063758314,
aigu,forte,stimuli/660Hz,stimuli/forte,bloc_9,prob20hthp_12trials.xlsx,3,36,80,20,0,,,,,0,8,8,8,1,7,19,11,,,,,,,,3.2,1638.8414363,1642.0426244,1642.0427931999998,0.3053062999999838,1642.4940556,1642.4940556,m,0.6679540999998181,1645.4769079999999,1645.4769079999999,82,2.118,,,sub-018,50,100,700,bloc_loop.csv,2023-05-31_12h33.58.155,PainUncertainty,2022.2.5,143.34513063758314,
aigu,moderee,stimuli/660Hz,stimuli/moderee,bloc_9,prob20hthp_12trials.xlsx,3,36,80,20,0,,,,,0,8,8,8,1,8,20,6,,,,,,,,3.5,1645.4769079999999,1648.981137,1648.9812114,0.30039460000011786,1649.4253903,1649.4253903,n,0.6691106999998766,1651.7298209,1651.7298209,14,1.423,,,sub-018,50,100,700,bloc_loop.csv,2023-05-31_12h33.58.155,PainUncertainty,2022.2.5,143.34513063758314,
grave,forte,stimuli/330Hz,stimuli/forte,bloc_9,prob20hthp_12trials.xlsx,3,36,80,20,0,,,,,0,8,8,8,1,9,21,1,,,,,,,,3.3,1651.7298209,1655.0302884999999,1655.0303798999998,0.305150200000071,1655.4745842,1655.4745842,m,0.6879283000000243,1658.6418307,1658.6418307,77,1.892,,,sub-018,50,100,700,bloc_loop.csv,2023-05-31_12h33.58.155,PainUncertainty,2022.2.5,143.34513063758314,
aigu,moderee,stimuli/660Hz,stimuli/moderee,bloc_9,prob20hthp_12trials.xlsx,3,36,80,20,0,,,,,0,8,8,8,1,10,22,9,,,,,,,,3.2,1658.6418307,1661.8437301,1661.8435900999998,0.3050549999998111,1662.2918519,1662.2918519,n,0.6589836000000133,1664.5891268999999,1664.5891268999999,11,1.414,,,sub-018,50,100,700,bloc_loop.csv,2023-05-31_12h33.58.155,PainUncertainty,2022.2.5,143.34513063758314,
aigu,moderee,stimuli/660Hz,stimuli/moderee,bloc_9,prob20hthp_12trials.xlsx,3,36,80,20,0,,,,,0,8,8,8,1,11,23,7,,,,,,,,3,1664.5891268999999,1667.5942705999998,1667.5944602999998,0.3071097000001828,1668.045642,1668.045642,n,0.7254143999998206,1670.8577834,1670.8577834,14,1.866,,,sub-018,50,100,700,bloc_loop.csv,2023-05-31_12h33.58.155,PainUncertainty,2022.2.5,143.34513063758314,
grave,forte,stimuli/330Hz,stimuli/forte,bloc_9,prob20hthp_12trials.xlsx,3,36,80,20,0,,,,,0,8,8,8,2,0,24,4,,,,,,,,4.4,1670.8577834,1675.2618223,1675.2618200999998,0.30526229999986754,1675.7060007,1675.7060007,m,0.8082284000001465,1677.9564997,1677.9564997,72,1.243,,,sub-018,50,100,700,bloc_loop.csv,2023-05-31_12h33.58.155,PainUncertainty,2022.2.5,143.34513063758314,
aigu,moderee,stimuli/660Hz,stimuli/moderee,bloc_9,prob20hthp_12trials.xlsx,3,36,80,20,0,,,,,0,8,8,8,2,1,25,10,,,,,,,,3.9,1677.9564997,1681.8598173,1681.8598693,0.30475090000004457,1682.3043886,1682.3043886,n,0.6653630999998796,1684.9901177,1684.9901177,12,1.823,,,sub-018,50,100,700,bloc_loop.csv,2023-05-31_12h33.58.155,PainUncertainty,2022.2.5,143.34513063758314,
grave,moderee,stimuli/330Hz,stimuli/moderee,bloc_9,prob20hthp_12trials.xlsx,3,36,80,20,0,,,,,0,8,8,8,2,2,26,5,,,,,,,,4,1684.9901177,1688.9927209999998,1688.9927808999998,0.30480660000011994,1689.4404009999998,1689.4404009999998,n,0.5603402999999645,1691.3214519,1691.3214519,13,1.11,,,sub-018,50,100,700,bloc_loop.csv,2023-05-31_12h33.58.155,PainUncertainty,2022.2.5,143.34513063758314,
aigu,moderee,stimuli/660Hz,stimuli/moderee,bloc_9,prob20hthp_12trials.xlsx,3,36,80,20,0,,,,,0,8,8,8,2,3,27,9,,,,,,,,4.9,1691.3214519,1696.2228928,1696.2231264999998,0.30194669999991675,1696.6677183,1696.6677183,n,0.6082662999999258,1699.3222146,1699.3222146,17,1.484,,,sub-018,50,100,700,bloc_loop.csv,2023-05-31_12h33.58.155,PainUncertainty,2022.2.5,143.34513063758314,
grave,forte,stimuli/330Hz,stimuli/forte,bloc_9,prob20hthp_12trials.xlsx,3,36,80,20,0,,,,,0,8,8,8,2,4,28,0,,,,,,,,4.8,1699.3222146,1704.1265196,1704.1263270999998,0.30397900000002664,1704.5707753,1704.5707753,m,0.5550275999998604,1706.6433921,1706.6433921,82,1.316,,,sub-018,50,100,700,bloc_loop.csv,2023-05-31_12h33.58.155,PainUncertainty,2022.2.5,143.34513063758314,
grave,forte,stimuli/330Hz,stimuli/forte,bloc_9,prob20hthp_12trials.xlsx,3,36,80,20,0,,,,,0,8,8,8,2,5,29,3,,,,,,,,4.2,1706.6433921,1710.8424466,1710.8425390999998,0.3049347000001035,1711.2867202,1711.2867202,m,0.5659256999999371,1714.5768976,1714.5768976,80,2.504,,,sub-018,50,100,700,bloc_loop.csv,2023-05-31_12h33.58.155,PainUncertainty,2022.2.5,143.34513063758314,
grave,forte,stimuli/330Hz,stimuli/forte,bloc_9,prob20hthp_12trials.xlsx,3,36,80,20,0,,,,,0,8,8,8,2,6,30,2,,,,,,,,3.5,1714.5768976,1718.0800224,1718.0798465999999,0.30144739999991543,1718.5245900999998,1718.5245900999998,m,0.5443155999998481,1721.5933739,1721.5933739,86,2.309,,,sub-018,50,100,700,bloc_loop.csv,2023-05-31_12h33.58.155,PainUncertainty,2022.2.5,143.34513063758314,
aigu,moderee,stimuli/660Hz,stimuli/moderee,bloc_9,prob20hthp_12trials.xlsx,3,36,80,20,0,,,,,0,8,8,8,2,7,31,8,,,,,,,,5,1721.5933739,1726.5943653,1726.5942976,0.3039432999999008,1727.0387266,1727.0387266,n,0.7306183999998694,1729.8754519,1729.8754519,18,1.88,,,sub-018,50,100,700,bloc_loop.csv,2023-05-31_12h33.58.155,PainUncertainty,2022.2.5,143.34513063758314,
grave,forte,stimuli/330Hz,stimuli/forte,bloc_9,prob20hthp_12trials.xlsx,3,36,80,20,0,,,,,0,8,8,8,2,8,32,1,,,,,,,,5,1729.8754519,1734.8803254,1734.8811976,0.29964670000003935,1735.3259908,1735.3259908,m,0.536498399999985,1738.0294939,1738.0294939,77,1.943,,,sub-018,50,100,700,bloc_loop.csv,2023-05-31_12h33.58.155,PainUncertainty,2022.2.5,143.34513063758314,
aigu,forte,stimuli/660Hz,stimuli/forte,bloc_9,prob20hthp_12trials.xlsx,3,36,80,20,0,,,,,0,8,8,8,2,9,33,11,,,,,,,,4.2,1738.0294939,1742.2352486,1742.2354047999997,0.2991531999998642,1742.6736088,1742.6736088,m,0.5133318999998693,1744.6653208999999,1744.6653208999999,77,1.281,,,sub-018,50,100,700,bloc_loop.csv,2023-05-31_12h33.58.155,PainUncertainty,2022.2.5,143.34513063758314,
aigu,moderee,stimuli/660Hz,stimuli/moderee,bloc_9,prob20hthp_12trials.xlsx,3,36,80,20,0,,,,,0,8,8,8,2,10,34,6,,,,,,,,3.3,1744.6653208999999,1747.9649931,1747.9649825,0.30429030000004786,1748.4093327,1748.4093327,n,0.6843808999999084,1751.2052703,1751.2052703,16,1.886,,,sub-018,50,100,700,bloc_loop.csv,2023-05-31_12h33.58.155,PainUncertainty,2022.2.5,143.34513063758314,
aigu,moderee,stimuli/660Hz,stimuli/moderee,bloc_9,prob20hthp_12trials.xlsx,3,36,80,20,0,,,,,0,8,8,8,2,11,35,7,,,,,,,,3.9,1751.2052703,1755.1047033,1755.1048882999999,0.30245659999991403,1755.5506079,1755.5506079,n,0.6709450000000317,1757.227913,1757.227913,14,0.982,,,sub-018,50,100,700,bloc_loop.csv,2023-05-31_12h33.58.155,PainUncertainty,2022.2.5,143.34513063758314,
