cue_,stimulus_,cue_fichier,stimulus_fichier,block_name,block_trials_file,block_n_reps,block_ntrials,block_prob_highP_highT,block_prob_highP_lowT,block_pause_after,Bloc_essai.thisRepN,Bloc_essai.thisTrialN,Bloc_essai.thisN,Bloc_essai.thisIndex,blocks.thisRepN,blocks.thisTrialN,blocks.thisN,blocks.thisIndex,trials.thisRepN,trials.thisTrialN,trials.thisN,trials.thisIndex,pause_loop.thisRepN,pause_loop.thisTrialN,pause_loop.thisN,pause_loop.thisIndex,key_resp_5.started,start_calib.started,key_resp_2.started,ISI_duration,pause.started,pause.stopped,cue.started,ISI.started,choice_pain.started,Choice.started,choice_pain.keys,choice_pain.rt,main_text.started,confirm_text.started,ratingScale.response,ratingScale.rt,choice_pain.stopped,Choice.stopped,key_resp_3.started,key_resp_6.started,participant,low_ma,high_ma,failsafe_ma,block_file,date,expName,psychopyVersion,frameRate,
aigu,forte,stimuli/660Hz,stimuli/forte,,,,,,,,0,0,0,3,,,,,,,,,,,,,38.54699880000044,276.70520560000296,279.0874223999999,4.2,280.46333680000316,284.67002180000054,284.6712744200006,0.30345089999900665,285.10896649999995,285.10896649999995,n,1.3580428999957803,289.45720580000125,289.45720580000125,17,2.896,,,,,sub-055,70,110,700,bloc_loop.csv,2023-10-02_17h06.21.632,PainUncertainty,2022.2.5,144.25955178106494,
grave,moderee,stimuli/330Hz,stimuli/moderee,,,,,,,,0,1,1,0,,,,,,,,,,,,,,,,4.7,289.45720580000125,294.1600178000008,294.16549222000253,0.2993654999991122,294.5970963,294.5970963,n,1.9117792999968515,300.5830030000034,300.5830030000034,0,4.01,,,,,sub-055,70,110,700,bloc_loop.csv,2023-10-02_17h06.21.632,PainUncertainty,2022.2.5,144.25955178106494,
aigu,moderee,stimuli/660Hz,stimuli/moderee,,,,,,,,0,2,2,2,,,,,,,,,,,,,,,,3.7,300.5830030000034,304.28481410000313,304.2849553600005,0.3051121999997122,304.7320772000021,304.7320772000021,n,1.1764637000014773,309.56844600000113,309.56844600000113,9,3.58,,,,,sub-055,70,110,700,bloc_loop.csv,2023-10-02_17h06.21.632,PainUncertainty,2022.2.5,144.25955178106494,
grave,forte,stimuli/330Hz,stimuli/forte,,,,,,,,0,3,3,1,,,,,,,,,,,,,,,,3.5,309.56844600000113,313.07087150000007,313.0708337600023,0.3051251999968372,313.5149539000013,313.5149539000013,None,,319.1805282000023,319.1805282000023,44,3.198,315.98259959999996,315.98259959999996,,,sub-055,70,110,700,bloc_loop.csv,2023-10-02_17h06.21.632,PainUncertainty,2022.2.5,144.25955178106494,
grave,forte,stimuli/330Hz,stimuli/forte,bloc_1,prob20hthp_12trials.xlsx,4,48,20,80,0,,,,,0,0,0,0,0,0,0,1,,,,,,,,4.1,451.3216997000018,455.42137900000307,455.42168746000027,0.30030579999947804,455.8659750000006,455.8659750000006,None,,460.43362310000157,460.43362310000157,42,2.046,458.3329854000003,458.3329854000003,,,sub-055,70,110,700,bloc_loop.csv,2023-10-02_17h06.21.632,PainUncertainty,2022.2.5,144.25955178106494,
aigu,moderee,stimuli/660Hz,stimuli/moderee,bloc_1,prob20hthp_12trials.xlsx,4,48,20,80,0,,,,,0,0,0,0,0,1,1,6,,,,,,,,3.2,460.43362310000157,463.6374381000023,463.63741746000017,0.30490110000027926,464.0815853000022,464.0815853000022,None,,468.4105767000001,468.4105767000001,0,1.831,466.55001200000333,466.55001200000333,,,sub-055,70,110,700,bloc_loop.csv,2023-10-02_17h06.21.632,PainUncertainty,2022.2.5,144.25955178106494,
aigu,moderee,stimuli/660Hz,stimuli/moderee,bloc_1,prob20hthp_12trials.xlsx,4,48,20,80,0,,,,,0,0,0,0,0,2,2,8,,,,,,,,3.8,468.4105767000001,472.2150821000032,472.21544596000024,0.2993430000024091,472.6595840000009,472.6595840000009,n,1.2033926999974938,475.52439080000113,475.52439080000113,1,1.587,,,,,sub-055,70,110,700,bloc_loop.csv,2023-10-02_17h06.21.632,PainUncertainty,2022.2.5,144.25955178106494,
aigu,forte,stimuli/660Hz,stimuli/forte,bloc_1,prob20hthp_12trials.xlsx,4,48,20,80,0,,,,,0,0,0,0,0,3,3,11,,,,,,,,3.1,475.52439080000113,478.6252404000006,478.6252448600004,0.3052778999990551,479.0696930000013,479.0696930000013,None,,483.9649298000004,483.9649298000004,35,2.378,481.53780259999985,481.53780259999985,,,sub-055,70,110,700,bloc_loop.csv,2023-10-02_17h06.21.632,PainUncertainty,2022.2.5,144.25955178106494,
aigu,moderee,stimuli/660Hz,stimuli/moderee,bloc_1,prob20hthp_12trials.xlsx,4,48,20,80,0,,,,,0,0,0,0,0,4,4,10,,,,,,,,3.1,483.9649298000004,487.0707824000019,487.0709116600025,0.304876800000784,487.5150410000024,487.5150410000024,n,0.9125647999971989,489.7693158000002,489.7693158000002,7,1.268,,,,,sub-055,70,110,700,bloc_loop.csv,2023-10-02_17h06.21.632,PainUncertainty,2022.2.5,144.25955178106494,
grave,forte,stimuli/330Hz,stimuli/forte,bloc_1,prob20hthp_12trials.xlsx,4,48,20,80,0,,,,,0,0,0,0,0,5,5,3,,,,,,,,4,489.7693158000002,493.7729526000003,493.77301496000075,0.30514839999887045,494.2175623000003,494.2175623000003,None,,498.43401630000153,498.43401630000153,42,1.69,496.6856544000002,496.6856544000002,,,sub-055,70,110,700,bloc_loop.csv,2023-10-02_17h06.21.632,PainUncertainty,2022.2.5,144.25955178106494,
grave,moderee,stimuli/330Hz,stimuli/moderee,bloc_1,prob20hthp_12trials.xlsx,4,48,20,80,0,,,,,0,0,0,0,0,6,6,5,,,,,,,,3.4,498.43401630000153,501.8365322000027,501.8365062600002,0.3053805999988981,502.28522990000056,502.28522990000056,n,0.7948594000008598,505.09813340000255,505.09813340000255,17,1.963,,,,,sub-055,70,110,700,bloc_loop.csv,2023-10-02_17h06.21.632,PainUncertainty,2022.2.5,144.25955178106494,
aigu,moderee,stimuli/660Hz,stimuli/moderee,bloc_1,prob20hthp_12trials.xlsx,4,48,20,80,0,,,,,0,0,0,0,0,7,7,7,,,,,,,,4.4,505.09813340000255,509.4974000000002,509.4988416600005,0.30401139999958104,509.94146690000343,509.94146690000343,n,1.3145709999989776,513.4290045000016,513.4290045000016,8,2.101,,,,,sub-055,70,110,700,bloc_loop.csv,2023-10-02_17h06.21.632,PainUncertainty,2022.2.5,144.25955178106494,
grave,forte,stimuli/330Hz,stimuli/forte,bloc_1,prob20hthp_12trials.xlsx,4,48,20,80,0,,,,,0,0,0,0,0,8,8,2,,,,,,,,3.6,513.4290045000016,517.0333992000014,517.0331428600017,0.29917050000221934,517.4752071000003,517.4752071000003,None,,521.8698258000004,521.8698258000004,28,1.885,519.9447907000031,519.9447907000031,,,sub-055,70,110,700,bloc_loop.csv,2023-10-02_17h06.21.632,PainUncertainty,2022.2.5,144.25955178106494,
grave,forte,stimuli/330Hz,stimuli/forte,bloc_1,prob20hthp_12trials.xlsx,4,48,20,80,0,,,,,0,0,0,0,0,9,9,0,,,,,,,,3.8,521.8698258000004,525.6726307000026,525.6727806600007,0.3048964999979944,526.1171877000015,526.1171877000015,None,,531.4139650000034,531.4139650000034,42,2.796,528.5853447000009,528.5853447000009,,,sub-055,70,110,700,bloc_loop.csv,2023-10-02_17h06.21.632,PainUncertainty,2022.2.5,144.25955178106494,
grave,forte,stimuli/330Hz,stimuli/forte,bloc_1,prob20hthp_12trials.xlsx,4,48,20,80,0,,,,,0,0,0,0,0,10,10,4,,,,,,,,4.6,531.4139650000034,536.0141263000005,536.0141890600004,0.30512779999844497,536.4588392000005,536.4588392000005,None,,542.349692900003,542.349692900003,48,3.379,538.9269061000014,538.9269061000014,,,sub-055,70,110,700,bloc_loop.csv,2023-10-02_17h06.21.632,PainUncertainty,2022.2.5,144.25955178106494,
aigu,moderee,stimuli/660Hz,stimuli/moderee,bloc_1,prob20hthp_12trials.xlsx,4,48,20,80,0,,,,,0,0,0,0,0,11,11,9,,,,,,,,3.3,542.349692900003,545.6548959000029,545.6547542600034,0.3047728999990795,546.0985602000001,546.0985602000001,n,1.3158953999991354,549.2876606999998,549.2876606999998,1,1.789,,,,,sub-055,70,110,700,bloc_loop.csv,2023-10-02_17h06.21.632,PainUncertainty,2022.2.5,144.25955178106494,
grave,forte,stimuli/330Hz,stimuli/forte,bloc_1,prob20hthp_12trials.xlsx,4,48,20,80,0,,,,,0,0,0,0,1,0,12,2,,,,,,,,3.2,549.2876606999998,552.4883546000019,552.4883970600036,0.30494869999893126,552.9325374,552.9325374,m,1.0411597000020265,556.6398337000028,556.6398337000028,40,2.613,,,,,sub-055,70,110,700,bloc_loop.csv,2023-10-02_17h06.21.632,PainUncertainty,2022.2.5,144.25955178106494,
grave,forte,stimuli/330Hz,stimuli/forte,bloc_1,prob20hthp_12trials.xlsx,4,48,20,80,0,,,,,0,0,0,0,1,1,13,1,,,,,,,,3.1,556.6398337000028,559.7393100000008,559.7393054600012,0.30570019999868236,560.1876951000013,560.1876951000013,m,2.3928127999970457,565.6077360000018,565.6077360000018,35,2.969,,,,,sub-055,70,110,700,bloc_loop.csv,2023-10-02_17h06.21.632,PainUncertainty,2022.2.5,144.25955178106494,
grave,forte,stimuli/330Hz,stimuli/forte,bloc_1,prob20hthp_12trials.xlsx,4,48,20,80,0,,,,,0,0,0,0,1,2,14,3,,,,,,,,3.5,565.6077360000018,569.1084708000017,569.1085585600027,0.30513969999810797,569.5526149000034,569.5526149000034,m,1.3207499999989523,573.8407480000023,573.8407480000023,49,2.914,,,,,sub-055,70,110,700,bloc_loop.csv,2023-10-02_17h06.21.632,PainUncertainty,2022.2.5,144.25955178106494,
grave,forte,stimuli/330Hz,stimuli/forte,bloc_1,prob20hthp_12trials.xlsx,4,48,20,80,0,,,,,0,0,0,0,1,3,15,0,,,,,,,,4.9,573.8407480000023,578.7416643000033,578.741660360001,0.305019600000378,579.185860900001,579.185860900001,m,1.122354399998585,584.440049300003,584.440049300003,43,4.073,,,,,sub-055,70,110,700,bloc_loop.csv,2023-10-02_17h06.21.632,PainUncertainty,2022.2.5,144.25955178106494,
grave,forte,stimuli/330Hz,stimuli/forte,bloc_1,prob20hthp_12trials.xlsx,4,48,20,80,0,,,,,0,0,0,0,1,4,16,4,,,,,,,,3.5,584.440049300003,587.9441323000028,587.944167260002,0.3049334999996063,588.3882819999999,588.3882819999999,m,1.1581543999964197,591.2841348000002,591.2841348000002,50,1.664,,,,,sub-055,70,110,700,bloc_loop.csv,2023-10-02_17h06.21.632,PainUncertainty,2022.2.5,144.25955178106494,
aigu,moderee,stimuli/660Hz,stimuli/moderee,bloc_1,prob20hthp_12trials.xlsx,4,48,20,80,0,,,,,0,0,0,0,1,5,17,9,,,,,,,,3.2,591.2841348000002,594.4866030000012,594.4865784600021,0.30502920000071754,594.931074600001,594.931074600001,n,2.3899745999988227,599.579254100001,599.579254100001,1,2.197,,,,,sub-055,70,110,700,bloc_loop.csv,2023-10-02_17h06.21.632,PainUncertainty,2022.2.5,144.25955178106494,
grave,moderee,stimuli/330Hz,stimuli/moderee,bloc_1,prob20hthp_12trials.xlsx,4,48,20,80,0,,,,,0,0,0,0,1,6,18,5,,,,,,,,3.3,599.579254100001,602.8837853000005,602.8838631600025,0.30071699999825796,603.3278562000014,603.3278562000014,n,1.9401387999969302,608.1480979000007,608.1480979000007,6,2.816,,,,,sub-055,70,110,700,bloc_loop.csv,2023-10-02_17h06.21.632,PainUncertainty,2022.2.5,144.25955178106494,
aigu,moderee,stimuli/660Hz,stimuli/moderee,bloc_1,prob20hthp_12trials.xlsx,4,48,20,80,0,,,,,0,0,0,0,1,7,19,7,,,,,,,,3.4,608.1480979000007,611.5511538999999,611.5513211600024,0.3048812999986694,611.9955237000031,611.9955237000031,n,1.153032099999109,615.757504600002,615.757504600002,2,2.553,,,,,sub-055,70,110,700,bloc_loop.csv,2023-10-02_17h06.21.632,PainUncertainty,2022.2.5,144.25955178106494,
aigu,moderee,stimuli/660Hz,stimuli/moderee,bloc_1,prob20hthp_12trials.xlsx,4,48,20,80,0,,,,,0,0,0,0,1,8,20,8,,,,,,,,4.9,615.757504600002,620.6563950000018,620.6565423600019,0.30485159999807365,621.1006338000007,621.1006338000007,n,0.842086399999971,625.2067268000028,625.2067268000028,4,3.206,,,,,sub-055,70,110,700,bloc_loop.csv,2023-10-02_17h06.21.632,PainUncertainty,2022.2.5,144.25955178106494,
aigu,moderee,stimuli/660Hz,stimuli/moderee,bloc_1,prob20hthp_12trials.xlsx,4,48,20,80,0,,,,,0,0,0,0,1,9,21,10,,,,,,,,3.6,625.2067268000028,628.8103015000015,628.8104047600006,0.3047658999967098,629.2581232000011,629.2581232000011,n,0.7339296999962244,631.8080909000018,631.8080909000018,6,1.757,,,,,sub-055,70,110,700,bloc_loop.csv,2023-10-02_17h06.21.632,PainUncertainty,2022.2.5,144.25955178106494,
aigu,moderee,stimuli/660Hz,stimuli/moderee,bloc_1,prob20hthp_12trials.xlsx,4,48,20,80,0,,,,,0,0,0,0,1,10,22,6,,,,,,,,3.7,631.8080909000018,635.5124693000034,635.512532360002,0.304862699998921,635.9566565000023,635.9566565000023,n,0.6524992999984534,638.9702491000025,638.9702491000025,1,2.288,,,,,sub-055,70,110,700,bloc_loop.csv,2023-10-02_17h06.21.632,PainUncertainty,2022.2.5,144.25955178106494,
aigu,forte,stimuli/660Hz,stimuli/forte,bloc_1,prob20hthp_12trials.xlsx,4,48,20,80,0,,,,,0,0,0,0,1,11,23,11,,,,,,,,4.3,638.9702491000025,643.2709162000028,643.2708969600004,0.3014139000006253,643.7157001000014,643.7157001000014,m,1.3752588999996078,648.0193623000014,648.0193623000014,49,2.844,,,,,sub-055,70,110,700,bloc_loop.csv,2023-10-02_17h06.21.632,PainUncertainty,2022.2.5,144.25955178106494,
aigu,moderee,stimuli/660Hz,stimuli/moderee,bloc_1,prob20hthp_12trials.xlsx,4,48,20,80,0,,,,,0,0,0,0,2,0,24,7,,,,,,,,4.9,648.0193623000014,652.9243486000014,652.9242304600026,0.3074080000005779,653.3760653000027,653.3760653000027,n,0.878508800000418,657.9770408000004,657.9770408000004,7,3.67,,,,,sub-055,70,110,700,bloc_loop.csv,2023-10-02_17h06.21.632,PainUncertainty,2022.2.5,144.25955178106494,
aigu,moderee,stimuli/660Hz,stimuli/moderee,bloc_1,prob20hthp_12trials.xlsx,4,48,20,80,0,,,,,0,0,0,0,2,1,25,9,,,,,,,,3.5,657.9770408000004,661.4811780000018,661.4814120600037,0.3012784999991709,661.9255248000009,661.9255248000009,n,0.6010921999986749,663.9426843000001,663.9426843000001,11,1.336,,,,,sub-055,70,110,700,bloc_loop.csv,2023-10-02_17h06.21.632,PainUncertainty,2022.2.5,144.25955178106494,
grave,forte,stimuli/330Hz,stimuli/forte,bloc_1,prob20hthp_12trials.xlsx,4,48,20,80,0,,,,,0,0,0,0,2,2,26,0,,,,,,,,4.7,663.9426843000001,668.6419754000017,668.6417359600033,0.30092449999938253,669.0859409000004,669.0859409000004,m,0.7809116999997059,671.8543004000021,671.8543004000021,54,1.914,,,,,sub-055,70,110,700,bloc_loop.csv,2023-10-02_17h06.21.632,PainUncertainty,2022.2.5,144.25955178106494,
aigu,moderee,stimuli/660Hz,stimuli/moderee,bloc_1,prob20hthp_12trials.xlsx,4,48,20,80,0,,,,,0,0,0,0,2,3,27,6,,,,,,,,3.9,671.8543004000021,675.753428400003,675.7533969600023,0.3053925000021991,676.2015434000023,676.2015434000023,n,1.2735983999991731,680.3916761,680.3916761,6,2.841,,,,,sub-055,70,110,700,bloc_loop.csv,2023-10-02_17h06.21.632,PainUncertainty,2022.2.5,144.25955178106494,
grave,forte,stimuli/330Hz,stimuli/forte,bloc_1,prob20hthp_12trials.xlsx,4,48,20,80,0,,,,,0,0,0,0,2,4,28,3,,,,,,,,4,680.3916761,684.3933750000033,684.3933715600011,0.30505189999894355,684.8378047000006,684.8378047000006,m,0.8780071000001044,688.4333772000027,688.4333772000027,70,2.636,,,,,sub-055,70,110,700,bloc_loop.csv,2023-10-02_17h06.21.632,PainUncertainty,2022.2.5,144.25955178106494,
aigu,moderee,stimuli/660Hz,stimuli/moderee,bloc_1,prob20hthp_12trials.xlsx,4,48,20,80,0,,,,,0,0,0,0,2,5,29,10,,,,,,,,3.1,688.4333772000027,691.5330833000007,691.5331380600015,0.30650729999979376,691.9825172000019,691.9825172000019,n,0.5500715000016498,696.2972321000016,696.2972321000016,4,3.698,,,,,sub-055,70,110,700,bloc_loop.csv,2023-10-02_17h06.21.632,PainUncertainty,2022.2.5,144.25955178106494,
grave,forte,stimuli/330Hz,stimuli/forte,bloc_1,prob20hthp_12trials.xlsx,4,48,20,80,0,,,,,0,0,0,0,2,6,30,2,,,,,,,,4.1,696.2972321000016,700.402315000003,700.4022856600001,0.29967480000050273,700.8476725,700.8476725,m,0.7299162999988766,705.5217957000023,705.5217957000023,65,3.872,,,,,sub-055,70,110,700,bloc_loop.csv,2023-10-02_17h06.21.632,PainUncertainty,2022.2.5,144.25955178106494,
aigu,moderee,stimuli/660Hz,stimuli/moderee,bloc_1,prob20hthp_12trials.xlsx,4,48,20,80,0,,,,,0,0,0,0,2,7,31,8,,,,,,,,4.9,705.5217957000023,710.4264941000001,710.4246024600012,0.2994911999994656,710.8688672000026,710.8688672000026,n,0.5757159999957366,713.690728900001,713.690728900001,6,2.177,,,,,sub-055,70,110,700,bloc_loop.csv,2023-10-02_17h06.21.632,PainUncertainty,2022.2.5,144.25955178106494,
aigu,forte,stimuli/660Hz,stimuli/forte,bloc_1,prob20hthp_12trials.xlsx,4,48,20,80,0,,,,,0,0,0,0,2,8,32,11,,,,,,,,4.5,713.690728900001,718.1896059000028,718.1907346600034,0.3039170000010927,718.6373628000001,718.6373628000001,m,0.6083767999989504,721.1892187000012,721.1892187000012,70,1.879,,,,,sub-055,70,110,700,bloc_loop.csv,2023-10-02_17h06.21.632,PainUncertainty,2022.2.5,144.25955178106494,
grave,forte,stimuli/330Hz,stimuli/forte,bloc_1,prob20hthp_12trials.xlsx,4,48,20,80,0,,,,,0,0,0,0,2,9,33,4,,,,,,,,4.6,721.1892187000012,725.7947715000009,725.7946610600026,0.30525459999989835,726.2427542000005,726.2427542000005,None,,731.8824177000024,731.8824177000024,40,3.121,,,,,sub-055,70,110,700,bloc_loop.csv,2023-10-02_17h06.21.632,PainUncertainty,2022.2.5,144.25955178106494,
grave,moderee,stimuli/330Hz,stimuli/moderee,bloc_1,prob20hthp_12trials.xlsx,4,48,20,80,0,,,,,0,0,0,0,2,10,34,5,,,,,,,,3.5,731.8824177000024,735.3857008000014,735.3857776600031,0.3049719000009645,735.8298367000025,735.8298367000025,n,0.6809264000003168,739.0137742000006,739.0137742000006,7,2.433,,,,,sub-055,70,110,700,bloc_loop.csv,2023-10-02_17h06.21.632,PainUncertainty,2022.2.5,144.25955178106494,
grave,forte,stimuli/330Hz,stimuli/forte,bloc_1,prob20hthp_12trials.xlsx,4,48,20,80,0,,,,,0,0,0,0,2,11,35,1,,,,,,,,3.8,739.0137742000006,742.8174674000002,742.8171883600022,0.3056624999990163,743.2624173000004,743.2624173000004,m,0.7368038999957207,745.5841577000028,745.5841577000028,56,1.502,,,,,sub-055,70,110,700,bloc_loop.csv,2023-10-02_17h06.21.632,PainUncertainty,2022.2.5,144.25955178106494,
aigu,moderee,stimuli/660Hz,stimuli/moderee,bloc_1,prob20hthp_12trials.xlsx,4,48,20,80,0,,,,,0,0,0,0,3,0,36,10,,,,,,,,4.6,745.5841577000028,750.1866255000023,750.1867859600003,0.30445850000251085,750.6309660000006,750.6309660000006,n,0.5372622999966552,752.6500420000011,752.6500420000011,10,1.406,,,,,sub-055,70,110,700,bloc_loop.csv,2023-10-02_17h06.21.632,PainUncertainty,2022.2.5,144.25955178106494,
grave,forte,stimuli/330Hz,stimuli/forte,bloc_1,prob20hthp_12trials.xlsx,4,48,20,80,0,,,,,0,0,0,0,3,1,37,2,,,,,,,,4.3,752.6500420000011,756.9509039000004,756.9508878600005,0.30522410000048694,757.3953529999999,757.3953529999999,m,0.9562403999989328,760.4529991000018,760.4529991000018,38,2.018,,,,,sub-055,70,110,700,bloc_loop.csv,2023-10-02_17h06.21.632,PainUncertainty,2022.2.5,144.25955178106494,
aigu,moderee,stimuli/660Hz,stimuli/moderee,bloc_1,prob20hthp_12trials.xlsx,4,48,20,80,0,,,,,0,0,0,0,3,2,38,8,,,,,,,,3.6,760.4529991000018,764.0557118000033,764.0558052600005,0.3052890999970259,764.5003676000015,764.5003676000015,n,0.7072508999954152,768.3978508,768.3978508,2,3.131,,,,,sub-055,70,110,700,bloc_loop.csv,2023-10-02_17h06.21.632,PainUncertainty,2022.2.5,144.25955178106494,
aigu,moderee,stimuli/660Hz,stimuli/moderee,bloc_1,prob20hthp_12trials.xlsx,4,48,20,80,0,,,,,0,0,0,0,3,3,39,9,,,,,,,,4.9,768.3978508,773.3000169000006,773.2999554600007,0.3053753999993205,773.7443187000026,773.7443187000026,n,0.6779433999981848,777.8603286000034,777.8603286000034,7,3.371,,,,,sub-055,70,110,700,bloc_loop.csv,2023-10-02_17h06.21.632,PainUncertainty,2022.2.5,144.25955178106494,
aigu,forte,stimuli/660Hz,stimuli/forte,bloc_1,prob20hthp_12trials.xlsx,4,48,20,80,0,,,,,0,0,0,0,3,4,40,11,,,,,,,,3,777.8603286000034,780.8635926000024,780.8635586600009,0.3052783000021009,781.307744400001,781.307744400001,m,1.7972291999976733,785.3909354000025,785.3909354000025,48,2.231,,,,,sub-055,70,110,700,bloc_loop.csv,2023-10-02_17h06.21.632,PainUncertainty,2022.2.5,144.25955178106494,
grave,forte,stimuli/330Hz,stimuli/forte,bloc_1,prob20hthp_12trials.xlsx,4,48,20,80,0,,,,,0,0,0,0,3,5,41,3,,,,,,,,3.4,785.3909354000025,788.795022600003,788.7950728600023,0.3051053999988653,789.2392045000015,789.2392045000015,m,1.2531319999980042,792.0421757000004,792.0421757000004,36,1.469,,,,,sub-055,70,110,700,bloc_loop.csv,2023-10-02_17h06.21.632,PainUncertainty,2022.2.5,144.25955178106494,
aigu,moderee,stimuli/660Hz,stimuli/moderee,bloc_1,prob20hthp_12trials.xlsx,4,48,20,80,0,,,,,0,0,0,0,3,6,42,6,,,,,,,,4.5,792.0421757000004,796.5459236000024,796.5458971600034,0.3053259000007529,796.9908765,796.9908765,n,1.052883299998939,801.9532209000026,801.9532209000026,3,3.83,,,,,sub-055,70,110,700,bloc_loop.csv,2023-10-02_17h06.21.632,PainUncertainty,2022.2.5,144.25955178106494,
grave,forte,stimuli/330Hz,stimuli/forte,bloc_1,prob20hthp_12trials.xlsx,4,48,20,80,0,,,,,0,0,0,0,3,7,43,0,,,,,,,,4,801.9532209000026,805.9570456000001,805.9569930600024,0.3049099000018032,806.4009225000009,806.4009225000009,m,1.4503898999973899,810.1064283000014,810.1064283000014,48,2.183,,,,,sub-055,70,110,700,bloc_loop.csv,2023-10-02_17h06.21.632,PainUncertainty,2022.2.5,144.25955178106494,
aigu,moderee,stimuli/660Hz,stimuli/moderee,bloc_1,prob20hthp_12trials.xlsx,4,48,20,80,0,,,,,0,0,0,0,3,8,44,7,,,,,,,,3.9,810.1064283000014,814.0066029000009,814.0064160600028,0.3048125999994227,814.450922,814.450922,n,0.5816397999988112,818.0051598000027,818.0051598000027,5,2.9,,,,,sub-055,70,110,700,bloc_loop.csv,2023-10-02_17h06.21.632,PainUncertainty,2022.2.5,144.25955178106494,
grave,forte,stimuli/330Hz,stimuli/forte,bloc_1,prob20hthp_12trials.xlsx,4,48,20,80,0,,,,,0,0,0,0,3,9,45,1,,,,,,,,3.6,818.0051598000027,821.604612500003,821.6045916600029,0.3007953999986057,822.0493281000017,822.0493281000017,m,1.2180508999990707,824.6398644000001,824.6398644000001,54,1.295,,,,,sub-055,70,110,700,bloc_loop.csv,2023-10-02_17h06.21.632,PainUncertainty,2022.2.5,144.25955178106494,
grave,moderee,stimuli/330Hz,stimuli/moderee,bloc_1,prob20hthp_12trials.xlsx,4,48,20,80,0,,,,,0,0,0,0,3,10,46,5,,,,,,,,3.1,824.6398644000001,827.7446125000024,827.7445701600024,0.29926999999952386,828.1868809000007,828.1868809000007,n,0.5760745999978099,831.5137248999999,831.5137248999999,0,2.678,,,,,sub-055,70,110,700,bloc_loop.csv,2023-10-02_17h06.21.632,PainUncertainty,2022.2.5,144.25955178106494,
grave,forte,stimuli/330Hz,stimuli/forte,bloc_1,prob20hthp_12trials.xlsx,4,48,20,80,0,,,,,0,0,0,0,3,11,47,4,,,,,,,,4.9,831.5137248999999,836.4187840000013,836.418789660003,0.3051768000004813,836.8629569000004,836.8629569000004,None,,840.7206111000014,840.7206111000014,43,1.331,839.3313540000017,839.3313540000017,,,sub-055,70,110,700,bloc_loop.csv,2023-10-02_17h06.21.632,PainUncertainty,2022.2.5,144.25955178106494,
aigu,moderee,stimuli/660Hz,stimuli/moderee,bloc_2,prob50_50_4trials.xlsx,2,8,50,50,1,,,,,0,1,1,1,0,0,0,2,,,,,,,,4.9,840.7206111000014,845.621305800003,845.6212803600007,0.30199290000018664,846.0670112000007,846.0670112000007,n,1.1049363999991328,848.3777072000012,848.3777072000012,7,1.136,,,,,sub-055,70,110,700,bloc_loop.csv,2023-10-02_17h06.21.632,PainUncertainty,2022.2.5,144.25955178106494,
grave,forte,stimuli/330Hz,stimuli/forte,bloc_2,prob50_50_4trials.xlsx,2,8,50,50,1,,,,,0,1,1,1,0,1,1,1,,,,,,,,5,848.3777072000012,853.3791609,853.3792415600016,0.3058214000011503,853.8262737000005,853.8262737000005,m,0.9133673999967868,855.8913786000012,855.8913786000012,50,1.093,,,,,sub-055,70,110,700,bloc_loop.csv,2023-10-02_17h06.21.632,PainUncertainty,2022.2.5,144.25955178106494,
aigu,forte,stimuli/660Hz,stimuli/forte,bloc_2,prob50_50_4trials.xlsx,2,8,50,50,1,,,,,0,1,1,1,0,2,2,3,,,,,,,,3.2,855.8913786000012,859.0951987000008,859.0952345600032,0.30514209999819286,859.5394112000031,859.5394112000031,m,2.145960300000297,863.8537987000018,863.8537987000018,39,2.09,,,,,sub-055,70,110,700,bloc_loop.csv,2023-10-02_17h06.21.632,PainUncertainty,2022.2.5,144.25955178106494,
grave,moderee,stimuli/330Hz,stimuli/moderee,bloc_2,prob50_50_4trials.xlsx,2,8,50,50,1,,,,,0,1,1,1,0,3,3,0,,,,,,,,4.7,863.8537987000018,868.5549121000004,868.5550601600022,0.30470700000296347,868.9988714000028,868.9988714000028,n,0.7397110999991128,872.2790778000017,872.2790778000017,5,2.462,,,,,sub-055,70,110,700,bloc_loop.csv,2023-10-02_17h06.21.632,PainUncertainty,2022.2.5,144.25955178106494,
grave,forte,stimuli/330Hz,stimuli/forte,bloc_2,prob50_50_4trials.xlsx,2,8,50,50,1,,,,,0,1,1,1,1,0,4,1,,,,,,,,4.4,872.2790778000017,876.6807526000011,876.6808505600035,0.3047318999997515,877.1247511000001,877.1247511000001,m,0.8618502999997872,879.9205397000005,879.9205397000005,52,1.857,,,,,sub-055,70,110,700,bloc_loop.csv,2023-10-02_17h06.21.632,PainUncertainty,2022.2.5,144.25955178106494,
aigu,moderee,stimuli/660Hz,stimuli/moderee,bloc_2,prob50_50_4trials.xlsx,2,8,50,50,1,,,,,0,1,1,1,1,1,5,2,,,,,,,,3.1,879.9205397000005,883.0216500000024,883.0217277600001,0.3047474999984843,883.4658239000019,883.4658239000019,n,0.6142575000012584,887.4340536000018,887.4340536000018,4,3.274,,,,,sub-055,70,110,700,bloc_loop.csv,2023-10-02_17h06.21.632,PainUncertainty,2022.2.5,144.25955178106494,
aigu,forte,stimuli/660Hz,stimuli/forte,bloc_2,prob50_50_4trials.xlsx,2,8,50,50,1,,,,,0,1,1,1,1,2,6,3,,,,,,,,4.3,887.4340536000018,891.7316692000022,891.733289960002,0.3030894999974407,892.1753653000014,892.1753653000014,m,0.6920686000012211,893.9717055000001,893.9717055000001,51,1.024,,,,,sub-055,70,110,700,bloc_loop.csv,2023-10-02_17h06.21.632,PainUncertainty,2022.2.5,144.25955178106494,
grave,moderee,stimuli/330Hz,stimuli/moderee,bloc_2,prob50_50_4trials.xlsx,2,8,50,50,1,,,,,0,1,1,1,1,3,7,0,,,,,,,,5,893.9717055000001,898.9750505000011,898.9750336600024,0.3056896999987657,899.4236660000024,899.4236660000024,n,0.5816909999994095,904.4373231999998,904.4373231999998,4,2.398,,,,,sub-055,70,110,700,bloc_loop.csv,2023-10-02_17h06.21.632,PainUncertainty,2022.2.5,144.25955178106494,
,,,,bloc_2,prob50_50_4trials.xlsx,2,8,50,50,1,,,,,0,1,1,1,,,,,0,0,0,0,,,,,,,,,,,,,,,,,,,904.4373231999998,1128.3565616000014,sub-055,70,110,700,bloc_loop.csv,2023-10-02_17h06.21.632,PainUncertainty,2022.2.5,144.25955178106494,
aigu,forte,stimuli/660Hz,stimuli/forte,bloc_3,prob80hthp_12trials.xlsx,2,24,80,20,0,,,,,0,2,2,2,0,0,0,7,,,,,,,,3.8,1129.3899607000021,1133.1908697,1133.1910049600024,0.30152479999742354,1133.6358297000006,1133.6358297000006,m,2.3052728999973624,1138.1993655000006,1138.1993655000006,47,2.176,,,,,sub-055,70,110,700,bloc_loop.csv,2023-10-02_17h06.21.632,PainUncertainty,2022.2.5,144.25955178106494,
grave,moderee,stimuli/330Hz,stimuli/moderee,bloc_3,prob80hthp_12trials.xlsx,2,24,80,20,0,,,,,0,2,2,2,0,1,1,1,,,,,,,,4.8,1138.1993655000006,1143.0043983000032,1143.0043761600004,0.3057741000011447,1143.453001400001,1143.453001400001,n,0.667929200000799,1147.8702999000016,1147.8702999000016,2,3.685,,,,,sub-055,70,110,700,bloc_loop.csv,2023-10-02_17h06.21.632,PainUncertainty,2022.2.5,144.25955178106494,
grave,moderee,stimuli/330Hz,stimuli/moderee,bloc_3,prob80hthp_12trials.xlsx,2,24,80,20,0,,,,,0,2,2,2,0,2,2,2,,,,,,,,5,1147.8702999000016,1152.8736210000025,1152.873589260003,0.30499110000164364,1153.3175154000019,1153.3175154000019,n,0.6350404999975581,1156.071562600002,1156.071562600002,0,2.045,,,,,sub-055,70,110,700,bloc_loop.csv,2023-10-02_17h06.21.632,PainUncertainty,2022.2.5,144.25955178106494,
grave,forte,stimuli/330Hz,stimuli/forte,bloc_3,prob80hthp_12trials.xlsx,2,24,80,20,0,,,,,0,2,2,2,0,3,3,5,,,,,,,,4,1156.071562600002,1160.0782523000016,1160.076001160001,0.3055815000006987,1160.5230169000024,1160.5230169000024,m,0.9347897999978159,1164.7690048000004,1164.7690048000004,48,3.234,,,,,sub-055,70,110,700,bloc_loop.csv,2023-10-02_17h06.21.632,PainUncertainty,2022.2.5,144.25955178106494,
grave,moderee,stimuli/330Hz,stimuli/moderee,bloc_3,prob80hthp_12trials.xlsx,2,24,80,20,0,,,,,0,2,2,2,0,4,4,3,,,,,,,,4,1164.7690048000004,1168.7710714000023,1168.771166660002,0.300437800000509,1169.2159763000018,1169.2159763000018,n,1.5256587000003492,1171.931684700001,1171.931684700001,1,1.13,,,,,sub-055,70,110,700,bloc_loop.csv,2023-10-02_17h06.21.632,PainUncertainty,2022.2.5,144.25955178106494,
aigu,moderee,stimuli/660Hz,stimuli/moderee,bloc_3,prob80hthp_12trials.xlsx,2,24,80,20,0,,,,,0,2,2,2,0,5,5,11,,,,,,,,3,1171.931684700001,1174.9337132,1174.931899560002,0.3051660000019183,1175.3763052000031,1175.3763052000031,n,0.6515117999988433,1180.0360113000024,1180.0360113000024,2,3.926,,,,,sub-055,70,110,700,bloc_loop.csv,2023-10-02_17h06.21.632,PainUncertainty,2022.2.5,144.25955178106494,
aigu,forte,stimuli/660Hz,stimuli/forte,bloc_3,prob80hthp_12trials.xlsx,2,24,80,20,0,,,,,0,2,2,2,0,6,6,6,,,,,,,,4.2,1180.0360113000024,1184.2380794000019,1184.2381843600028,0.30499219999910565,1184.6828120999999,1184.6828120999999,m,1.5767777999972168,1188.5230892,1188.5230892,46,2.184,,,,,sub-055,70,110,700,bloc_loop.csv,2023-10-02_17h06.21.632,PainUncertainty,2022.2.5,144.25955178106494,
grave,moderee,stimuli/330Hz,stimuli/moderee,bloc_3,prob80hthp_12trials.xlsx,2,24,80,20,0,,,,,0,2,2,2,0,7,7,4,,,,,,,,3.4,1188.5230892,1191.9265768000005,1191.9267074600007,0.3050918000008096,1192.3744491000034,1192.3744491000034,n,0.5450882999975875,1197.6029426000023,1197.6029426000023,0,4.636,,,,,sub-055,70,110,700,bloc_loop.csv,2023-10-02_17h06.21.632,PainUncertainty,2022.2.5,144.25955178106494,
grave,moderee,stimuli/330Hz,stimuli/moderee,bloc_3,prob80hthp_12trials.xlsx,2,24,80,20,0,,,,,0,2,2,2,0,8,8,0,,,,,,,,5,1197.6029426000023,1202.608362400002,1202.608471860001,0.30512760000056005,1203.0525308000033,1203.0525308000033,n,0.7693696999995154,1205.2157744000033,1205.2157744000033,4,1.317,,,,,sub-055,70,110,700,bloc_loop.csv,2023-10-02_17h06.21.632,PainUncertainty,2022.2.5,144.25955178106494,
aigu,forte,stimuli/660Hz,stimuli/forte,bloc_3,prob80hthp_12trials.xlsx,2,24,80,20,0,,,,,0,2,2,2,0,9,9,9,,,,,,,,3.8,1205.2157744000033,1209.0190320000002,1209.0189546600027,0.30536519999805023,1209.467225700002,1209.467225700002,None,,1215.4770880000033,1215.4770880000033,11,3.504,,,,,sub-055,70,110,700,bloc_loop.csv,2023-10-02_17h06.21.632,PainUncertainty,2022.2.5,144.25955178106494,
aigu,forte,stimuli/660Hz,stimuli/forte,bloc_3,prob80hthp_12trials.xlsx,2,24,80,20,0,,,,,0,2,2,2,0,10,10,8,,,,,,,,5,1215.4770880000033,1220.4785692000005,1220.4786524600036,0.3050210999972478,1220.923241200002,1220.923241200002,m,1.330093599997781,1225.0050520000004,1225.0050520000004,52,2.691,,,,,sub-055,70,110,700,bloc_loop.csv,2023-10-02_17h06.21.632,PainUncertainty,2022.2.5,144.25955178106494,
aigu,forte,stimuli/660Hz,stimuli/forte,bloc_3,prob80hthp_12trials.xlsx,2,24,80,20,0,,,,,0,2,2,2,0,11,11,10,,,,,,,,3.5,1225.0050520000004,1228.5072452000022,1228.5073292600005,0.30514259999836213,1228.9518037000016,1228.9518037000016,m,0.7507972999992489,1232.2002363000029,1232.2002363000029,52,2.435,,,,,sub-055,70,110,700,bloc_loop.csv,2023-10-02_17h06.21.632,PainUncertainty,2022.2.5,144.25955178106494,
aigu,forte,stimuli/660Hz,stimuli/forte,bloc_3,prob80hthp_12trials.xlsx,2,24,80,20,0,,,,,0,2,2,2,1,0,12,8,,,,,,,,3.4,1232.2002363000029,1235.6052924000032,1235.6053596600009,0.3053412000008393,1236.0545309000008,1236.0545309000008,m,0.8080509999999776,1240.3860940000013,1240.3860940000013,52,3.455,,,,,sub-055,70,110,700,bloc_loop.csv,2023-10-02_17h06.21.632,PainUncertainty,2022.2.5,144.25955178106494,
grave,moderee,stimuli/330Hz,stimuli/moderee,bloc_3,prob80hthp_12trials.xlsx,2,24,80,20,0,,,,,0,2,2,2,1,1,13,2,,,,,,,,4.4,1240.3860940000013,1244.7894711000008,1244.7874105600035,0.3049671999979182,1245.235009400003,1245.235009400003,n,0.5602975999972841,1247.835336,1247.835336,3,1.976,,,,,sub-055,70,110,700,bloc_loop.csv,2023-10-02_17h06.21.632,PainUncertainty,2022.2.5,144.25955178106494,
grave,moderee,stimuli/330Hz,stimuli/moderee,bloc_3,prob80hthp_12trials.xlsx,2,24,80,20,0,,,,,0,2,2,2,1,2,14,0,,,,,,,,3.2,1247.835336,1251.038225100001,1251.0381374600015,0.2992558000005374,1251.4759682000004,1251.4759682000004,n,0.5225944999983767,1254.006155500003,1254.006155500003,4,1.928,,,,,sub-055,70,110,700,bloc_loop.csv,2023-10-02_17h06.21.632,PainUncertainty,2022.2.5,144.25955178106494,
grave,forte,stimuli/330Hz,stimuli/forte,bloc_3,prob80hthp_12trials.xlsx,2,24,80,20,0,,,,,0,2,2,2,1,3,15,5,,,,,,,,3.9,1254.006155500003,1257.9066195000014,1257.9065629600022,0.3051540999986173,1258.3566978000017,1258.3566978000017,n,0.9598527999987709,1261.7256271000006,1261.7256271000006,19,2.359,,,,,sub-055,70,110,700,bloc_loop.csv,2023-10-02_17h06.21.632,PainUncertainty,2022.2.5,144.25955178106494,
aigu,forte,stimuli/660Hz,stimuli/forte,bloc_3,prob80hthp_12trials.xlsx,2,24,80,20,0,,,,,0,2,2,2,1,4,16,6,,,,,,,,4.4,1261.7256271000006,1266.130071200001,1266.1301913600014,0.29921359999934793,1266.5707962000015,1266.5707962000015,m,0.7896567999996478,1269.4470176000032,1269.4470176000032,41,2.032,,,,,sub-055,70,110,700,bloc_loop.csv,2023-10-02_17h06.21.632,PainUncertainty,2022.2.5,144.25955178106494,
aigu,forte,stimuli/660Hz,stimuli/forte,bloc_3,prob80hthp_12trials.xlsx,2,24,80,20,0,,,,,0,2,2,2,1,5,17,10,,,,,,,,4.9,1269.4470176000032,1274.346026000003,1274.3460797600032,0.3053031000017654,1274.7902810000014,1274.7902810000014,n,1.0582991000010225,1276.8181755000005,1276.8181755000005,10,0.893,,,,,sub-055,70,110,700,bloc_loop.csv,2023-10-02_17h06.21.632,PainUncertainty,2022.2.5,144.25955178106494,
grave,moderee,stimuli/330Hz,stimuli/moderee,bloc_3,prob80hthp_12trials.xlsx,2,24,80,20,0,,,,,0,2,2,2,1,6,18,3,,,,,,,,4.3,1276.8181755000005,1281.118617,1281.1179720600026,0.3049959999989369,1281.562002300001,1281.562002300001,n,0.5363204999994196,1283.6138247000017,1283.6138247000017,2,1.435,,,,,sub-055,70,110,700,bloc_loop.csv,2023-10-02_17h06.21.632,PainUncertainty,2022.2.5,144.25955178106494,
aigu,forte,stimuli/660Hz,stimuli/forte,bloc_3,prob80hthp_12trials.xlsx,2,24,80,20,0,,,,,0,2,2,2,1,7,19,9,,,,,,,,4.5,1283.6138247000017,1288.1188492,1288.1189371600026,0.3012455999996746,1288.5637008000012,1288.5637008000012,n,1.4544752000001608,1293.0775188000007,1293.0775188000007,16,2.983,,,,,sub-055,70,110,700,bloc_loop.csv,2023-10-02_17h06.21.632,PainUncertainty,2022.2.5,144.25955178106494,
grave,moderee,stimuli/330Hz,stimuli/moderee,bloc_3,prob80hthp_12trials.xlsx,2,24,80,20,0,,,,,0,2,2,2,1,8,20,4,,,,,,,,4.8,1293.0775188000007,1297.876956400003,1297.87687546,0.30475920000026235,1298.320870200001,1298.320870200001,n,0.5877801999995427,1305.2735547000011,1305.2735547000011,2,6.303,,,,,sub-055,70,110,700,bloc_loop.csv,2023-10-02_17h06.21.632,PainUncertainty,2022.2.5,144.25955178106494,
aigu,moderee,stimuli/660Hz,stimuli/moderee,bloc_3,prob80hthp_12trials.xlsx,2,24,80,20,0,,,,,0,2,2,2,1,9,21,11,,,,,,,,4,1305.2735547000011,1309.2737314000005,1309.273835460002,0.30499170000257436,1309.7184813000022,1309.7184813000022,n,0.9200581999975839,1313.4740514000005,1313.4740514000005,20,2.782,,,,,sub-055,70,110,700,bloc_loop.csv,2023-10-02_17h06.21.632,PainUncertainty,2022.2.5,144.25955178106494,
grave,moderee,stimuli/330Hz,stimuli/moderee,bloc_3,prob80hthp_12trials.xlsx,2,24,80,20,0,,,,,0,2,2,2,1,10,22,1,,,,,,,,4.8,1313.4740514000005,1318.2751166000016,1318.2751532600028,0.3048247000006086,1318.7189988000027,1318.7189988000027,n,0.5191814999998314,1321.677370100002,1321.677370100002,1,2.365,,,,,sub-055,70,110,700,bloc_loop.csv,2023-10-02_17h06.21.632,PainUncertainty,2022.2.5,144.25955178106494,
aigu,forte,stimuli/660Hz,stimuli/forte,bloc_3,prob80hthp_12trials.xlsx,2,24,80,20,0,,,,,0,2,2,2,1,11,23,7,,,,,,,,4.2,1321.677370100002,1325.8799672000023,1325.8800092600009,0.3048190000008617,1326.3244552000033,1326.3244552000033,m,1.393429499996273,1329.6231159000017,1329.6231159000017,24,1.823,,,,,sub-055,70,110,700,bloc_loop.csv,2023-10-02_17h06.21.632,PainUncertainty,2022.2.5,144.25955178106494,
grave,moderee,stimuli/330Hz,stimuli/moderee,bloc_4,prob50_50_4trials.xlsx,2,8,50,50,1,,,,,0,3,3,3,0,0,0,0,,,,,,,,3.4,1329.6231159000017,1333.0266518000026,1333.0267278600018,0.3050717000005534,1333.4710978000003,1333.4710978000003,n,0.5553705999991507,1339.0546377000028,1339.0546377000028,2,4.964,,,,,sub-055,70,110,700,bloc_loop.csv,2023-10-02_17h06.21.632,PainUncertainty,2022.2.5,144.25955178106494,
aigu,forte,stimuli/660Hz,stimuli/forte,bloc_4,prob50_50_4trials.xlsx,2,8,50,50,1,,,,,0,3,3,3,0,1,1,3,,,,,,,,3,1339.0546377000028,1342.057333300003,1342.056116160003,0.3049453999992693,1342.504047100003,1342.504047100003,n,1.8409870999967097,1345.1467362000003,1345.1467362000003,20,0.718,,,,,sub-055,70,110,700,bloc_loop.csv,2023-10-02_17h06.21.632,PainUncertainty,2022.2.5,144.25955178106494,
aigu,moderee,stimuli/660Hz,stimuli/moderee,bloc_4,prob50_50_4trials.xlsx,2,8,50,50,1,,,,,0,3,3,3,0,2,2,2,,,,,,,,3.2,1345.1467362000003,1348.3480094000006,1348.3480372600002,0.3049490000012156,1348.792306000003,1348.792306000003,n,0.6303643999999622,1353.4895001000004,1353.4895001000004,1,3.998,,,,,sub-055,70,110,700,bloc_loop.csv,2023-10-02_17h06.21.632,PainUncertainty,2022.2.5,144.25955178106494,
grave,forte,stimuli/330Hz,stimuli/forte,bloc_4,prob50_50_4trials.xlsx,2,8,50,50,1,,,,,0,3,3,3,0,3,3,1,,,,,,,,4.2,1353.4895001000004,1357.6892520000001,1357.6893021600022,0.3049785000002885,1358.1334609000005,1358.1334609000005,n,2.160210599999118,1363.752106400003,1363.752106400003,7,3.407,,,,,sub-055,70,110,700,bloc_loop.csv,2023-10-02_17h06.21.632,PainUncertainty,2022.2.5,144.25955178106494,
grave,forte,stimuli/330Hz,stimuli/forte,bloc_4,prob50_50_4trials.xlsx,2,8,50,50,1,,,,,0,3,3,3,1,0,4,1,,,,,,,,3.4,1363.752106400003,1367.1557704000006,1367.1558009600026,0.30494159999943804,1367.604967500003,1367.604967500003,m,2.2743443999970623,1372.1949018000014,1372.1949018000014,31,2.231,,,,,sub-055,70,110,700,bloc_loop.csv,2023-10-02_17h06.21.632,PainUncertainty,2022.2.5,144.25955178106494,
aigu,moderee,stimuli/660Hz,stimuli/moderee,bloc_4,prob50_50_4trials.xlsx,2,8,50,50,1,,,,,0,3,3,3,1,1,5,2,,,,,,,,4.2,1372.1949018000014,1376.3997294,1376.3998114600013,0.30513129999962985,1376.8439408000013,1376.8439408000013,n,1.0535096999992675,1379.0832283000018,1379.0832283000018,1,1.129,,,,,sub-055,70,110,700,bloc_loop.csv,2023-10-02_17h06.21.632,PainUncertainty,2022.2.5,144.25955178106494,
grave,moderee,stimuli/330Hz,stimuli/moderee,bloc_4,prob50_50_4trials.xlsx,2,8,50,50,1,,,,,0,3,3,3,1,2,6,0,,,,,,,,5,1379.0832283000018,1384.0881996000026,1384.088150660003,0.30527950000032433,1384.5327699000009,1384.5327699000009,None,,1391.0268761000007,1391.0268761000007,2,3.976,1387.0002736000024,1387.0002736000024,,,sub-055,70,110,700,bloc_loop.csv,2023-10-02_17h06.21.632,PainUncertainty,2022.2.5,144.25955178106494,
aigu,forte,stimuli/660Hz,stimuli/forte,bloc_4,prob50_50_4trials.xlsx,2,8,50,50,1,,,,,0,3,3,3,1,3,7,3,,,,,,,,4,1391.0268761000007,1395.026943300003,1395.0271032600008,0.30490540000027977,1395.471060900003,1395.471060900003,m,1.5556642999981705,1401.1428624,1401.1428624,27,2.088,,,,,sub-055,70,110,700,bloc_loop.csv,2023-10-02_17h06.21.632,PainUncertainty,2022.2.5,144.25955178106494,
,,,,bloc_4,prob50_50_4trials.xlsx,2,8,50,50,1,,,,,0,3,3,3,,,,,0,0,0,0,,,,,,,,,,,,,,,,,,,1401.1428624,1447.5834411000033,sub-055,70,110,700,bloc_loop.csv,2023-10-02_17h06.21.632,PainUncertainty,2022.2.5,144.25955178106494,
aigu,moderee,stimuli/660Hz,stimuli/moderee,bloc_5,prob20hthp_12trials.xlsx,2,24,20,80,0,,,,,0,4,4,4,0,0,0,6,,,,,,,,3,1448.6749599000032,1451.6796749000023,1451.6794827600002,0.30517970000073547,1452.1240187000003,1452.1240187000003,n,0.9927879999995639,1456.6031933000013,1456.6031933000013,1,3.407,,,,,sub-055,70,110,700,bloc_loop.csv,2023-10-02_17h06.21.632,PainUncertainty,2022.2.5,144.25955178106494,
grave,forte,stimuli/330Hz,stimuli/forte,bloc_5,prob20hthp_12trials.xlsx,2,24,20,80,0,,,,,0,4,4,4,0,1,1,1,,,,,,,,4.3,1456.6031933000013,1460.9032452000029,1460.905489260001,0.3028042000005371,1461.3476477000004,1461.3476477000004,m,1.7625040999955672,1465.3491869999998,1465.3491869999998,5,2.165,,,,,sub-055,70,110,700,bloc_loop.csv,2023-10-02_17h06.21.632,PainUncertainty,2022.2.5,144.25955178106494,
aigu,moderee,stimuli/660Hz,stimuli/moderee,bloc_5,prob20hthp_12trials.xlsx,2,24,20,80,0,,,,,0,4,4,4,0,2,2,9,,,,,,,,4.3,1465.3491869999998,1469.6567464,1469.6545319600023,0.3047440000009374,1470.1022114000007,1470.1022114000007,None,,1474.205088900002,1474.205088900002,4,1.594,,,,,sub-055,70,110,700,bloc_loop.csv,2023-10-02_17h06.21.632,PainUncertainty,2022.2.5,144.25955178106494,
aigu,moderee,stimuli/660Hz,stimuli/moderee,bloc_5,prob20hthp_12trials.xlsx,2,24,20,80,0,,,,,0,4,4,4,0,3,3,7,,,,,,,,4.1,1474.205088900002,1478.3077208000032,1478.3076641600032,0.30534020000050077,1478.7523645,1478.7523645,n,0.7703242999959912,1480.3440327000026,1480.3440327000026,10,0.753,,,,,sub-055,70,110,700,bloc_loop.csv,2023-10-02_17h06.21.632,PainUncertainty,2022.2.5,144.25955178106494,
grave,forte,stimuli/330Hz,stimuli/forte,bloc_5,prob20hthp_12trials.xlsx,2,24,20,80,0,,,,,0,4,4,4,0,4,4,3,,,,,,,,3.1,1480.3440327000026,1483.4473641000004,1483.447426760003,0.3049155000007886,1483.8987152000009,1483.8987152000009,None,,1487.569072000002,1487.569072000002,24,1.166,,,,,sub-055,70,110,700,bloc_loop.csv,2023-10-02_17h06.21.632,PainUncertainty,2022.2.5,144.25955178106494,
grave,forte,stimuli/330Hz,stimuli/forte,bloc_5,prob20hthp_12trials.xlsx,2,24,20,80,0,,,,,0,4,4,4,0,5,5,0,,,,,,,,4.7,1487.569072000002,1492.2751199000013,1492.2747594600019,0.30526479999753064,1492.723805200003,1492.723805200003,m,0.9736254000017652,1496.2190263000011,1496.2190263000011,30,2.442,,,,,sub-055,70,110,700,bloc_loop.csv,2023-10-02_17h06.21.632,PainUncertainty,2022.2.5,144.25955178106494,
aigu,moderee,stimuli/660Hz,stimuli/moderee,bloc_5,prob20hthp_12trials.xlsx,2,24,20,80,0,,,,,0,4,4,4,0,6,6,8,,,,,,,,3.9,1496.2190263000011,1500.1227497,1500.1227679600029,0.3050539999967441,1500.5708320000012,1500.5708320000012,n,0.6469278999975359,1504.1784948000022,1504.1784948000022,2,2.9,,,,,sub-055,70,110,700,bloc_loop.csv,2023-10-02_17h06.21.632,PainUncertainty,2022.2.5,144.25955178106494,
aigu,moderee,stimuli/660Hz,stimuli/moderee,bloc_5,prob20hthp_12trials.xlsx,2,24,20,80,0,,,,,0,4,4,4,0,7,7,10,,,,,,,,4.4,1504.1784948000022,1508.5821485000015,1508.5820669600012,0.305265099999815,1509.0263508000025,1509.0263508000025,n,0.5587085000006482,1512.9251962000017,1512.9251962000017,2,3.268,,,,,sub-055,70,110,700,bloc_loop.csv,2023-10-02_17h06.21.632,PainUncertainty,2022.2.5,144.25955178106494,
grave,forte,stimuli/330Hz,stimuli/forte,bloc_5,prob20hthp_12trials.xlsx,2,24,20,80,0,,,,,0,4,4,4,0,8,8,2,,,,,,,,4.7,1512.9251962000017,1517.6248212000028,1517.6247735600023,0.3051545000016631,1518.0691576000027,1518.0691576000027,n,1.6095787999984168,1521.0443541000022,1521.0443541000022,20,1.311,,,,,sub-055,70,110,700,bloc_loop.csv,2023-10-02_17h06.21.632,PainUncertainty,2022.2.5,144.25955178106494,
aigu,forte,stimuli/660Hz,stimuli/forte,bloc_5,prob20hthp_12trials.xlsx,2,24,20,80,0,,,,,0,4,4,4,0,9,9,11,,,,,,,,3.4,1521.0443541000022,1524.4451015000013,1524.445242260002,0.30484789999900386,1524.8892194,1524.8892194,m,0.6587222999987716,1526.5285656000015,1526.5285656000015,40,0.919,,,,,sub-055,70,110,700,bloc_loop.csv,2023-10-02_17h06.21.632,PainUncertainty,2022.2.5,144.25955178106494,
grave,forte,stimuli/330Hz,stimuli/forte,bloc_5,prob20hthp_12trials.xlsx,2,24,20,80,0,,,,,0,4,4,4,0,10,10,4,,,,,,,,4.7,1526.5285656000015,1531.230831300003,1531.2309747600025,0.3048717999990913,1531.6747757000012,1531.6747757000012,n,0.9485912999989523,1534.6182326000016,1534.6182326000016,26,1.92,,,,,sub-055,70,110,700,bloc_loop.csv,2023-10-02_17h06.21.632,PainUncertainty,2022.2.5,144.25955178106494,
grave,moderee,stimuli/330Hz,stimuli/moderee,bloc_5,prob20hthp_12trials.xlsx,2,24,20,80,0,,,,,0,4,4,4,0,11,11,5,,,,,,,,5,1534.6182326000016,1539.6205229000007,1539.6206973600033,0.30150480000156676,1540.0654391000025,1540.0654391000025,n,0.5873962999976357,1543.6352005000008,1543.6352005000008,5,2.918,,,,,sub-055,70,110,700,bloc_loop.csv,2023-10-02_17h06.21.632,PainUncertainty,2022.2.5,144.25955178106494,
aigu,moderee,stimuli/660Hz,stimuli/moderee,bloc_5,prob20hthp_12trials.xlsx,2,24,20,80,0,,,,,0,4,4,4,1,0,12,8,,,,,,,,5,1543.6352005000008,1548.635417100002,1548.6354234600017,0.3052351999976963,1549.0797669000021,1549.0797669000021,n,0.6356491999977152,1552.9076322,1552.9076322,2,3.128,,,,,sub-055,70,110,700,bloc_loop.csv,2023-10-02_17h06.21.632,PainUncertainty,2022.2.5,144.25955178106494,
aigu,moderee,stimuli/660Hz,stimuli/moderee,bloc_5,prob20hthp_12trials.xlsx,2,24,20,80,0,,,,,0,4,4,4,1,1,13,10,,,,,,,,3.2,1552.9076322,1556.1086579000003,1556.108679960003,0.3049315000025672,1556.5565356000006,1556.5565356000006,n,0.6224956000005477,1558.389770200003,1558.389770200003,1,1.142,,,,,sub-055,70,110,700,bloc_loop.csv,2023-10-02_17h06.21.632,PainUncertainty,2022.2.5,144.25955178106494,
aigu,moderee,stimuli/660Hz,stimuli/moderee,bloc_5,prob20hthp_12trials.xlsx,2,24,20,80,0,,,,,0,4,4,4,1,2,14,7,,,,,,,,4.2,1558.389770200003,1562.5953440000012,1562.595521560002,0.3050803000005544,1563.0396519000024,1563.0396519000024,n,0.7028575000003912,1570.3799658000025,1570.3799658000025,1,6.573,,,,,sub-055,70,110,700,bloc_loop.csv,2023-10-02_17h06.21.632,PainUncertainty,2022.2.5,144.25955178106494,
grave,moderee,stimuli/330Hz,stimuli/moderee,bloc_5,prob20hthp_12trials.xlsx,2,24,20,80,0,,,,,0,4,4,4,1,3,15,5,,,,,,,,3.6,1570.3799658000025,1573.985686400003,1573.985621360001,0.3051491000005626,1574.429858200001,1574.429858200001,n,1.3468833999977505,1577.9589715000002,1577.9589715000002,1,2.101,,,,,sub-055,70,110,700,bloc_loop.csv,2023-10-02_17h06.21.632,PainUncertainty,2022.2.5,144.25955178106494,
grave,forte,stimuli/330Hz,stimuli/forte,bloc_5,prob20hthp_12trials.xlsx,2,24,20,80,0,,,,,0,4,4,4,1,4,16,4,,,,,,,,3.3,1577.9589715000002,1581.264729300001,1581.2660778600016,0.29957050000302843,1581.708721400002,1581.708721400002,m,0.7335176999986288,1584.3694415999998,1584.3694415999998,44,1.844,,,,,sub-055,70,110,700,bloc_loop.csv,2023-10-02_17h06.21.632,PainUncertainty,2022.2.5,144.25955178106494,
aigu,moderee,stimuli/660Hz,stimuli/moderee,bloc_5,prob20hthp_12trials.xlsx,2,24,20,80,0,,,,,0,4,4,4,1,5,17,9,,,,,,,,4.1,1584.3694415999998,1588.4735341000014,1588.4736126600014,0.3049425999997766,1588.917783300003,1588.917783300003,n,0.6148137999989558,1593.0818309000024,1593.0818309000024,1,3.47,,,,,sub-055,70,110,700,bloc_loop.csv,2023-10-02_17h06.21.632,PainUncertainty,2022.2.5,144.25955178106494,
grave,forte,stimuli/330Hz,stimuli/forte,bloc_5,prob20hthp_12trials.xlsx,2,24,20,80,0,,,,,0,4,4,4,1,6,18,0,,,,,,,,4,1593.0818309000024,1597.0855655000014,1597.085594460002,0.3054639000001771,1597.5328560000016,1597.5328560000016,n,0.7608896999990975,1601.0421302000032,1601.0421302000032,13,2.685,,,,,sub-055,70,110,700,bloc_loop.csv,2023-10-02_17h06.21.632,PainUncertainty,2022.2.5,144.25955178106494,
aigu,moderee,stimuli/660Hz,stimuli/moderee,bloc_5,prob20hthp_12trials.xlsx,2,24,20,80,0,,,,,0,4,4,4,1,7,19,6,,,,,,,,4.9,1601.0421302000032,1605.9412603000019,1605.9412303600016,0.3047215000005963,1606.3851618000008,1606.3851618000008,n,0.6647542999962752,1611.8015208000033,1611.8015208000033,3,4.677,,,,,sub-055,70,110,700,bloc_loop.csv,2023-10-02_17h06.21.632,PainUncertainty,2022.2.5,144.25955178106494,
aigu,forte,stimuli/660Hz,stimuli/forte,bloc_5,prob20hthp_12trials.xlsx,2,24,20,80,0,,,,,0,4,4,4,1,8,20,11,,,,,,,,3.1,1611.8015208000033,1614.9071454000004,1614.9071337600012,0.30532180000227527,1615.3518930999999,1615.3518930999999,n,1.031322699996963,1617.6837471,1617.6837471,14,1.239,,,,,sub-055,70,110,700,bloc_loop.csv,2023-10-02_17h06.21.632,PainUncertainty,2022.2.5,144.25955178106494,
grave,forte,stimuli/330Hz,stimuli/forte,bloc_5,prob20hthp_12trials.xlsx,2,24,20,80,0,,,,,0,4,4,4,1,9,21,2,,,,,,,,4.3,1617.6837471,1621.9844033000008,1621.984471160003,0.3050727000008919,1622.4287459000006,1622.4287459000006,m,0.6808455999998841,1624.3500011000033,1624.3500011000033,60,1.184,,,,,sub-055,70,110,700,bloc_loop.csv,2023-10-02_17h06.21.632,PainUncertainty,2022.2.5,144.25955178106494,
grave,forte,stimuli/330Hz,stimuli/forte,bloc_5,prob20hthp_12trials.xlsx,2,24,20,80,0,,,,,0,4,4,4,1,10,22,1,,,,,,,,3.6,1624.3500011000033,1627.9504551000027,1627.9504386600033,0.30511419999675127,1628.3947601,1628.3947601,n,1.1311709999972663,1631.3536153000023,1631.3536153000023,44,1.774,,,,,sub-055,70,110,700,bloc_loop.csv,2023-10-02_17h06.21.632,PainUncertainty,2022.2.5,144.25955178106494,
grave,forte,stimuli/330Hz,stimuli/forte,bloc_5,prob20hthp_12trials.xlsx,2,24,20,80,0,,,,,0,4,4,4,1,11,23,3,,,,,,,,4.9,1631.3536153000023,1636.256892700003,1636.2570773600032,0.304794600000605,1636.7011747000033,1636.7011747000033,n,1.7379416000003403,1639.8426129,1639.8426129,31,1.323,,,,,sub-055,70,110,700,bloc_loop.csv,2023-10-02_17h06.21.632,PainUncertainty,2022.2.5,144.25955178106494,
aigu,moderee,stimuli/660Hz,stimuli/moderee,bloc_6,prob50_50_4trials.xlsx,2,8,50,50,0,,,,,0,5,5,5,0,0,0,2,,,,,,,,3.9,1639.8426129,1643.7438794000009,1643.7440018600005,0.3048844000004465,1644.188172000002,1644.188172000002,m,1.8054258999982267,1648.953410000002,1648.953410000002,18,2.906,,,,,sub-055,70,110,700,bloc_loop.csv,2023-10-02_17h06.21.632,PainUncertainty,2022.2.5,144.25955178106494,
grave,moderee,stimuli/330Hz,stimuli/moderee,bloc_6,prob50_50_4trials.xlsx,2,8,50,50,0,,,,,0,5,5,5,0,1,1,0,,,,,,,,3.8,1648.953410000002,1652.7591143999998,1652.7595755600028,0.30484299999807263,1653.207290600003,1653.207290600003,n,1.3663668999979564,1656.8366263000025,1656.8366263000025,7,2.177,,,,,sub-055,70,110,700,bloc_loop.csv,2023-10-02_17h06.21.632,PainUncertainty,2022.2.5,144.25955178106494,
aigu,forte,stimuli/660Hz,stimuli/forte,bloc_6,prob50_50_4trials.xlsx,2,8,50,50,0,,,,,0,5,5,5,0,2,2,3,,,,,,,,4.2,1656.8366263000025,1661.0376877000017,1661.0376791600006,0.3054478999983985,1661.4822036000005,1661.4822036000005,m,1.4209547999998904,1666.4924613000003,1666.4924613000003,24,3.524,,,,,sub-055,70,110,700,bloc_loop.csv,2023-10-02_17h06.21.632,PainUncertainty,2022.2.5,144.25955178106494,
grave,forte,stimuli/330Hz,stimuli/forte,bloc_6,prob50_50_4trials.xlsx,2,8,50,50,0,,,,,0,5,5,5,0,3,3,1,,,,,,,,5,1666.4924613000003,1671.4976363000023,1671.4977308600005,0.3047922000005201,1671.942175100001,1671.942175100001,n,0.789316599999438,1674.1824629000002,1674.1824629000002,15,1.379,,,,,sub-055,70,110,700,bloc_loop.csv,2023-10-02_17h06.21.632,PainUncertainty,2022.2.5,144.25955178106494,
aigu,moderee,stimuli/660Hz,stimuli/moderee,bloc_6,prob50_50_4trials.xlsx,2,8,50,50,0,,,,,0,5,5,5,1,0,4,2,,,,,,,,4.6,1674.1824629000002,1678.7828382000007,1678.7828763600023,0.30514490000132355,1679.2276968000006,1679.2276968000006,n,1.0476165000000037,1684.364351100001,1684.364351100001,1,4.038,,,,,sub-055,70,110,700,bloc_loop.csv,2023-10-02_17h06.21.632,PainUncertainty,2022.2.5,144.25955178106494,
grave,moderee,stimuli/330Hz,stimuli/moderee,bloc_6,prob50_50_4trials.xlsx,2,8,50,50,0,,,,,0,5,5,5,1,1,5,0,,,,,,,,4.6,1684.364351100001,1688.9646022000015,1688.9645626600009,0.30549369999789633,1689.4129597000028,1689.4129597000028,n,0.6198818999982905,1697.0586758999998,1697.0586758999998,2,6.95,,,,,sub-055,70,110,700,bloc_loop.csv,2023-10-02_17h06.21.632,PainUncertainty,2022.2.5,144.25955178106494,
grave,forte,stimuli/330Hz,stimuli/forte,bloc_6,prob50_50_4trials.xlsx,2,8,50,50,0,,,,,0,5,5,5,1,2,6,1,,,,,,,,3.3,1697.0586758999998,1700.3618249000028,1700.3618443600003,0.3048417999998492,1700.806427200001,1700.806427200001,m,1.60716969999703,1703.6930512,1703.6930512,33,1.226,,,,,sub-055,70,110,700,bloc_loop.csv,2023-10-02_17h06.21.632,PainUncertainty,2022.2.5,144.25955178106494,
aigu,forte,stimuli/660Hz,stimuli/forte,bloc_6,prob50_50_4trials.xlsx,2,8,50,50,0,,,,,0,5,5,5,1,3,7,3,,,,,,,,4,1703.6930512,1707.6959971000033,1707.6960610600013,0.3050100000000384,1708.1402536000023,1708.1402536000023,n,0.9853283999982523,1711.988384100001,1711.988384100001,52,2.809,,,,,sub-055,70,110,700,bloc_loop.csv,2023-10-02_17h06.21.632,PainUncertainty,2022.2.5,144.25955178106494,
aigu,forte,stimuli/660Hz,stimuli/forte,bloc_7,prob80hthp_12trials.xlsx,2,24,80,20,1,,,,,0,6,6,6,0,0,0,9,,,,,,,,4.2,1711.988384100001,1716.1907495000014,1716.1908475600007,0.3023103000014089,1716.6367059000004,1716.6367059000004,n,0.8575323999975808,1718.9603341000002,1718.9603341000002,48,1.383,,,,,sub-055,70,110,700,bloc_loop.csv,2023-10-02_17h06.21.632,PainUncertainty,2022.2.5,144.25955178106494,
grave,moderee,stimuli/330Hz,stimuli/moderee,bloc_7,prob80hthp_12trials.xlsx,2,24,80,20,1,,,,,0,6,6,6,0,1,1,1,,,,,,,,4.6,1718.9603341000002,1723.5659186000012,1723.5660361600035,0.30484299999807263,1724.0173847000005,1724.0173847000005,n,0.689743399998406,1726.983971900001,1726.983971900001,10,2.218,,,,,sub-055,70,110,700,bloc_loop.csv,2023-10-02_17h06.21.632,PainUncertainty,2022.2.5,144.25955178106494,
grave,moderee,stimuli/330Hz,stimuli/moderee,bloc_7,prob80hthp_12trials.xlsx,2,24,80,20,1,,,,,0,6,6,6,0,2,2,0,,,,,,,,4.8,1726.983971900001,1731.7891874000015,1731.7891515600036,0.3049728000005416,1732.2333744000025,1732.2333744000025,n,0.5928937999997288,1736.0666465000031,1736.0666465000031,2,3.163,,,,,sub-055,70,110,700,bloc_loop.csv,2023-10-02_17h06.21.632,PainUncertainty,2022.2.5,144.25955178106494,
grave,forte,stimuli/330Hz,stimuli/forte,bloc_7,prob80hthp_12trials.xlsx,2,24,80,20,1,,,,,0,6,6,6,0,3,3,5,,,,,,,,4.3,1736.0666465000031,1740.366772700003,1740.3668074600005,0.30487130000256,1740.8105552000015,1740.8105552000015,m,0.6989250000005995,1743.7710830000033,1743.7710830000033,43,2.192,,,,,sub-055,70,110,700,bloc_loop.csv,2023-10-02_17h06.21.632,PainUncertainty,2022.2.5,144.25955178106494,
grave,moderee,stimuli/330Hz,stimuli/moderee,bloc_7,prob80hthp_12trials.xlsx,2,24,80,20,1,,,,,0,6,6,6,0,4,4,2,,,,,,,,4.2,1743.7710830000033,1747.9715389000012,1747.9714963600031,0.3053397000003315,1748.4157785000025,1748.4157785000025,n,0.7607861999968009,1752.3399771000004,1752.3399771000004,1,3.085,,,,,sub-055,70,110,700,bloc_loop.csv,2023-10-02_17h06.21.632,PainUncertainty,2022.2.5,144.25955178106494,
aigu,forte,stimuli/660Hz,stimuli/forte,bloc_7,prob80hthp_12trials.xlsx,2,24,80,20,1,,,,,0,6,6,6,0,5,5,8,,,,,,,,4.4,1752.3399771000004,1756.7438733000017,1756.7439483600006,0.30487449999782257,1757.1881343000023,1757.1881343000023,n,0.9269348999987415,1759.5651507000002,1759.5651507000002,26,1.384,,,,,sub-055,70,110,700,bloc_loop.csv,2023-10-02_17h06.21.632,PainUncertainty,2022.2.5,144.25955178106494,
aigu,forte,stimuli/660Hz,stimuli/forte,bloc_7,prob80hthp_12trials.xlsx,2,24,80,20,1,,,,,0,6,6,6,0,6,6,7,,,,,,,,3.4,1759.5651507000002,1762.9663168000006,1762.96647746,0.3047694999986561,1763.4128574000024,1763.4128574000024,m,0.6165608999981487,1765.8153751000027,1765.8153751000027,29,1.733,,,,,sub-055,70,110,700,bloc_loop.csv,2023-10-02_17h06.21.632,PainUncertainty,2022.2.5,144.25955178106494,
aigu,forte,stimuli/660Hz,stimuli/forte,bloc_7,prob80hthp_12trials.xlsx,2,24,80,20,1,,,,,0,6,6,6,0,7,7,6,,,,,,,,3.6,1765.8153751000027,1769.4184851000027,1769.418517560001,0.3048946999988402,1769.8628580000004,1769.8628580000004,m,0.6468383999963407,1772.083102800003,1772.083102800003,35,1.498,,,,,sub-055,70,110,700,bloc_loop.csv,2023-10-02_17h06.21.632,PainUncertainty,2022.2.5,144.25955178106494,
aigu,moderee,stimuli/660Hz,stimuli/moderee,bloc_7,prob80hthp_12trials.xlsx,2,24,80,20,1,,,,,0,6,6,6,0,8,8,11,,,,,,,,3.1,1772.083102800003,1775.1833855000004,1775.183439060003,0.30072609999842825,1775.627455400001,1775.627455400001,n,0.9143852999986848,1778.2384100000017,1778.2384100000017,5,1.631,,,,,sub-055,70,110,700,bloc_loop.csv,2023-10-02_17h06.21.632,PainUncertainty,2022.2.5,144.25955178106494,
grave,moderee,stimuli/330Hz,stimuli/moderee,bloc_7,prob80hthp_12trials.xlsx,2,24,80,20,1,,,,,0,6,6,6,0,9,9,3,,,,,,,,4.9,1778.2384100000017,1783.142408900003,1783.1425203600024,0.3048012999970524,1783.5865060000033,1783.5865060000033,n,0.9082698999991408,1785.7516325000033,1785.7516325000033,2,1.173,,,,,sub-055,70,110,700,bloc_loop.csv,2023-10-02_17h06.21.632,PainUncertainty,2022.2.5,144.25955178106494,
aigu,forte,stimuli/660Hz,stimuli/forte,bloc_7,prob80hthp_12trials.xlsx,2,24,80,20,1,,,,,0,6,6,6,0,10,10,10,,,,,,,,4.8,1785.7516325000033,1790.553253500002,1790.5532524600035,0.3048797999981616,1790.9970640000029,1790.9970640000029,m,1.4648397999990266,1793.6970428000022,1793.6970428000022,46,1.166,,,,,sub-055,70,110,700,bloc_loop.csv,2023-10-02_17h06.21.632,PainUncertainty,2022.2.5,144.25955178106494,
grave,moderee,stimuli/330Hz,stimuli/moderee,bloc_7,prob80hthp_12trials.xlsx,2,24,80,20,1,,,,,0,6,6,6,0,11,11,4,,,,,,,,3,1793.6970428000022,1796.6995466000008,1796.6995505600003,0.30518540000048233,1797.1482116000006,1797.1482116000006,n,0.5540681999991648,1798.4938125000008,1798.4938125000008,5,0.712,,,,,sub-055,70,110,700,bloc_loop.csv,2023-10-02_17h06.21.632,PainUncertainty,2022.2.5,144.25955178106494,
aigu,forte,stimuli/660Hz,stimuli/forte,bloc_7,prob80hthp_12trials.xlsx,2,24,80,20,1,,,,,0,6,6,6,1,0,12,9,,,,,,,,3.3,1798.4938125000008,1801.7973334000017,1801.79730186,0.305109299999458,1802.2415148,1802.2415148,m,0.6409511999991082,1804.6312475000013,1804.6312475000013,39,1.662,,,,,sub-055,70,110,700,bloc_loop.csv,2023-10-02_17h06.21.632,PainUncertainty,2022.2.5,144.25955178106494,
grave,moderee,stimuli/330Hz,stimuli/moderee,bloc_7,prob80hthp_12trials.xlsx,2,24,80,20,1,,,,,0,6,6,6,1,1,13,2,,,,,,,,5,1804.6312475000013,1809.6315130000003,1809.6316501600027,0.30491500000061933,1810.0757916000002,1810.0757916000002,n,0.5502547999967646,1811.9203351000033,1811.9203351000033,2,1.233,,,,,sub-055,70,110,700,bloc_loop.csv,2023-10-02_17h06.21.632,PainUncertainty,2022.2.5,144.25955178106494,
grave,moderee,stimuli/330Hz,stimuli/moderee,bloc_7,prob80hthp_12trials.xlsx,2,24,80,20,1,,,,,0,6,6,6,1,2,14,4,,,,,,,,3.4,1811.9203351000033,1815.3198669000012,1815.3198299600022,0.30545010000059847,1815.768096300002,1815.768096300002,n,0.8035396999985096,1819.2755797000027,1819.2755797000027,1,2.629,,,,,sub-055,70,110,700,bloc_loop.csv,2023-10-02_17h06.21.632,PainUncertainty,2022.2.5,144.25955178106494,
aigu,forte,stimuli/660Hz,stimuli/forte,bloc_7,prob80hthp_12trials.xlsx,2,24,80,20,1,,,,,0,6,6,6,1,3,15,6,,,,,,,,4.4,1819.2755797000027,1823.675513000002,1823.6754382600025,0.30499910000071395,1824.1219151000005,1824.1219151000005,m,1.1029420999984723,1826.9640941000034,1826.9640941000034,39,1.67,,,,,sub-055,70,110,700,bloc_loop.csv,2023-10-02_17h06.21.632,PainUncertainty,2022.2.5,144.25955178106494,
aigu,forte,stimuli/660Hz,stimuli/forte,bloc_7,prob80hthp_12trials.xlsx,2,24,80,20,1,,,,,0,6,6,6,1,4,16,10,,,,,,,,3.4,1826.9640941000034,1830.3636993,1830.3641399600033,0.3044012999998813,1830.8077015000017,1830.8077015000017,n,1.2673571999985143,1833.534102900001,1833.534102900001,41,1.392,,,,,sub-055,70,110,700,bloc_loop.csv,2023-10-02_17h06.21.632,PainUncertainty,2022.2.5,144.25955178106494,
aigu,forte,stimuli/660Hz,stimuli/forte,bloc_7,prob80hthp_12trials.xlsx,2,24,80,20,1,,,,,0,6,6,6,1,5,17,7,,,,,,,,3.5,1833.534102900001,1837.0386885000007,1837.038409860002,0.3048912000012933,1837.4868843000004,1837.4868843000004,m,0.5055066999993869,1840.2479762000003,1840.2479762000003,41,2.199,,,,,sub-055,70,110,700,bloc_loop.csv,2023-10-02_17h06.21.632,PainUncertainty,2022.2.5,144.25955178106494,
grave,forte,stimuli/330Hz,stimuli/forte,bloc_7,prob80hthp_12trials.xlsx,2,24,80,20,1,,,,,0,6,6,6,1,6,18,5,,,,,,,,3.7,1840.2479762000003,1843.948343400003,1843.9483436600035,0.30502010000054725,1844.396145900002,1844.396145900002,n,0.6537135999969905,1846.9000781000032,1846.9000781000032,16,1.768,,,,,sub-055,70,110,700,bloc_loop.csv,2023-10-02_17h06.21.632,PainUncertainty,2022.2.5,144.25955178106494,
grave,moderee,stimuli/330Hz,stimuli/moderee,bloc_7,prob80hthp_12trials.xlsx,2,24,80,20,1,,,,,0,6,6,6,1,7,19,0,,,,,,,,4.9,1846.9000781000032,1851.8038234000014,1851.8037267600025,0.3050838000017393,1852.2518391000012,1852.2518391000012,n,0.5959136999990733,1855.5328926000002,1855.5328926000002,3,2.608,,,,,sub-055,70,110,700,bloc_loop.csv,2023-10-02_17h06.21.632,PainUncertainty,2022.2.5,144.25955178106494,
aigu,forte,stimuli/660Hz,stimuli/forte,bloc_7,prob80hthp_12trials.xlsx,2,24,80,20,1,,,,,0,6,6,6,1,8,20,8,,,,,,,,3.5,1855.5328926000002,1859.0332165,1859.033579260003,0.3047140999988187,1859.477870300001,1859.477870300001,m,0.9725073999979941,1861.9912405000032,1861.9912405000032,25,1.469,,,,,sub-055,70,110,700,bloc_loop.csv,2023-10-02_17h06.21.632,PainUncertainty,2022.2.5,144.25955178106494,
grave,moderee,stimuli/330Hz,stimuli/moderee,bloc_7,prob80hthp_12trials.xlsx,2,24,80,20,1,,,,,0,6,6,6,1,9,21,3,,,,,,,,3.1,1861.9912405000032,1865.0965563999998,1865.0965751600029,0.3048957999999402,1865.540827500001,1865.540827500001,n,0.550989599996683,1868.2747014000015,1868.2747014000015,3,2.115,,,,,sub-055,70,110,700,bloc_loop.csv,2023-10-02_17h06.21.632,PainUncertainty,2022.2.5,144.25955178106494,
aigu,moderee,stimuli/660Hz,stimuli/moderee,bloc_7,prob80hthp_12trials.xlsx,2,24,80,20,1,,,,,0,6,6,6,1,10,22,11,,,,,,,,4.3,1868.2747014000015,1872.5766296000002,1872.5765456600034,0.3051875999990443,1873.0211456000034,1873.0211456000034,n,0.7319772999981069,1876.6191668000029,1876.6191668000029,1,2.802,,,,,sub-055,70,110,700,bloc_loop.csv,2023-10-02_17h06.21.632,PainUncertainty,2022.2.5,144.25955178106494,
grave,moderee,stimuli/330Hz,stimuli/moderee,bloc_7,prob80hthp_12trials.xlsx,2,24,80,20,1,,,,,0,6,6,6,1,11,23,1,,,,,,,,4.2,1876.6191668000029,1880.8205282000017,1880.8206226600028,0.30504600000131177,1881.2648291000005,1881.2648291000005,n,0.8449546999981976,1886.392666300002,1886.392666300002,1,2.253,,,,,sub-055,70,110,700,bloc_loop.csv,2023-10-02_17h06.21.632,PainUncertainty,2022.2.5,144.25955178106494,
,,,,bloc_7,prob80hthp_12trials.xlsx,2,24,80,20,1,,,,,0,6,6,6,,,,,0,0,0,0,,,,,,,,,,,,,,,,,,,1886.392666300002,1927.8122109000033,sub-055,70,110,700,bloc_loop.csv,2023-10-02_17h06.21.632,PainUncertainty,2022.2.5,144.25955178106494,
aigu,forte,stimuli/660Hz,stimuli/forte,bloc_8,prob50_50_4trials.xlsx,3,12,50,50,0,,,,,0,7,7,7,0,0,0,3,,,,,,,,3.7,1928.9762051000034,1932.6808936000016,1932.680922660003,0.30517089999921154,1933.1329135000015,1933.1329135000015,m,0.669439199999033,1935.5303695000002,1935.5303695000002,43,1.657,,,,,sub-055,70,110,700,bloc_loop.csv,2023-10-02_17h06.21.632,PainUncertainty,2022.2.5,144.25955178106494,
grave,moderee,stimuli/330Hz,stimuli/moderee,bloc_8,prob50_50_4trials.xlsx,3,12,50,50,0,,,,,0,7,7,7,0,1,1,0,,,,,,,,3,1935.5303695000002,1938.5360416000003,1938.5360829600008,0.3053003000022727,1938.9830759000033,1938.9830759000033,n,0.46928119999938644,1942.8339829000033,1942.8339829000033,1,3.33,,,,,sub-055,70,110,700,bloc_loop.csv,2023-10-02_17h06.21.632,PainUncertainty,2022.2.5,144.25955178106494,
aigu,moderee,stimuli/660Hz,stimuli/moderee,bloc_8,prob50_50_4trials.xlsx,3,12,50,50,0,,,,,0,7,7,7,0,2,2,2,,,,,,,,4.7,1942.8339829000033,1947.538606500002,1947.5371032600028,0.3072005000030913,1947.9885484000006,1947.9885484000006,n,1.364719099998183,1950.7329284000007,1950.7329284000007,2,1.308,,,,,sub-055,70,110,700,bloc_loop.csv,2023-10-02_17h06.21.632,PainUncertainty,2022.2.5,144.25955178106494,
grave,forte,stimuli/330Hz,stimuli/forte,bloc_8,prob50_50_4trials.xlsx,3,12,50,50,0,,,,,0,7,7,7,0,3,3,1,,,,,,,,3,1950.7329284000007,1953.7320698000003,1953.7320560600033,0.3050321000009717,1954.1761740000002,1954.1761740000002,n,0.7593979000012041,1957.7199035000012,1957.7199035000012,26,1.684,,,,,sub-055,70,110,700,bloc_loop.csv,2023-10-02_17h06.21.632,PainUncertainty,2022.2.5,144.25955178106494,
grave,moderee,stimuli/330Hz,stimuli/moderee,bloc_8,prob50_50_4trials.xlsx,3,12,50,50,0,,,,,0,7,7,7,1,0,4,0,,,,,,,,4.3,1957.7199035000012,1962.0180967000015,1962.0201072600007,0.30314910000015516,1962.4660810000023,1962.4660810000023,n,0.6570135000001756,1965.3428574999998,1965.3428574999998,1,2.163,,,,,sub-055,70,110,700,bloc_loop.csv,2023-10-02_17h06.21.632,PainUncertainty,2022.2.5,144.25955178106494,
aigu,moderee,stimuli/660Hz,stimuli/moderee,bloc_8,prob50_50_4trials.xlsx,3,12,50,50,0,,,,,0,7,7,7,1,1,5,2,,,,,,,,4,1965.3428574999998,1969.3449777000023,1969.3449414600013,0.3050082999980077,1969.7933561000027,1969.7933561000027,n,0.5723699000009219,1974.3451421000027,1974.3451421000027,2,3.9,,,,,sub-055,70,110,700,bloc_loop.csv,2023-10-02_17h06.21.632,PainUncertainty,2022.2.5,144.25955178106494,
aigu,forte,stimuli/660Hz,stimuli/forte,bloc_8,prob50_50_4trials.xlsx,3,12,50,50,0,,,,,0,7,7,7,1,2,6,3,,,,,,,,3.8,1974.3451421000027,1978.1445734000008,1978.1447695600014,0.30482090000077733,1978.5887871000014,1978.5887871000014,m,1.252169799998228,1981.3136693000015,1981.3136693000015,23,1.421,,,,,sub-055,70,110,700,bloc_loop.csv,2023-10-02_17h06.21.632,PainUncertainty,2022.2.5,144.25955178106494,
grave,forte,stimuli/330Hz,stimuli/forte,bloc_8,prob50_50_4trials.xlsx,3,12,50,50,0,,,,,0,7,7,7,1,3,7,1,,,,,,,,4.2,1981.3136693000015,1985.5134537000013,1985.513545860003,0.30508280000140076,1985.957651800003,1985.957651800003,n,0.7041855999996187,1989.2272819999998,1989.2272819999998,27,2.502,,,,,sub-055,70,110,700,bloc_loop.csv,2023-10-02_17h06.21.632,PainUncertainty,2022.2.5,144.25955178106494,
aigu,forte,stimuli/660Hz,stimuli/forte,bloc_8,prob50_50_4trials.xlsx,3,12,50,50,0,,,,,0,7,7,7,2,0,8,3,,,,,,,,4.6,1989.2272819999998,1993.8270045000027,1993.8269962600002,0.3053843000016059,1994.2733641000013,1994.2733641000013,n,1.254741599997942,1998.7398908000032,1998.7398908000032,14,3.135,,,,,sub-055,70,110,700,bloc_loop.csv,2023-10-02_17h06.21.632,PainUncertainty,2022.2.5,144.25955178106494,
grave,moderee,stimuli/330Hz,stimuli/moderee,bloc_8,prob50_50_4trials.xlsx,3,12,50,50,0,,,,,0,7,7,7,2,1,9,0,,,,,,,,3.7,1998.7398908000032,2002.4391589000006,2002.4391211600027,0.30510249999861117,2002.8834236000002,2002.8834236000002,n,0.756476599999587,2007.7395555000003,2007.7395555000003,0,4.037,,,,,sub-055,70,110,700,bloc_loop.csv,2023-10-02_17h06.21.632,PainUncertainty,2022.2.5,144.25955178106494,
aigu,moderee,stimuli/660Hz,stimuli/moderee,bloc_8,prob50_50_4trials.xlsx,3,12,50,50,0,,,,,0,7,7,7,2,2,10,2,,,,,,,,3.1,2007.7395555000003,2010.8429085000025,2010.8430284600013,0.3049068000000261,2011.2871051000002,2011.2871051000002,n,0.5555596000012883,2016.5320428000014,2016.5320428000014,2,4.572,,,,,sub-055,70,110,700,bloc_loop.csv,2023-10-02_17h06.21.632,PainUncertainty,2022.2.5,144.25955178106494,
grave,forte,stimuli/330Hz,stimuli/forte,bloc_8,prob50_50_4trials.xlsx,3,12,50,50,0,,,,,0,7,7,7,2,3,11,1,,,,,,,,3.2,2016.5320428000014,2019.7333973000023,2019.7332470600027,0.299899199999345,2020.177641600003,2020.177641600003,n,1.1034263999972609,2022.0628269000008,2022.0628269000008,20,0.719,,,,,sub-055,70,110,700,bloc_loop.csv,2023-10-02_17h06.21.632,PainUncertainty,2022.2.5,144.25955178106494,
grave,forte,stimuli/330Hz,stimuli/forte,bloc_9,prob20hthp_12trials.xlsx,3,36,80,20,0,,,,,0,8,8,8,0,0,0,0,,,,,,,,4.3,2022.0628269000008,2026.3656752000024,2026.3656853600019,0.30499309999868274,2026.813470000001,2026.813470000001,n,0.7018093000006047,2030.5519961999998,2030.5519961999998,16,2.976,,,,,sub-055,70,110,700,bloc_loop.csv,2023-10-02_17h06.21.632,PainUncertainty,2022.2.5,144.25955178106494,
aigu,forte,stimuli/660Hz,stimuli/forte,bloc_9,prob20hthp_12trials.xlsx,3,36,80,20,0,,,,,0,8,8,8,0,1,1,11,,,,,,,,3.7,2030.5519961999998,2034.255493800003,2034.2554934600025,0.3007263999970746,2034.7000232999999,2034.7000232999999,m,0.7496018000019831,2038.962378100001,2038.962378100001,26,3.448,,,,,sub-055,70,110,700,bloc_loop.csv,2023-10-02_17h06.21.632,PainUncertainty,2022.2.5,144.25955178106494,
grave,forte,stimuli/330Hz,stimuli/forte,bloc_9,prob20hthp_12trials.xlsx,3,36,80,20,0,,,,,0,8,8,8,0,2,2,3,,,,,,,,4.5,2038.962378100001,2043.4648087000023,2043.4648111600013,0.3049575000004552,2043.9090379000008,2043.9090379000008,n,0.7692132999982277,2046.1708671000015,2046.1708671000015,27,1.427,,,,,sub-055,70,110,700,bloc_loop.csv,2023-10-02_17h06.21.632,PainUncertainty,2022.2.5,144.25955178106494,
grave,forte,stimuli/330Hz,stimuli/forte,bloc_9,prob20hthp_12trials.xlsx,3,36,80,20,0,,,,,0,8,8,8,0,3,3,2,,,,,,,,4.7,2046.1708671000015,2050.8687608,2050.8702357600027,0.3034944999999425,2051.3126181000007,2051.3126181000007,n,1.0832894000013766,2054.7387546000027,2054.7387546000027,20,2.296,,,,,sub-055,70,110,700,bloc_loop.csv,2023-10-02_17h06.21.632,PainUncertainty,2022.2.5,144.25955178106494,
grave,forte,stimuli/330Hz,stimuli/forte,bloc_9,prob20hthp_12trials.xlsx,3,36,80,20,0,,,,,0,8,8,8,0,4,4,4,,,,,,,,4.7,2054.7387546000027,2059.438882000002,2059.438878460003,0.3055576000006113,2059.8860067000023,2059.8860067000023,n,0.7717020000018238,2061.7731188000034,2061.7731188000034,21,1.038,,,,,sub-055,70,110,700,bloc_loop.csv,2023-10-02_17h06.21.632,PainUncertainty,2022.2.5,144.25955178106494,
aigu,moderee,stimuli/660Hz,stimuli/moderee,bloc_9,prob20hthp_12trials.xlsx,3,36,80,20,0,,,,,0,8,8,8,0,5,5,9,,,,,,,,4.8,2061.7731188000034,2066.5725022000006,2066.5721978600027,0.3052946999996493,2067.0162533000002,2067.0162533000002,n,0.9771290999997291,2072.8362564000017,2072.8362564000017,0,4.782,,,,,sub-055,70,110,700,bloc_loop.csv,2023-10-02_17h06.21.632,PainUncertainty,2022.2.5,144.25955178106494,
aigu,moderee,stimuli/660Hz,stimuli/moderee,bloc_9,prob20hthp_12trials.xlsx,3,36,80,20,0,,,,,0,8,8,8,0,6,6,7,,,,,,,,3.5,2072.8362564000017,2076.336845200003,2076.336763660003,0.30516720000014175,2076.7809344000016,2076.7809344000016,n,0.6293000999976357,2080.910533600003,2080.910533600003,0,3.441,,,,,sub-055,70,110,700,bloc_loop.csv,2023-10-02_17h06.21.632,PainUncertainty,2022.2.5,144.25955178106494,
aigu,moderee,stimuli/660Hz,stimuli/moderee,bloc_9,prob20hthp_12trials.xlsx,3,36,80,20,0,,,,,0,8,8,8,0,7,7,6,,,,,,,,4,2080.910533600003,2084.9143083000017,2084.914310460002,0.30505510000148206,2085.3586589000006,2085.3586589000006,n,0.6244831999974849,2087.288263800001,2087.288263800001,1,1.246,,,,,sub-055,70,110,700,bloc_loop.csv,2023-10-02_17h06.21.632,PainUncertainty,2022.2.5,144.25955178106494,
grave,moderee,stimuli/330Hz,stimuli/moderee,bloc_9,prob20hthp_12trials.xlsx,3,36,80,20,0,,,,,0,8,8,8,0,8,8,5,,,,,,,,3.1,2087.288263800001,2090.3941472000006,2090.39406516,0.30506900000182213,2090.8382549000016,2090.8382549000016,n,0.5077762000000803,2098.016239200002,2098.016239200002,4,6.599,,,,,sub-055,70,110,700,bloc_loop.csv,2023-10-02_17h06.21.632,PainUncertainty,2022.2.5,144.25955178106494,
aigu,moderee,stimuli/660Hz,stimuli/moderee,bloc_9,prob20hthp_12trials.xlsx,3,36,80,20,0,,,,,0,8,8,8,0,9,9,8,,,,,,,,4.7,2098.016239200002,2102.7218490000014,2102.7218659600017,0.3007242999992741,2103.166466800001,2103.166466800001,n,0.9602578999983962,2107.0797194000006,2107.0797194000006,2,2.899,,,,,sub-055,70,110,700,bloc_loop.csv,2023-10-02_17h06.21.632,PainUncertainty,2022.2.5,144.25955178106494,
aigu,moderee,stimuli/660Hz,stimuli/moderee,bloc_9,prob20hthp_12trials.xlsx,3,36,80,20,0,,,,,0,8,8,8,0,10,10,10,,,,,,,,3.4,2107.0797194000006,2110.4796268000027,2110.4797693600026,0.304954600000201,2110.923787900003,2110.923787900003,n,0.4913754999979574,2115.2036622000014,2115.2036622000014,2,3.713,,,,,sub-055,70,110,700,bloc_loop.csv,2023-10-02_17h06.21.632,PainUncertainty,2022.2.5,144.25955178106494,
grave,forte,stimuli/330Hz,stimuli/forte,bloc_9,prob20hthp_12trials.xlsx,3,36,80,20,0,,,,,0,8,8,8,0,11,11,1,,,,,,,,4,2115.2036622000014,2119.2033341000024,2119.2033870600003,0.30507180000131484,2119.650803700002,2119.650803700002,n,0.8522046999969461,2122.2674155000022,2122.2674155000022,7,1.699,,,,,sub-055,70,110,700,bloc_loop.csv,2023-10-02_17h06.21.632,PainUncertainty,2022.2.5,144.25955178106494,
grave,forte,stimuli/330Hz,stimuli/forte,bloc_9,prob20hthp_12trials.xlsx,3,36,80,20,0,,,,,0,8,8,8,1,0,12,0,,,,,,,,4.5,2122.2674155000022,2126.7663119000026,2126.766469560001,0.30519830000048387,2127.2132716000015,2127.2132716000015,m,0.771498199999769,2129.8785229000023,2129.8785229000023,27,1.81,,,,,sub-055,70,110,700,bloc_loop.csv,2023-10-02_17h06.21.632,PainUncertainty,2022.2.5,144.25955178106494,
aigu,moderee,stimuli/660Hz,stimuli/moderee,bloc_9,prob20hthp_12trials.xlsx,3,36,80,20,0,,,,,0,8,8,8,1,1,13,7,,,,,,,,4.5,2129.8785229000023,2134.3782598000034,2134.3783272600026,0.2990873999988253,2134.816248000003,2134.816248000003,n,0.6136880999983987,2138.7024385000004,2138.7024385000004,0,3.203,,,,,sub-055,70,110,700,bloc_loop.csv,2023-10-02_17h06.21.632,PainUncertainty,2022.2.5,144.25955178106494,
aigu,moderee,stimuli/660Hz,stimuli/moderee,bloc_9,prob20hthp_12trials.xlsx,3,36,80,20,0,,,,,0,8,8,8,1,2,14,6,,,,,,,,4.1,2138.7024385000004,2142.8029343000017,2142.8031002600014,0.30532640000092215,2143.251734900001,2143.251734900001,n,0.5367142999966745,2147.1586098000007,2147.1586098000007,1,3.317,,,,,sub-055,70,110,700,bloc_loop.csv,2023-10-02_17h06.21.632,PainUncertainty,2022.2.5,144.25955178106494,
aigu,moderee,stimuli/660Hz,stimuli/moderee,bloc_9,prob20hthp_12trials.xlsx,3,36,80,20,0,,,,,0,8,8,8,1,3,15,10,,,,,,,,4.5,2147.1586098000007,2151.6582320000016,2151.658356460002,0.3049592000024859,2152.1024257000026,2152.1024257000026,n,0.5409474000007322,2157.167709000001,2157.167709000001,2,4.449,,,,,sub-055,70,110,700,bloc_loop.csv,2023-10-02_17h06.21.632,PainUncertainty,2022.2.5,144.25955178106494,
grave,forte,stimuli/330Hz,stimuli/forte,bloc_9,prob20hthp_12trials.xlsx,3,36,80,20,0,,,,,0,8,8,8,1,4,16,1,,,,,,,,4.4,2157.167709000001,2161.569018600003,2161.5691404600016,0.3055014999990817,2162.0177245000013,2162.0177245000013,n,1.0059376999997767,2164.6990646000013,2164.6990646000013,15,1.594,,,,,sub-055,70,110,700,bloc_loop.csv,2023-10-02_17h06.21.632,PainUncertainty,2022.2.5,144.25955178106494,
grave,moderee,stimuli/330Hz,stimuli/moderee,bloc_9,prob20hthp_12trials.xlsx,3,36,80,20,0,,,,,0,8,8,8,1,5,17,5,,,,,,,,4.8,2164.6990646000013,2169.5005106000026,2169.500508460003,0.30483149999781745,2169.9446567000014,2169.9446567000014,n,0.573494699998264,2174.304974300001,2174.304974300001,1,3.732,,,,,sub-055,70,110,700,bloc_loop.csv,2023-10-02_17h06.21.632,PainUncertainty,2022.2.5,144.25955178106494,
aigu,moderee,stimuli/660Hz,stimuli/moderee,bloc_9,prob20hthp_12trials.xlsx,3,36,80,20,0,,,,,0,8,8,8,1,6,18,9,,,,,,,,4.9,2174.304974300001,2179.2100321,2179.2100793600016,0.3049417000001995,2179.6541596000025,2179.6541596000025,n,0.5691912999973283,2183.8995122000015,2183.8995122000015,1,3.595,,,,,sub-055,70,110,700,bloc_loop.csv,2023-10-02_17h06.21.632,PainUncertainty,2022.2.5,144.25955178106494,
grave,forte,stimuli/330Hz,stimuli/forte,bloc_9,prob20hthp_12trials.xlsx,3,36,80,20,0,,,,,0,8,8,8,1,7,19,4,,,,,,,,3.8,2183.8995122000015,2187.7041345000034,2187.70420356,0.3049670000000333,2188.152132700001,2188.152132700001,m,1.2277739999990445,2190.433973500003,2190.433973500003,10,0.989,,,,,sub-055,70,110,700,bloc_loop.csv,2023-10-02_17h06.21.632,PainUncertainty,2022.2.5,144.25955178106494,
grave,forte,stimuli/330Hz,stimuli/forte,bloc_9,prob20hthp_12trials.xlsx,3,36,80,20,0,,,,,0,8,8,8,1,8,20,2,,,,,,,,3.9,2190.433973500003,2194.3374287000006,2194.337499160001,0.3050504999991972,2194.788328100003,2194.788328100003,n,1.115582499998709,2196.732881900003,2196.732881900003,30,0.764,,,,,sub-055,70,110,700,bloc_loop.csv,2023-10-02_17h06.21.632,PainUncertainty,2022.2.5,144.25955178106494,
aigu,forte,stimuli/660Hz,stimuli/forte,bloc_9,prob20hthp_12trials.xlsx,3,36,80,20,0,,,,,0,8,8,8,1,9,21,11,,,,,,,,4.1,2196.732881900003,2200.8377481000025,2200.837659260001,0.30486390000078245,2201.286106800002,2201.286106800002,n,1.1680477000008977,2205.5102879000005,2205.5102879000005,30,3.004,,,,,sub-055,70,110,700,bloc_loop.csv,2023-10-02_17h06.21.632,PainUncertainty,2022.2.5,144.25955178106494,
grave,forte,stimuli/330Hz,stimuli/forte,bloc_9,prob20hthp_12trials.xlsx,3,36,80,20,0,,,,,0,8,8,8,1,10,22,3,,,,,,,,4.4,2205.5102879000005,2209.915096300003,2209.915192560003,0.30506830000012997,2210.3593242000024,2210.3593242000024,n,0.6505130999976245,2213.504272500002,2213.504272500002,12,2.413,,,,,sub-055,70,110,700,bloc_loop.csv,2023-10-02_17h06.21.632,PainUncertainty,2022.2.5,144.25955178106494,
aigu,moderee,stimuli/660Hz,stimuli/moderee,bloc_9,prob20hthp_12trials.xlsx,3,36,80,20,0,,,,,0,8,8,8,1,11,23,8,,,,,,,,3.3,2213.504272500002,2216.8047503000016,2216.804721560003,0.30562540000028093,2217.2533508000015,2217.2533508000015,n,0.9152754999995523,2220.187904100003,2220.187904100003,0,1.934,,,,,sub-055,70,110,700,bloc_loop.csv,2023-10-02_17h06.21.632,PainUncertainty,2022.2.5,144.25955178106494,
grave,forte,stimuli/330Hz,stimuli/forte,bloc_9,prob20hthp_12trials.xlsx,3,36,80,20,0,,,,,0,8,8,8,2,0,24,3,,,,,,,,3.2,2220.187904100003,2223.3893018000017,2223.389329160001,0.3049049000001105,2223.8403773000027,2223.8403773000027,n,0.7235636999976123,2226.740232100001,2226.740232100001,19,2.121,,,,,sub-055,70,110,700,bloc_loop.csv,2023-10-02_17h06.21.632,PainUncertainty,2022.2.5,144.25955178106494,
aigu,forte,stimuli/660Hz,stimuli/forte,bloc_9,prob20hthp_12trials.xlsx,3,36,80,20,0,,,,,0,8,8,8,2,1,25,11,,,,,,,,3.9,2226.740232100001,2230.6395949000034,2230.639811360002,0.30527010000150767,2231.0841363,2231.0841363,n,0.7321125999987999,2233.8713229000023,2233.8713229000023,13,1.982,,,,,sub-055,70,110,700,bloc_loop.csv,2023-10-02_17h06.21.632,PainUncertainty,2022.2.5,144.25955178106494,
aigu,moderee,stimuli/660Hz,stimuli/moderee,bloc_9,prob20hthp_12trials.xlsx,3,36,80,20,0,,,,,0,8,8,8,2,2,26,10,,,,,,,,3.9,2233.8713229000023,2237.7725646,2237.772608560002,0.3049981999974989,2238.2166915000016,2238.2166915000016,n,0.9919735999974364,2242.1522745,2242.1522745,0,2.872,,,,,sub-055,70,110,700,bloc_loop.csv,2023-10-02_17h06.21.632,PainUncertainty,2022.2.5,144.25955178106494,
grave,forte,stimuli/330Hz,stimuli/forte,bloc_9,prob20hthp_12trials.xlsx,3,36,80,20,0,,,,,0,8,8,8,2,3,27,2,,,,,,,,3.1,2242.1522745,2245.2528543000008,2245.252959660001,0.30459200000041164,2245.696891800002,2245.696891800002,n,0.6115585999978066,2248.6270258000004,2248.6270258000004,22,2.268,,,,,sub-055,70,110,700,bloc_loop.csv,2023-10-02_17h06.21.632,PainUncertainty,2022.2.5,144.25955178106494,
grave,forte,stimuli/330Hz,stimuli/forte,bloc_9,prob20hthp_12trials.xlsx,3,36,80,20,0,,,,,0,8,8,8,2,4,28,1,,,,,,,,3.9,2248.6270258000004,2252.5312061000004,2252.5313405600004,0.30478909999874304,2252.975331100002,2252.975331100002,n,0.9634466999996221,2255.339952800001,2255.339952800001,23,1.344,,,,,sub-055,70,110,700,bloc_loop.csv,2023-10-02_17h06.21.632,PainUncertainty,2022.2.5,144.25955178106494,
grave,forte,stimuli/330Hz,stimuli/forte,bloc_9,prob20hthp_12trials.xlsx,3,36,80,20,0,,,,,0,8,8,8,2,5,29,4,,,,,,,,4.2,2255.339952800001,2259.5393153000005,2259.541850160001,0.3027159999983269,2259.987047300001,2259.987047300001,n,0.8591502999988734,2263.6554512000002,2263.6554512000002,31,2.724,,,,,sub-055,70,110,700,bloc_loop.csv,2023-10-02_17h06.21.632,PainUncertainty,2022.2.5,144.25955178106494,
aigu,moderee,stimuli/660Hz,stimuli/moderee,bloc_9,prob20hthp_12trials.xlsx,3,36,80,20,0,,,,,0,8,8,8,2,6,30,6,,,,,,,,4.8,2263.6554512000002,2268.457301600003,2268.4569919600012,0.3048070999975607,2268.900877600001,2268.900877600001,n,1.0114255999978923,2273.3421179000034,2273.3421179000034,2,3.365,,,,,sub-055,70,110,700,bloc_loop.csv,2023-10-02_17h06.21.632,PainUncertainty,2022.2.5,144.25955178106494,
aigu,moderee,stimuli/660Hz,stimuli/moderee,bloc_9,prob20hthp_12trials.xlsx,3,36,80,20,0,,,,,0,8,8,8,2,7,31,8,,,,,,,,4.1,2273.3421179000034,2277.4444329,2277.4444801600016,0.30499199999758275,2277.8907420000032,2277.8907420000032,n,0.5834721999963222,2281.7030681000033,2281.7030681000033,0,3.171,,,,,sub-055,70,110,700,bloc_loop.csv,2023-10-02_17h06.21.632,PainUncertainty,2022.2.5,144.25955178106494,
aigu,moderee,stimuli/660Hz,stimuli/moderee,bloc_9,prob20hthp_12trials.xlsx,3,36,80,20,0,,,,,0,8,8,8,2,8,32,7,,,,,,,,4.6,2281.7030681000033,2286.3060981000017,2286.306182560003,0.3048062999987451,2286.750123500002,2286.750123500002,n,0.648588899995957,2288.705344000002,2288.705344000002,0,1.233,,,,,sub-055,70,110,700,bloc_loop.csv,2023-10-02_17h06.21.632,PainUncertainty,2022.2.5,144.25955178106494,
grave,forte,stimuli/330Hz,stimuli/forte,bloc_9,prob20hthp_12trials.xlsx,3,36,80,20,0,,,,,0,8,8,8,2,9,33,0,,,,,,,,3.1,2288.705344000002,2291.807122500002,2291.8071258600007,0.305053099997167,2292.255082800002,2292.255082800002,n,0.7819352000005892,2295.7395388000004,2295.7395388000004,20,2.622,,,,,sub-055,70,110,700,bloc_loop.csv,2023-10-02_17h06.21.632,PainUncertainty,2022.2.5,144.25955178106494,
grave,moderee,stimuli/330Hz,stimuli/moderee,bloc_9,prob20hthp_12trials.xlsx,3,36,80,20,0,,,,,0,8,8,8,2,10,34,5,,,,,,,,3.4,2295.7395388000004,2299.141446900001,2299.141288160002,0.3004063000007591,2299.585210100002,2299.585210100002,n,0.5358869999981835,2301.366004200001,2301.366004200001,3,1.177,,,,,sub-055,70,110,700,bloc_loop.csv,2023-10-02_17h06.21.632,PainUncertainty,2022.2.5,144.25955178106494,
aigu,moderee,stimuli/660Hz,stimuli/moderee,bloc_9,prob20hthp_12trials.xlsx,3,36,80,20,0,,,,,0,8,8,8,2,11,35,9,,,,,,,,5,2301.366004200001,2306.3710433000015,2306.371216160003,0.3045813000026101,2306.8190375000013,2306.8190375000013,n,0.9918101000002935,2310.4805854000006,2310.4805854000006,8,2.643,,,,,sub-055,70,110,700,bloc_loop.csv,2023-10-02_17h06.21.632,PainUncertainty,2022.2.5,144.25955178106494,
