cue_,stimulus_,cue_fichier,stimulus_fichier,block_name,block_trials_file,block_n_reps,block_ntrials,block_prob_highP_highT,block_prob_highP_lowT,block_pause_after,Bloc_essai.thisRepN,Bloc_essai.thisTrialN,Bloc_essai.thisN,Bloc_essai.thisIndex,blocks.thisRepN,blocks.thisTrialN,blocks.thisN,blocks.thisIndex,trials.thisRepN,trials.thisTrialN,trials.thisN,trials.thisIndex,pause_loop.thisRepN,pause_loop.thisTrialN,pause_loop.thisN,pause_loop.thisIndex,key_resp_5.started,start_calib.started,key_resp_2.started,ISI_duration,pause.started,pause.stopped,cue.started,ISI.started,choice_pain.started,Choice.started,choice_pain.keys,choice_pain.rt,main_text.started,confirm_text.started,ratingScale.response,ratingScale.rt,key_resp_3.started,key_resp_6.started,choice_pain.stopped,Choice.stopped,participant,low_ma,high_ma,failsafe_ma,block_file,date,expName,psychopyVersion,frameRate,
aigu,moderee,stimuli/660Hz,stimuli/moderee,,,,,,,,0,0,0,2,,,,,,,,,,,,,24.57391879998613,215.53644009999698,256.12449640000705,3.4,264.99030070001027,268.3945448999875,268.39697691997276,0.30471709999255836,268.83406680001644,268.83406680001644,n,2.0281110999640077,275.8824554000166,275.8824554000166,13,4.948,,,,,sub-060,55,90,700,bloc_loop.csv,2023-10-19_09h26.37.210,PainUncertainty,2022.2.5,143.8430844133359,
aigu,forte,stimuli/660Hz,stimuli/forte,,,,,,,,0,1,1,3,,,,,,,,,,,,,,,,3.7,275.8824554000166,279.5861514999997,279.586011259997,0.30529180000303313,280.0322586999973,280.0322586999973,m,1.6182502000010572,285.32890730001964,285.32890730001964,78,3.593,,,,,sub-060,55,90,700,bloc_loop.csv,2023-10-19_09h26.37.210,PainUncertainty,2022.2.5,143.8430844133359,
grave,moderee,stimuli/330Hz,stimuli/moderee,,,,,,,,0,2,2,0,,,,,,,,,,,,,,,,4.5,285.32890730001964,289.8300013000262,289.8302098600019,0.3048836999805644,290.276703600015,290.276703600015,n,1.2459669999661855,293.14394789998187,293.14394789998187,20,1.538,,,,,sub-060,55,90,700,bloc_loop.csv,2023-10-19_09h26.37.210,PainUncertainty,2022.2.5,143.8430844133359,
grave,forte,stimuli/330Hz,stimuli/forte,,,,,,,,0,3,3,1,,,,,,,,,,,,,,,,3.5,293.14394789998187,296.6434415000258,296.6435211600095,0.3052625999553129,297.0921765000094,297.0921765000094,m,0.9009849000140093,299.56560299999546,299.56560299999546,90,1.546,,,,,sub-060,55,90,700,bloc_loop.csv,2023-10-19_09h26.37.210,PainUncertainty,2022.2.5,143.8430844133359,
grave,moderee,stimuli/330Hz,stimuli/moderee,bloc_1,prob20hthp_12trials.xlsx,4,48,20,80,0,,,,,0,0,0,0,0,0,0,5,,,,,,,,4.9,336.90345019998495,341.80879340000683,341.8088427599927,0.3053141999989748,342.2565540000214,342.2565540000214,n,1.1051962999626994,345.24513419996947,345.24513419996947,15,1.802,,,,,sub-060,55,90,700,bloc_loop.csv,2023-10-19_09h26.37.210,PainUncertainty,2022.2.5,143.8430844133359,
grave,forte,stimuli/330Hz,stimuli/forte,bloc_1,prob20hthp_12trials.xlsx,4,48,20,80,0,,,,,0,0,0,0,0,1,1,2,,,,,,,,3.6,345.24513419996947,348.8457876999746,348.84426246001965,0.30043790000490844,349.28897130000405,349.28897130000405,m,0.981206199969165,353.10581939999247,353.10581939999247,75,2.767,,,,,sub-060,55,90,700,bloc_loop.csv,2023-10-19_09h26.37.210,PainUncertainty,2022.2.5,143.8430844133359,
aigu,moderee,stimuli/660Hz,stimuli/moderee,bloc_1,prob20hthp_12trials.xlsx,4,48,20,80,0,,,,,0,0,0,0,0,2,2,7,,,,,,,,3.7,353.10581939999247,356.81023730000015,356.8103067600226,0.30499309999868274,357.25834689999465,357.25834689999465,n,0.9578809000086039,362.3931429000222,362.3931429000222,12,4.101,,,,,sub-060,55,90,700,bloc_loop.csv,2023-10-19_09h26.37.210,PainUncertainty,2022.2.5,143.8430844133359,
grave,forte,stimuli/330Hz,stimuli/forte,bloc_1,prob20hthp_12trials.xlsx,4,48,20,80,0,,,,,0,0,0,0,0,3,3,3,,,,,,,,3.4,362.3931429000222,365.79758299997775,365.7976354599872,0.3049445999786258,366.2420274000033,366.2420274000033,m,1.2636790000251494,370.17533300002106,370.17533300002106,77,2.609,,,,,sub-060,55,90,700,bloc_loop.csv,2023-10-19_09h26.37.210,PainUncertainty,2022.2.5,143.8430844133359,
grave,forte,stimuli/330Hz,stimuli/forte,bloc_1,prob20hthp_12trials.xlsx,4,48,20,80,0,,,,,0,0,0,0,0,4,4,1,,,,,,,,5,370.17533300002106,375.18064179999055,375.1805237599823,0.29941719997441396,375.619060099998,375.619060099998,m,1.5955434000352398,379.1743145000073,379.1743145000073,74,1.886,,,,,sub-060,55,90,700,bloc_loop.csv,2023-10-19_09h26.37.210,PainUncertainty,2022.2.5,143.8430844133359,
aigu,moderee,stimuli/660Hz,stimuli/moderee,bloc_1,prob20hthp_12trials.xlsx,4,48,20,80,0,,,,,0,0,0,0,0,5,5,6,,,,,,,,4.6,379.1743145000073,383.77892780001275,383.7789499600243,0.3049654000205919,384.2233030999778,384.2233030999778,n,1.0104906000196934,387.3408509999863,387.3408509999863,16,2.025,,,,,sub-060,55,90,700,bloc_loop.csv,2023-10-19_09h26.37.210,PainUncertainty,2022.2.5,143.8430844133359,
grave,forte,stimuli/330Hz,stimuli/forte,bloc_1,prob20hthp_12trials.xlsx,4,48,20,80,0,,,,,0,0,0,0,0,6,6,0,,,,,,,,3.6,387.3408509999863,390.94668079999974,390.94664256001704,0.30524170002900064,391.3944048000267,391.3944048000267,m,1.1579043999663554,394.54850689996965,394.54850689996965,74,1.92,,,,,sub-060,55,90,700,bloc_loop.csv,2023-10-19_09h26.37.210,PainUncertainty,2022.2.5,143.8430844133359,
aigu,moderee,stimuli/660Hz,stimuli/moderee,bloc_1,prob20hthp_12trials.xlsx,4,48,20,80,0,,,,,0,0,0,0,0,7,7,10,,,,,,,,4.5,394.54850689996965,399.0514622000046,399.05148125999256,0.3050527999876067,399.49573530000634,399.49573530000634,n,0.876011100015603,403.0018640999915,403.0018640999915,16,2.567,,,,,sub-060,55,90,700,bloc_loop.csv,2023-10-19_09h26.37.210,PainUncertainty,2022.2.5,143.8430844133359,
aigu,moderee,stimuli/660Hz,stimuli/moderee,bloc_1,prob20hthp_12trials.xlsx,4,48,20,80,0,,,,,0,0,0,0,0,8,8,8,,,,,,,,4.1,403.0018640999915,407.1011576000019,407.1010882600152,0.30492089997278526,407.54556469997624,407.54556469997624,n,1.325791899987962,412.2396187999984,412.2396187999984,11,3.297,,,,,sub-060,55,90,700,bloc_loop.csv,2023-10-19_09h26.37.210,PainUncertainty,2022.2.5,143.8430844133359,
grave,forte,stimuli/330Hz,stimuli/forte,bloc_1,prob20hthp_12trials.xlsx,4,48,20,80,0,,,,,0,0,0,0,0,9,9,4,,,,,,,,3.9,412.2396187999984,416.1438371000113,416.14388096001346,0.30491879995679483,416.5879734000191,416.5879734000191,m,0.9447508999728598,419.40007099998184,419.40007099998184,78,1.795,,,,,sub-060,55,90,700,bloc_loop.csv,2023-10-19_09h26.37.210,PainUncertainty,2022.2.5,143.8430844133359,
aigu,moderee,stimuli/660Hz,stimuli/moderee,bloc_1,prob20hthp_12trials.xlsx,4,48,20,80,0,,,,,0,0,0,0,0,10,10,9,,,,,,,,3.9,419.40007099998184,423.30440219998127,423.30448435998403,0.30500340001890436,423.7487683999934,423.7487683999934,n,1.6755230000126176,427.7272255999851,427.7272255999851,8,2.217,,,,,sub-060,55,90,700,bloc_loop.csv,2023-10-19_09h26.37.210,PainUncertainty,2022.2.5,143.8430844133359,
aigu,forte,stimuli/660Hz,stimuli/forte,bloc_1,prob20hthp_12trials.xlsx,4,48,20,80,0,,,,,0,0,0,0,0,11,11,11,,,,,,,,4.4,427.7272255999851,432.13226149999537,432.1324451600143,0.3050320000038482,432.57682680001017,432.57682680001017,m,1.4120391000178643,438.0657097999938,438.0657097999938,83,4.025,,,,,sub-060,55,90,700,bloc_loop.csv,2023-10-19_09h26.37.210,PainUncertainty,2022.2.5,143.8430844133359,
grave,forte,stimuli/330Hz,stimuli/forte,bloc_1,prob20hthp_12trials.xlsx,4,48,20,80,0,,,,,0,0,0,0,1,0,12,3,,,,,,,,5,438.0657097999938,443.0710446999874,443.0712056600081,0.3018395999679342,443.51643830002286,443.51643830002286,m,1.8543532000039704,448.1504003999871,448.1504003999871,81,2.726,,,,,sub-060,55,90,700,bloc_loop.csv,2023-10-19_09h26.37.210,PainUncertainty,2022.2.5,143.8430844133359,
grave,forte,stimuli/330Hz,stimuli/forte,bloc_1,prob20hthp_12trials.xlsx,4,48,20,80,0,,,,,0,0,0,0,1,1,13,0,,,,,,,,4.8,448.1504003999871,452.9537816999946,452.9538473599881,0.30508439999539405,453.3980222999817,453.3980222999817,m,1.2490528000053018,457.61245319998125,457.61245319998125,84,2.901,,,,,sub-060,55,90,700,bloc_loop.csv,2023-10-19_09h26.37.210,PainUncertainty,2022.2.5,143.8430844133359,
aigu,moderee,stimuli/660Hz,stimuli/moderee,bloc_1,prob20hthp_12trials.xlsx,4,48,20,80,0,,,,,0,0,0,0,1,2,14,7,,,,,,,,3.5,457.61245319998125,461.11452150001423,461.11449435999964,0.3052296999958344,461.55877339997096,461.55877339997096,n,0.6707191999885254,464.308625900012,464.308625900012,10,2.019,,,,,sub-060,55,90,700,bloc_loop.csv,2023-10-19_09h26.37.210,PainUncertainty,2022.2.5,143.8430844133359,
aigu,moderee,stimuli/660Hz,stimuli/moderee,bloc_1,prob20hthp_12trials.xlsx,4,48,20,80,0,,,,,0,0,0,0,1,3,15,8,,,,,,,,4.8,464.308625900012,469.10887310002,469.1088249600201,0.30488700000569224,469.5527559000184,469.5527559000184,n,1.0948573999921791,474.2969179999782,474.2969179999782,12,3.594,,,,,sub-060,55,90,700,bloc_loop.csv,2023-10-19_09h26.37.210,PainUncertainty,2022.2.5,143.8430844133359,
aigu,moderee,stimuli/660Hz,stimuli/moderee,bloc_1,prob20hthp_12trials.xlsx,4,48,20,80,0,,,,,0,0,0,0,1,4,16,10,,,,,,,,3.6,474.2969179999782,477.9012212000089,477.90128906001917,0.3050416000187397,478.34543320001103,478.34543320001103,n,0.7752041000057943,482.2563289999962,482.2563289999962,13,3.074,,,,,sub-060,55,90,700,bloc_loop.csv,2023-10-19_09h26.37.210,PainUncertainty,2022.2.5,143.8430844133359,
grave,moderee,stimuli/330Hz,stimuli/moderee,bloc_1,prob20hthp_12trials.xlsx,4,48,20,80,0,,,,,0,0,0,0,1,5,17,5,,,,,,,,4.7,482.2563289999962,486.95793460001005,486.95800445997736,0.3050376999890432,487.40248069999507,487.40248069999507,n,2.3967845999868587,492.03821969998535,492.03821969998535,13,2.156,,,,,sub-060,55,90,700,bloc_loop.csv,2023-10-19_09h26.37.210,PainUncertainty,2022.2.5,143.8430844133359,
grave,forte,stimuli/330Hz,stimuli/forte,bloc_1,prob20hthp_12trials.xlsx,4,48,20,80,0,,,,,0,0,0,0,1,6,18,4,,,,,,,,3.7,492.03821969998535,495.7436673999764,495.7436974599899,0.30552480003098026,496.1918646999984,496.1918646999984,m,0.9653823000262491,500.3793475999846,500.3793475999846,83,3.156,,,,,sub-060,55,90,700,bloc_loop.csv,2023-10-19_09h26.37.210,PainUncertainty,2022.2.5,143.8430844133359,
grave,forte,stimuli/330Hz,stimuli/forte,bloc_1,prob20hthp_12trials.xlsx,4,48,20,80,0,,,,,0,0,0,0,1,7,19,2,,,,,,,,3.8,500.3793475999846,504.18222369998693,504.18221906002725,0.3049812000244856,504.6263815999846,504.6263815999846,m,0.8097124000196345,507.14020239998354,507.14020239998354,84,1.636,,,,,sub-060,55,90,700,bloc_loop.csv,2023-10-19_09h26.37.210,PainUncertainty,2022.2.5,143.8430844133359,
aigu,moderee,stimuli/660Hz,stimuli/moderee,bloc_1,prob20hthp_12trials.xlsx,4,48,20,80,0,,,,,0,0,0,0,1,8,20,9,,,,,,,,4.2,507.14020239998354,511.3433606000035,511.3432706599764,0.29909879999468103,511.7857560000266,511.7857560000266,n,1.0139095999766141,514.0453555000131,514.0453555000131,10,1.179,,,,,sub-060,55,90,700,bloc_loop.csv,2023-10-19_09h26.37.210,PainUncertainty,2022.2.5,143.8430844133359,
grave,forte,stimuli/330Hz,stimuli/forte,bloc_1,prob20hthp_12trials.xlsx,4,48,20,80,0,,,,,0,0,0,0,1,9,21,1,,,,,,,,4.8,514.0453555000131,518.8506354999845,518.8508322599868,0.2991957000340335,519.2890468999976,519.2890468999976,m,0.789145799994003,523.1058197999955,523.1058197999955,85,2.976,,,,,sub-060,55,90,700,bloc_loop.csv,2023-10-19_09h26.37.210,PainUncertainty,2022.2.5,143.8430844133359,
aigu,forte,stimuli/660Hz,stimuli/forte,bloc_1,prob20hthp_12trials.xlsx,4,48,20,80,0,,,,,0,0,0,0,1,10,22,11,,,,,,,,5,523.1058197999955,528.108783099975,528.1087869600218,0.3050145000452176,528.5534243999864,528.5534243999864,m,0.7688875999883749,531.2567087999778,531.2567087999778,87,1.865,,,,,sub-060,55,90,700,bloc_loop.csv,2023-10-19_09h26.37.210,PainUncertainty,2022.2.5,143.8430844133359,
aigu,moderee,stimuli/660Hz,stimuli/moderee,bloc_1,prob20hthp_12trials.xlsx,4,48,20,80,0,,,,,0,0,0,0,1,11,23,6,,,,,,,,4.5,531.2567087999778,535.7624729999807,535.762662259984,0.30527920002350584,536.2073490999755,536.2073490999755,n,0.7597446999861859,539.8389103999943,539.8389103999943,11,2.817,,,,,sub-060,55,90,700,bloc_loop.csv,2023-10-19_09h26.37.210,PainUncertainty,2022.2.5,143.8430844133359,
aigu,moderee,stimuli/660Hz,stimuli/moderee,bloc_1,prob20hthp_12trials.xlsx,4,48,20,80,0,,,,,0,0,0,0,2,0,24,10,,,,,,,,3.5,539.8389103999943,543.3399510000017,543.3399567600048,0.30491690000053495,543.7878622999997,543.7878622999997,n,0.9082102000247687,546.9173930999823,546.9173930999823,8,2.124,,,,,sub-060,55,90,700,bloc_loop.csv,2023-10-19_09h26.37.210,PainUncertainty,2022.2.5,143.8430844133359,
grave,moderee,stimuli/330Hz,stimuli/moderee,bloc_1,prob20hthp_12trials.xlsx,4,48,20,80,0,,,,,0,0,0,0,2,1,25,5,,,,,,,,3.6,546.9173930999823,550.521646499983,550.5217540600046,0.3009813000098802,550.9659065000014,550.9659065000014,n,0.7074824000010267,553.6472370999982,553.6472370999982,9,1.914,,,,,sub-060,55,90,700,bloc_loop.csv,2023-10-19_09h26.37.210,PainUncertainty,2022.2.5,143.8430844133359,
aigu,moderee,stimuli/660Hz,stimuli/moderee,bloc_1,prob20hthp_12trials.xlsx,4,48,20,80,0,,,,,0,0,0,0,2,2,26,7,,,,,,,,3.4,553.6472370999982,557.0499011999927,557.04987956002,0.3050158999976702,557.4940255000256,557.4940255000256,n,1.2032438999740407,561.7989318000036,561.7989318000036,11,3.018,,,,,sub-060,55,90,700,bloc_loop.csv,2023-10-19_09h26.37.210,PainUncertainty,2022.2.5,143.8430844133359,
grave,forte,stimuli/330Hz,stimuli/forte,bloc_1,prob20hthp_12trials.xlsx,4,48,20,80,0,,,,,0,0,0,0,2,3,27,1,,,,,,,,4.4,561.7989318000036,566.2036127999891,566.2035778599733,0.305246299947612,566.647766500013,566.647766500013,m,0.7944473999668844,570.7169564000214,570.7169564000214,85,3.192,,,,,sub-060,55,90,700,bloc_loop.csv,2023-10-19_09h26.37.210,PainUncertainty,2022.2.5,143.8430844133359,
aigu,moderee,stimuli/660Hz,stimuli/moderee,bloc_1,prob20hthp_12trials.xlsx,4,48,20,80,0,,,,,0,0,0,0,2,4,28,6,,,,,,,,4.8,570.7169564000214,575.5175805999897,575.51759626001,0.30486720002954826,575.9615327999927,575.9615327999927,n,0.7869576000375673,580.2712986000115,580.2712986000115,11,3.462,,,,,sub-060,55,90,700,bloc_loop.csv,2023-10-19_09h26.37.210,PainUncertainty,2022.2.5,143.8430844133359,
aigu,moderee,stimuli/660Hz,stimuli/moderee,bloc_1,prob20hthp_12trials.xlsx,4,48,20,80,0,,,,,0,0,0,0,2,5,29,8,,,,,,,,3.8,580.2712986000115,584.0737919000094,584.0739553599909,0.3050268999650143,584.5180411000038,584.5180411000038,n,0.6471588999847881,588.6466915999772,588.6466915999772,11,3.399,,,,,sub-060,55,90,700,bloc_loop.csv,2023-10-19_09h26.37.210,PainUncertainty,2022.2.5,143.8430844133359,
grave,forte,stimuli/330Hz,stimuli/forte,bloc_1,prob20hthp_12trials.xlsx,4,48,20,80,0,,,,,0,0,0,0,2,6,30,0,,,,,,,,4.1,588.6466915999772,592.7484790000017,592.7487038599851,0.3051816000370309,593.19545379997,593.19545379997,m,0.8883094999473542,597.6760770999826,597.6760770999826,86,3.532,,,,,sub-060,55,90,700,bloc_loop.csv,2023-10-19_09h26.37.210,PainUncertainty,2022.2.5,143.8430844133359,
grave,forte,stimuli/330Hz,stimuli/forte,bloc_1,prob20hthp_12trials.xlsx,4,48,20,80,0,,,,,0,0,0,0,2,7,31,3,,,,,,,,4.9,597.6760770999826,602.5760437999852,602.5760754600109,0.3051945999613963,603.0202228999697,603.0202228999697,m,1.0120342999580316,609.8219451999757,609.8219451999757,84,5.735,,,,,sub-060,55,90,700,bloc_loop.csv,2023-10-19_09h26.37.210,PainUncertainty,2022.2.5,143.8430844133359,
grave,forte,stimuli/330Hz,stimuli/forte,bloc_1,prob20hthp_12trials.xlsx,4,48,20,80,0,,,,,0,0,0,0,2,8,32,2,,,,,,,,4.1,609.8219451999757,613.9246302000247,613.9246901599748,0.305000199994538,614.3688936000108,614.3688936000108,m,0.8575364999705926,617.5887532000197,617.5887532000197,85,2.295,,,,,sub-060,55,90,700,bloc_loop.csv,2023-10-19_09h26.37.210,PainUncertainty,2022.2.5,143.8430844133359,
aigu,forte,stimuli/660Hz,stimuli/forte,bloc_1,prob20hthp_12trials.xlsx,4,48,20,80,0,,,,,0,0,0,0,2,9,33,11,,,,,,,,3.9,617.5887532000197,621.4881202999968,621.48810815998,0.3050220999866724,621.9325025000144,621.9325025000144,m,0.8977726000011899,626.6192473000265,626.6192473000265,86,3.711,,,,,sub-060,55,90,700,bloc_loop.csv,2023-10-19_09h26.37.210,PainUncertainty,2022.2.5,143.8430844133359,
aigu,moderee,stimuli/660Hz,stimuli/moderee,bloc_1,prob20hthp_12trials.xlsx,4,48,20,80,0,,,,,0,0,0,0,2,10,34,9,,,,,,,,3.7,626.6192473000265,630.3229438000126,630.3230431599717,0.30490079999435693,630.7705190000124,630.7705190000124,n,0.9106968999840319,632.7229211999802,632.7229211999802,10,0.976,,,,,sub-060,55,90,700,bloc_loop.csv,2023-10-19_09h26.37.210,PainUncertainty,2022.2.5,143.8430844133359,
grave,forte,stimuli/330Hz,stimuli/forte,bloc_1,prob20hthp_12trials.xlsx,4,48,20,80,0,,,,,0,0,0,0,2,11,35,4,,,,,,,,5,632.7229211999802,637.7265789000085,637.7267122599936,0.3048955000122078,638.1743836000096,638.1743836000096,m,0.7382783999782987,640.619334899995,640.619334899995,86,1.645,,,,,sub-060,55,90,700,bloc_loop.csv,2023-10-19_09h26.37.210,PainUncertainty,2022.2.5,143.8430844133359,
grave,forte,stimuli/330Hz,stimuli/forte,bloc_1,prob20hthp_12trials.xlsx,4,48,20,80,0,,,,,0,0,0,0,3,0,36,0,,,,,,,,4.7,640.619334899995,645.3246962999692,645.324831160024,0.3047664000187069,645.768511799979,645.768511799979,m,1.6322237999993376,651.2454527000082,651.2454527000082,87,3.795,,,,,sub-060,55,90,700,bloc_loop.csv,2023-10-19_09h26.37.210,PainUncertainty,2022.2.5,143.8430844133359,
grave,forte,stimuli/330Hz,stimuli/forte,bloc_1,prob20hthp_12trials.xlsx,4,48,20,80,0,,,,,0,0,0,0,3,1,37,2,,,,,,,,4.5,651.2454527000082,655.7495263000019,655.7497930600133,0.3051285000401549,656.1985350999748,656.1985350999748,m,0.5529131999937817,657.8632425999967,657.8632425999967,90,1.031,,,,,sub-060,55,90,700,bloc_loop.csv,2023-10-19_09h26.37.210,PainUncertainty,2022.2.5,143.8430844133359,
aigu,moderee,stimuli/660Hz,stimuli/moderee,bloc_1,prob20hthp_12trials.xlsx,4,48,20,80,0,,,,,0,0,0,0,3,2,38,10,,,,,,,,3,657.8632425999967,660.8685214999714,660.8680801600043,0.3055263999849558,661.3173453999916,661.3173453999916,n,0.8119729000027291,663.5517199999886,663.5517199999886,12,1.366,,,,,sub-060,55,90,700,bloc_loop.csv,2023-10-19_09h26.37.210,PainUncertainty,2022.2.5,143.8430844133359,
grave,moderee,stimuli/330Hz,stimuli/moderee,bloc_1,prob20hthp_12trials.xlsx,4,48,20,80,0,,,,,0,0,0,0,3,3,39,5,,,,,,,,5,663.5517199999886,668.556664099975,668.5564131600025,0.3051858000108041,669.0009446999757,669.0009446999757,n,1.7854794999584556,673.7808425999829,673.7808425999829,10,2.927,,,,,sub-060,55,90,700,bloc_loop.csv,2023-10-19_09h26.37.210,PainUncertainty,2022.2.5,143.8430844133359,
aigu,moderee,stimuli/660Hz,stimuli/moderee,bloc_1,prob20hthp_12trials.xlsx,4,48,20,80,0,,,,,0,0,0,0,3,4,40,8,,,,,,,,4.1,673.7808425999829,677.883720199985,677.8836541600234,0.30551450001075864,678.3279766999767,678.3279766999767,n,0.8320560000138357,680.7825804000022,680.7825804000022,10,1.545,,,,,sub-060,55,90,700,bloc_loop.csv,2023-10-19_09h26.37.210,PainUncertainty,2022.2.5,143.8430844133359,
aigu,forte,stimuli/660Hz,stimuli/forte,bloc_1,prob20hthp_12trials.xlsx,4,48,20,80,0,,,,,0,0,0,0,3,5,41,11,,,,,,,,4.3,680.7825804000022,685.0860695000156,685.0861027599952,0.30519800004549325,685.5302075999789,685.5302075999789,m,0.6747902000206523,687.5571137000225,687.5571137000225,84,1.281,,,,,sub-060,55,90,700,bloc_loop.csv,2023-10-19_09h26.37.210,PainUncertainty,2022.2.5,143.8430844133359,
aigu,moderee,stimuli/660Hz,stimuli/moderee,bloc_1,prob20hthp_12trials.xlsx,4,48,20,80,0,,,,,0,0,0,0,3,6,42,7,,,,,,,,3,687.5571137000225,690.5593369000126,690.5593117600132,0.305231099948287,691.0103557999828,691.0103557999828,n,0.6485220000031404,693.5823931000195,693.5823931000195,12,1.852,,,,,sub-060,55,90,700,bloc_loop.csv,2023-10-19_09h26.37.210,PainUncertainty,2022.2.5,143.8430844133359,
grave,forte,stimuli/330Hz,stimuli/forte,bloc_1,prob20hthp_12trials.xlsx,4,48,20,80,0,,,,,0,0,0,0,3,7,43,4,,,,,,,,3.8,693.5823931000195,697.3862414999749,697.3861329599807,0.30546140001388267,697.8304134000209,697.8304134000209,m,0.6557908999966457,699.8956240999978,699.8956240999978,84,1.344,,,,,sub-060,55,90,700,bloc_loop.csv,2023-10-19_09h26.37.210,PainUncertainty,2022.2.5,143.8430844133359,
grave,forte,stimuli/330Hz,stimuli/forte,bloc_1,prob20hthp_12trials.xlsx,4,48,20,80,0,,,,,0,0,0,0,3,8,44,1,,,,,,,,5,699.8956240999978,704.9029567000107,704.9014741599734,0.30466949997935444,705.3451596000232,705.3451596000232,m,0.9317245000274852,708.0774591999943,708.0774591999943,84,1.733,,,,,sub-060,55,90,700,bloc_loop.csv,2023-10-19_09h26.37.210,PainUncertainty,2022.2.5,143.8430844133359,
grave,forte,stimuli/330Hz,stimuli/forte,bloc_1,prob20hthp_12trials.xlsx,4,48,20,80,0,,,,,0,0,0,0,3,9,45,3,,,,,,,,4.5,708.0774591999943,712.5824003000162,712.5824782599869,0.3051367999869399,713.0268254000111,713.0268254000111,m,0.7139097999897785,715.0463257000083,715.0463257000083,83,1.226,,,,,sub-060,55,90,700,bloc_loop.csv,2023-10-19_09h26.37.210,PainUncertainty,2022.2.5,143.8430844133359,
aigu,moderee,stimuli/660Hz,stimuli/moderee,bloc_1,prob20hthp_12trials.xlsx,4,48,20,80,0,,,,,0,0,0,0,3,10,46,9,,,,,,,,4.7,715.0463257000083,719.7499468000024,719.7500685600156,0.3049993999884464,720.1941588000045,720.1941588000045,n,0.6168406999786384,724.1068307000096,724.1068307000096,8,3.234,,,,,sub-060,55,90,700,bloc_loop.csv,2023-10-19_09h26.37.210,PainUncertainty,2022.2.5,143.8430844133359,
aigu,moderee,stimuli/660Hz,stimuli/moderee,bloc_1,prob20hthp_12trials.xlsx,4,48,20,80,0,,,,,0,0,0,0,3,11,47,6,,,,,,,,3.9,724.1068307000096,728.0079041999998,728.0079200600215,0.30504290002863854,728.4524109999766,728.4524109999766,n,1.3197241999441758,732.3687347000232,732.3687347000232,9,2.542,,,,,sub-060,55,90,700,bloc_loop.csv,2023-10-19_09h26.37.210,PainUncertainty,2022.2.5,143.8430844133359,
grave,moderee,stimuli/330Hz,stimuli/moderee,bloc_2,prob50_50_4trials.xlsx,2,8,50,50,1,,,,,0,1,1,1,0,0,0,0,,,,,,,,3.3,732.3687347000232,735.6690251000109,735.6690417599806,0.30486409994773567,736.1131978000049,736.1131978000049,n,0.9229319000151008,739.5774954999797,739.5774954999797,9,2.476,,,,,sub-060,55,90,700,bloc_loop.csv,2023-10-19_09h26.37.210,PainUncertainty,2022.2.5,143.8430844133359,
aigu,forte,stimuli/660Hz,stimuli/forte,bloc_2,prob50_50_4trials.xlsx,2,8,50,50,1,,,,,0,1,1,1,0,1,1,3,,,,,,,,4.2,739.5774954999797,743.7806536999997,743.7808537600271,0.3016615000087768,744.2252909999806,744.2252909999806,m,0.76842310000211,747.8881239999901,747.8881239999901,85,2.83,,,,,sub-060,55,90,700,bloc_loop.csv,2023-10-19_09h26.37.210,PainUncertainty,2022.2.5,143.8430844133359,
grave,forte,stimuli/330Hz,stimuli/forte,bloc_2,prob50_50_4trials.xlsx,2,8,50,50,1,,,,,0,1,1,1,0,2,2,1,,,,,,,,3.4,747.8881239999901,751.2887223999714,751.2886864600063,0.2993438999983482,751.7278426999692,751.7278426999692,m,0.9812937999959104,755.9903659999836,755.9903659999836,90,3.213,,,,,sub-060,55,90,700,bloc_loop.csv,2023-10-19_09h26.37.210,PainUncertainty,2022.2.5,143.8430844133359,
aigu,moderee,stimuli/660Hz,stimuli/moderee,bloc_2,prob50_50_4trials.xlsx,2,8,50,50,1,,,,,0,1,1,1,0,3,3,2,,,,,,,,4.7,755.9903659999836,760.6920528999763,760.6924367600062,0.30509380000876263,761.1367776999832,761.1367776999832,n,0.5760996000026353,763.9984421000117,763.9984421000117,5,2.218,,,,,sub-060,55,90,700,bloc_loop.csv,2023-10-19_09h26.37.210,PainUncertainty,2022.2.5,143.8430844133359,
aigu,forte,stimuli/660Hz,stimuli/forte,bloc_2,prob50_50_4trials.xlsx,2,8,50,50,1,,,,,0,1,1,1,1,0,4,3,,,,,,,,3,763.9984421000117,767.001764399989,766.9992543599859,0.3050705000059679,767.4466432000045,767.4466432000045,m,1.4261821000254713,771.9719864000217,771.9719864000217,88,3.034,,,,,sub-060,55,90,700,bloc_loop.csv,2023-10-19_09h26.37.210,PainUncertainty,2022.2.5,143.8430844133359,
grave,moderee,stimuli/330Hz,stimuli/moderee,bloc_2,prob50_50_4trials.xlsx,2,8,50,50,1,,,,,0,1,1,1,1,1,5,0,,,,,,,,3.3,771.9719864000217,775.2775977000128,775.2777879600238,0.3046767999767326,775.7219674999942,775.7219674999942,n,0.5432339000399224,779.7225082999794,779.7225082999794,10,3.392,,,,,sub-060,55,90,700,bloc_loop.csv,2023-10-19_09h26.37.210,PainUncertainty,2022.2.5,143.8430844133359,
aigu,moderee,stimuli/660Hz,stimuli/moderee,bloc_2,prob50_50_4trials.xlsx,2,8,50,50,1,,,,,0,1,1,1,1,2,6,2,,,,,,,,4.7,779.7225082999794,784.4246759000234,784.4247237599978,0.30465270002605394,784.8687238999992,784.8687238999992,n,0.7279298999928869,787.6667379999999,787.6667379999999,11,1.996,,,,,sub-060,55,90,700,bloc_loop.csv,2023-10-19_09h26.37.210,PainUncertainty,2022.2.5,143.8430844133359,
grave,forte,stimuli/330Hz,stimuli/forte,bloc_2,prob50_50_4trials.xlsx,2,8,50,50,1,,,,,0,1,1,1,1,3,7,1,,,,,,,,4.4,787.6667379999999,792.0712522999966,792.0712130600062,0.3051034000236541,792.5154137000209,792.5154137000209,m,0.6783160999766551,798.6326236000168,798.6326236000168,89,3.406,,,,,sub-060,55,90,700,bloc_loop.csv,2023-10-19_09h26.37.210,PainUncertainty,2022.2.5,143.8430844133359,
,,,,bloc_2,prob50_50_4trials.xlsx,2,8,50,50,1,,,,,0,1,1,1,,,,,0,0,0,0,,,,,,,,,,,,,,,,,798.6326236000168,818.8036439999705,,,sub-060,55,90,700,bloc_loop.csv,2023-10-19_09h26.37.210,PainUncertainty,2022.2.5,143.8430844133359,
aigu,forte,stimuli/660Hz,stimuli/forte,bloc_3,prob80hthp_12trials.xlsx,2,24,80,20,0,,,,,0,2,2,2,0,0,0,9,,,,,,,,4.6,820.5425692999852,825.1446894999826,825.1447462600248,0.3050785000086762,825.5888472999795,825.5888472999795,m,2.2596288000349887,831.6794375000172,831.6794375000172,49,3.773,,,,,sub-060,55,90,700,bloc_loop.csv,2023-10-19_09h26.37.210,PainUncertainty,2022.2.5,143.8430844133359,
grave,forte,stimuli/330Hz,stimuli/forte,bloc_3,prob80hthp_12trials.xlsx,2,24,80,20,0,,,,,0,2,2,2,0,1,1,5,,,,,,,,3.2,831.6794375000172,834.8820222999784,834.8820123599784,0.30513799999607727,835.3261795999715,835.3261795999715,m,0.6932781999930739,837.6085202000104,837.6085202000104,80,1.539,,,,,sub-060,55,90,700,bloc_loop.csv,2023-10-19_09h26.37.210,PainUncertainty,2022.2.5,143.8430844133359,
aigu,forte,stimuli/660Hz,stimuli/forte,bloc_3,prob80hthp_12trials.xlsx,2,24,80,20,0,,,,,0,2,2,2,0,2,2,6,,,,,,,,4.9,837.6085202000104,842.50789790001,842.507950560021,0.30492109997430816,842.952164700022,842.952164700022,m,0.9713600999675691,847.2153963000164,847.2153963000164,68,3.219,,,,,sub-060,55,90,700,bloc_loop.csv,2023-10-19_09h26.37.210,PainUncertainty,2022.2.5,143.8430844133359,
grave,moderee,stimuli/330Hz,stimuli/moderee,bloc_3,prob80hthp_12trials.xlsx,2,24,80,20,0,,,,,0,2,2,2,0,3,3,2,,,,,,,,3.9,847.2153963000164,851.1202811999829,851.1202551599766,0.30493389995535836,851.566975899972,851.566975899972,n,1.0391427000286058,855.0599706000066,855.0599706000066,10,2.399,,,,,sub-060,55,90,700,bloc_loop.csv,2023-10-19_09h26.37.210,PainUncertainty,2022.2.5,143.8430844133359,
grave,moderee,stimuli/330Hz,stimuli/moderee,bloc_3,prob80hthp_12trials.xlsx,2,24,80,20,0,,,,,0,2,2,2,0,4,4,1,,,,,,,,4,855.0599706000066,859.0654464000254,859.0654885600146,0.3053670000517741,859.5139869999839,859.5139869999839,n,0.8058281999547035,864.4424578999751,864.4424578999751,8,4.01,,,,,sub-060,55,90,700,bloc_loop.csv,2023-10-19_09h26.37.210,PainUncertainty,2022.2.5,143.8430844133359,
aigu,forte,stimuli/660Hz,stimuli/forte,bloc_3,prob80hthp_12trials.xlsx,2,24,80,20,0,,,,,0,2,2,2,0,5,5,8,,,,,,,,3.3,864.4424578999751,867.7470122000086,867.7470982599829,0.30504930001916364,868.1913270999794,868.1913270999794,m,0.6849999999976717,872.8479646000196,872.8479646000196,84,3.92,,,,,sub-060,55,90,700,bloc_loop.csv,2023-10-19_09h26.37.210,PainUncertainty,2022.2.5,143.8430844133359,
aigu,forte,stimuli/660Hz,stimuli/forte,bloc_3,prob80hthp_12trials.xlsx,2,24,80,20,0,,,,,0,2,2,2,0,6,6,10,,,,,,,,4.2,872.8479646000196,877.0536806000164,877.0539097599743,0.3049674999783747,877.4981588000082,877.4981588000082,m,0.9500251999706961,881.5752117999946,881.5752117999946,85,3.054,,,,,sub-060,55,90,700,bloc_loop.csv,2023-10-19_09h26.37.210,PainUncertainty,2022.2.5,143.8430844133359,
grave,moderee,stimuli/330Hz,stimuli/moderee,bloc_3,prob80hthp_12trials.xlsx,2,24,80,20,0,,,,,0,2,2,2,0,7,7,3,,,,,,,,4.6,881.5752117999946,886.1825230999966,886.180287659989,0.2990214999881573,886.6224886000273,886.6224886000273,n,0.6604569999617524,891.8983166000107,891.8983166000107,7,4.566,,,,,sub-060,55,90,700,bloc_loop.csv,2023-10-19_09h26.37.210,PainUncertainty,2022.2.5,143.8430844133359,
grave,moderee,stimuli/330Hz,stimuli/moderee,bloc_3,prob80hthp_12trials.xlsx,2,24,80,20,0,,,,,0,2,2,2,0,8,8,0,,,,,,,,4.1,891.8983166000107,896.0009588000248,896.0009289599897,0.3019029999850318,896.4466348999995,896.4466348999995,n,0.6464286999544129,901.0259879999794,901.0259879999794,11,3.852,,,,,sub-060,55,90,700,bloc_loop.csv,2023-10-19_09h26.37.210,PainUncertainty,2022.2.5,143.8430844133359,
aigu,forte,stimuli/660Hz,stimuli/forte,bloc_3,prob80hthp_12trials.xlsx,2,24,80,20,0,,,,,0,2,2,2,0,9,9,7,,,,,,,,3.2,901.0259879999794,904.2306655999855,904.2307245599862,0.30490450002253056,904.6747332999948,904.6747332999948,m,0.6127106000203639,908.3940527000232,908.3940527000232,86,3.031,,,,,sub-060,55,90,700,bloc_loop.csv,2023-10-19_09h26.37.210,PainUncertainty,2022.2.5,143.8430844133359,
aigu,moderee,stimuli/660Hz,stimuli/moderee,bloc_3,prob80hthp_12trials.xlsx,2,24,80,20,0,,,,,0,2,2,2,0,10,10,11,,,,,,,,3,908.3940527000232,911.3980849999934,911.3981712599692,0.30497430003015324,911.842279799981,911.842279799981,n,0.5285884999902919,914.0824239000212,914.0824239000212,7,1.65,,,,,sub-060,55,90,700,bloc_loop.csv,2023-10-19_09h26.37.210,PainUncertainty,2022.2.5,143.8430844133359,
grave,moderee,stimuli/330Hz,stimuli/moderee,bloc_3,prob80hthp_12trials.xlsx,2,24,80,20,0,,,,,0,2,2,2,0,11,11,4,,,,,,,,4,914.0824239000212,918.086964600021,918.0868445599975,0.3052095999591984,918.5345892999903,918.5345892999903,n,0.7047028000233695,921.5792809000122,921.5792809000122,10,2.275,,,,,sub-060,55,90,700,bloc_loop.csv,2023-10-19_09h26.37.210,PainUncertainty,2022.2.5,143.8430844133359,
grave,moderee,stimuli/330Hz,stimuli/moderee,bloc_3,prob80hthp_12trials.xlsx,2,24,80,20,0,,,,,0,2,2,2,1,0,12,2,,,,,,,,3.6,921.5792809000122,925.1844525000197,925.184453159984,0.30549650004832074,925.6323770000017,925.6323770000017,n,0.6569916000007652,930.9432948000031,930.9432948000031,6,4.58,,,,,sub-060,55,90,700,bloc_loop.csv,2023-10-19_09h26.37.210,PainUncertainty,2022.2.5,143.8430844133359,
aigu,forte,stimuli/660Hz,stimuli/forte,bloc_3,prob80hthp_12trials.xlsx,2,24,80,20,0,,,,,0,2,2,2,1,1,13,9,,,,,,,,4.3,930.9432948000031,935.2486121000256,935.248805460002,0.3048705999972299,935.6947380999918,935.6947380999918,m,0.6862160000018775,940.3400314999744,940.3400314999744,91,3.893,,,,,sub-060,55,90,700,bloc_loop.csv,2023-10-19_09h26.37.210,PainUncertainty,2022.2.5,143.8430844133359,
aigu,forte,stimuli/660Hz,stimuli/forte,bloc_3,prob80hthp_12trials.xlsx,2,24,80,20,0,,,,,0,2,2,2,1,2,14,6,,,,,,,,4.2,940.3400314999744,944.54092270002,944.5409281600208,0.30527700000675395,944.9922420000075,944.9922420000075,m,0.7740598000236787,948.378461699991,948.378461699991,84,2.552,,,,,sub-060,55,90,700,bloc_loop.csv,2023-10-19_09h26.37.210,PainUncertainty,2022.2.5,143.8430844133359,
aigu,forte,stimuli/660Hz,stimuli/forte,bloc_3,prob80hthp_12trials.xlsx,2,24,80,20,0,,,,,0,2,2,2,1,3,15,7,,,,,,,,3.2,948.378461699991,951.5834067999967,951.5835861599829,0.30482339998707175,952.027690500021,952.027690500021,m,0.7431667000055313,955.7158352999832,955.7158352999832,85,2.865,,,,,sub-060,55,90,700,bloc_loop.csv,2023-10-19_09h26.37.210,PainUncertainty,2022.2.5,143.8430844133359,
grave,moderee,stimuli/330Hz,stimuli/moderee,bloc_3,prob80hthp_12trials.xlsx,2,24,80,20,0,,,,,0,2,2,2,1,4,16,1,,,,,,,,4.2,955.7158352999832,959.9184581000009,959.9181204600085,0.3064531999989413,960.3672623999882,960.3672623999882,n,0.8872858000104316,963.2256346999784,963.2256346999784,9,1.906,,,,,sub-060,55,90,700,bloc_loop.csv,2023-10-19_09h26.37.210,PainUncertainty,2022.2.5,143.8430844133359,
grave,moderee,stimuli/330Hz,stimuli/moderee,bloc_3,prob80hthp_12trials.xlsx,2,24,80,20,0,,,,,0,2,2,2,1,5,17,3,,,,,,,,4.1,963.2256346999784,967.3284181000199,967.3285546599712,0.29948779998812824,967.7715274000075,967.7715274000075,n,0.7499152999953367,973.5656987000257,973.5656987000257,7,4.984,,,,,sub-060,55,90,700,bloc_loop.csv,2023-10-19_09h26.37.210,PainUncertainty,2022.2.5,143.8430844133359,
aigu,moderee,stimuli/660Hz,stimuli/moderee,bloc_3,prob80hthp_12trials.xlsx,2,24,80,20,0,,,,,0,2,2,2,1,6,18,11,,,,,,,,4.4,973.5656987000257,977.968472699984,977.9684700599813,0.3055317000253126,978.418067999999,978.418067999999,n,0.7491435999982059,983.7299494000035,983.7299494000035,5,4.509,,,,,sub-060,55,90,700,bloc_loop.csv,2023-10-19_09h26.37.210,PainUncertainty,2022.2.5,143.8430844133359,
grave,moderee,stimuli/330Hz,stimuli/moderee,bloc_3,prob80hthp_12trials.xlsx,2,24,80,20,0,,,,,0,2,2,2,1,7,19,4,,,,,,,,4.2,983.7299494000035,987.9353297000052,987.9349050599907,0.3048471999936737,988.3791348999948,988.3791348999948,n,0.6876756999990903,990.9874761999818,990.9874761999818,8,1.844,,,,,sub-060,55,90,700,bloc_loop.csv,2023-10-19_09h26.37.210,PainUncertainty,2022.2.5,143.8430844133359,
grave,forte,stimuli/330Hz,stimuli/forte,bloc_3,prob80hthp_12trials.xlsx,2,24,80,20,0,,,,,0,2,2,2,1,8,20,5,,,,,,,,4.2,990.9874761999818,995.1927894999972,995.1930076599878,0.30057749996194616,995.6370990999858,995.6370990999858,m,0.7326095000025816,997.7796306000091,997.7796306000091,80,1.344,,,,,sub-060,55,90,700,bloc_loop.csv,2023-10-19_09h26.37.210,PainUncertainty,2022.2.5,143.8430844133359,
aigu,forte,stimuli/660Hz,stimuli/forte,bloc_3,prob80hthp_12trials.xlsx,2,24,80,20,0,,,,,0,2,2,2,1,9,21,8,,,,,,,,4.7,997.7796306000091,1002.4853571999702,1002.4854187599907,0.30557269998826087,1002.9343015999766,1002.9343015999766,m,1.0229870999464765,1006.3138444999931,1006.3138444999931,83,2.282,,,,,sub-060,55,90,700,bloc_loop.csv,2023-10-19_09h26.37.210,PainUncertainty,2022.2.5,143.8430844133359,
grave,moderee,stimuli/330Hz,stimuli/moderee,bloc_3,prob80hthp_12trials.xlsx,2,24,80,20,0,,,,,0,2,2,2,1,10,22,0,,,,,,,,3.2,1006.3138444999931,1009.5140038999962,1009.5142102600133,0.30501000001095235,1009.9583467000048,1009.9583467000048,n,0.661088099994231,1015.0238715999876,1015.0238715999876,11,4.324,,,,,sub-060,55,90,700,bloc_loop.csv,2023-10-19_09h26.37.210,PainUncertainty,2022.2.5,143.8430844133359,
aigu,forte,stimuli/660Hz,stimuli/forte,bloc_3,prob80hthp_12trials.xlsx,2,24,80,20,0,,,,,0,2,2,2,1,11,23,10,,,,,,,,4.3,1015.0238715999876,1019.3278946999926,1019.3279012600018,0.3049518000334501,1019.7718546999968,1019.7718546999968,m,0.6383268000208773,1023.751401400019,1023.751401400019,84,3.259,,,,,sub-060,55,90,700,bloc_loop.csv,2023-10-19_09h26.37.210,PainUncertainty,2022.2.5,143.8430844133359,
grave,moderee,stimuli/330Hz,stimuli/moderee,bloc_4,prob50_50_4trials.xlsx,2,8,50,50,1,,,,,0,3,3,3,0,0,0,0,,,,,,,,3.9,1023.751401400019,1027.6551288000192,1027.6551161599987,0.3055913000134751,1028.1044031999772,1028.1044031999772,n,0.9112336999969557,1030.8619718999835,1030.8619718999835,7,1.783,,,,,sub-060,55,90,700,bloc_loop.csv,2023-10-19_09h26.37.210,PainUncertainty,2022.2.5,143.8430844133359,
aigu,moderee,stimuli/660Hz,stimuli/moderee,bloc_4,prob50_50_4trials.xlsx,2,8,50,50,1,,,,,0,3,3,3,0,1,1,2,,,,,,,,3.5,1030.8619718999835,1034.364528200007,1034.36450705998,0.30064660002244636,1034.808973599982,1034.808973599982,n,0.6341265999944881,1036.8723557000048,1036.8723557000048,9,1.344,,,,,sub-060,55,90,700,bloc_loop.csv,2023-10-19_09h26.37.210,PainUncertainty,2022.2.5,143.8430844133359,
grave,forte,stimuli/330Hz,stimuli/forte,bloc_4,prob50_50_4trials.xlsx,2,8,50,50,1,,,,,0,3,3,3,0,2,2,1,,,,,,,,4.1,1036.8723557000048,1040.9759930999717,1040.976072660013,0.3054896999965422,1041.4241068999982,1041.4241068999982,n,1.997531600005459,1044.8122291999753,1044.8122291999753,10,1.337,,,,,sub-060,55,90,700,bloc_loop.csv,2023-10-19_09h26.37.210,PainUncertainty,2022.2.5,143.8430844133359,
aigu,forte,stimuli/660Hz,stimuli/forte,bloc_4,prob50_50_4trials.xlsx,2,8,50,50,1,,,,,0,3,3,3,0,3,3,3,,,,,,,,4.2,1044.8122291999753,1049.0122051999788,1049.0121087600187,0.30055450001964346,1049.4563768000226,1049.4563768000226,m,1.071319799986668,1054.4667714000097,1054.4667714000097,87,3.865,,,,,sub-060,55,90,700,bloc_loop.csv,2023-10-19_09h26.37.210,PainUncertainty,2022.2.5,143.8430844133359,
aigu,moderee,stimuli/660Hz,stimuli/moderee,bloc_4,prob50_50_4trials.xlsx,2,8,50,50,1,,,,,0,3,3,3,1,0,4,2,,,,,,,,5,1054.4667714000097,1059.4643646000186,1059.4659494599969,0.3037453000433743,1059.9090461999876,1059.9090461999876,n,1.6298799000214785,1064.6794074000209,1064.6794074000209,7,3.06,,,,,sub-060,55,90,700,bloc_loop.csv,2023-10-19_09h26.37.210,PainUncertainty,2022.2.5,143.8430844133359,
grave,forte,stimuli/330Hz,stimuli/forte,bloc_4,prob50_50_4trials.xlsx,2,8,50,50,1,,,,,0,3,3,3,1,1,5,1,,,,,,,,3.1,1064.6794074000209,1067.7846926000202,1067.7846958600044,0.3056720999884419,1068.2335756000248,1068.2335756000248,m,0.9226694999961182,1071.1354842999717,1071.1354842999717,84,1.906,,,,,sub-060,55,90,700,bloc_loop.csv,2023-10-19_09h26.37.210,PainUncertainty,2022.2.5,143.8430844133359,
grave,moderee,stimuli/330Hz,stimuli/moderee,bloc_4,prob50_50_4trials.xlsx,2,8,50,50,1,,,,,0,3,3,3,1,2,6,0,,,,,,,,3.1,1071.1354842999717,1074.237301999994,1074.237489859987,0.305054199998267,1074.6853796999785,1074.6853796999785,n,0.8475985999684781,1078.9520158999949,1078.9520158999949,10,3.336,,,,,sub-060,55,90,700,bloc_loop.csv,2023-10-19_09h26.37.210,PainUncertainty,2022.2.5,143.8430844133359,
aigu,forte,stimuli/660Hz,stimuli/forte,bloc_4,prob50_50_4trials.xlsx,2,8,50,50,1,,,,,0,3,3,3,1,3,7,3,,,,,,,,4.1,1078.9520158999949,1083.0572880000109,1083.0573383600045,0.30514040001435205,1083.5015005000168,1083.5015005000168,m,0.7948982000234537,1089.3686806000187,1089.3686806000187,85,3.037,,,,,sub-060,55,90,700,bloc_loop.csv,2023-10-19_09h26.37.210,PainUncertainty,2022.2.5,143.8430844133359,
,,,,bloc_4,prob50_50_4trials.xlsx,2,8,50,50,1,,,,,0,3,3,3,,,,,0,0,0,0,,,,,,,,,,,,,,,,,1089.3686806000187,1124.361071899999,,,sub-060,55,90,700,bloc_loop.csv,2023-10-19_09h26.37.210,PainUncertainty,2022.2.5,143.8430844133359,
grave,moderee,stimuli/330Hz,stimuli/moderee,bloc_5,prob20hthp_12trials.xlsx,2,24,20,80,0,,,,,0,4,4,4,0,0,0,5,,,,,,,,4.8,1126.482338199974,1131.2853266000166,1131.285517059971,0.30484210001304746,1131.7296228000196,1131.7296228000196,n,0.7951243999996223,1135.9410009999992,1135.9410009999992,7,3.358,,,,,sub-060,55,90,700,bloc_loop.csv,2023-10-19_09h26.37.210,PainUncertainty,2022.2.5,143.8430844133359,
aigu,moderee,stimuli/660Hz,stimuli/moderee,bloc_5,prob20hthp_12trials.xlsx,2,24,20,80,0,,,,,0,4,4,4,0,1,1,6,,,,,,,,3.2,1135.9410009999992,1139.140471199993,1139.1404383599934,0.2992009000154212,1139.5791984000243,1139.5791984000243,n,0.5758982999832369,1141.2482971000136,1141.2482971000136,10,1.017,,,,,sub-060,55,90,700,bloc_loop.csv,2023-10-19_09h26.37.210,PainUncertainty,2022.2.5,143.8430844133359,
grave,forte,stimuli/330Hz,stimuli/forte,bloc_5,prob20hthp_12trials.xlsx,2,24,20,80,0,,,,,0,4,4,4,0,2,2,1,,,,,,,,4,1141.2482971000136,1145.2521332000033,1145.252226559975,0.30109349999111146,1145.696924399992,1145.696924399992,n,0.6672343999962322,1150.295073300018,1150.295073300018,7,3.851,,,,,sub-060,55,90,700,bloc_loop.csv,2023-10-19_09h26.37.210,PainUncertainty,2022.2.5,143.8430844133359,
aigu,moderee,stimuli/660Hz,stimuli/moderee,bloc_5,prob20hthp_12trials.xlsx,2,24,20,80,0,,,,,0,4,4,4,0,3,3,7,,,,,,,,4.5,1150.295073300018,1154.7949178999988,1154.7949428599736,0.30511730001308024,1155.24636499997,1155.24636499997,n,1.5786827999982052,1160.0583226999734,1160.0583226999734,8,3.177,,,,,sub-060,55,90,700,bloc_loop.csv,2023-10-19_09h26.37.210,PainUncertainty,2022.2.5,143.8430844133359,
aigu,moderee,stimuli/660Hz,stimuli/moderee,bloc_5,prob20hthp_12trials.xlsx,2,24,20,80,0,,,,,0,4,4,4,0,4,4,9,,,,,,,,4.4,1160.0583226999734,1164.4561899999972,1164.4573227600254,0.2993152000126429,1164.9007428999757,1164.9007428999757,n,0.6006478000199422,1168.2235391999711,1168.2235391999711,8,2.664,,,,,sub-060,55,90,700,bloc_loop.csv,2023-10-19_09h26.37.210,PainUncertainty,2022.2.5,143.8430844133359,
aigu,moderee,stimuli/660Hz,stimuli/moderee,bloc_5,prob20hthp_12trials.xlsx,2,24,20,80,0,,,,,0,4,4,4,0,5,5,10,,,,,,,,3.1,1168.2235391999711,1171.3246538999956,1171.3246668599954,0.30519210000056773,1171.7695391000016,1171.7695391000016,n,0.49080480000702664,1175.3374987000134,1175.3374987000134,6,2.996,,,,,sub-060,55,90,700,bloc_loop.csv,2023-10-19_09h26.37.210,PainUncertainty,2022.2.5,143.8430844133359,
aigu,forte,stimuli/660Hz,stimuli/forte,bloc_5,prob20hthp_12trials.xlsx,2,24,20,80,0,,,,,0,4,4,4,0,6,6,11,,,,,,,,3.5,1175.3374987000134,1178.839923600026,1178.83989995998,0.3050236999988556,1179.2840160999913,1179.2840160999913,m,0.7925453000352718,1181.6016884000273,1181.6016884000273,90,1.454,,,,,sub-060,55,90,700,bloc_loop.csv,2023-10-19_09h26.37.210,PainUncertainty,2022.2.5,143.8430844133359,
grave,forte,stimuli/330Hz,stimuli/forte,bloc_5,prob20hthp_12trials.xlsx,2,24,20,80,0,,,,,0,4,4,4,0,7,7,2,,,,,,,,4.3,1181.6016884000273,1185.9028779999935,1185.9029546600127,0.3048337000072934,1186.3471333999769,1186.3471333999769,n,1.4929454999510199,1189.1917712999857,1189.1917712999857,16,1.301,,,,,sub-060,55,90,700,bloc_loop.csv,2023-10-19_09h26.37.210,PainUncertainty,2022.2.5,143.8430844133359,
grave,forte,stimuli/330Hz,stimuli/forte,bloc_5,prob20hthp_12trials.xlsx,2,24,20,80,0,,,,,0,4,4,4,0,8,8,3,,,,,,,,3.6,1189.1917712999857,1192.7924094999908,1192.7925335600216,0.3054538000142202,1193.2422861999949,1193.2422861999949,m,0.684717099997215,1197.6008177999756,1197.6008177999756,78,3.6,,,,,sub-060,55,90,700,bloc_loop.csv,2023-10-19_09h26.37.210,PainUncertainty,2022.2.5,143.8430844133359,
aigu,moderee,stimuli/660Hz,stimuli/moderee,bloc_5,prob20hthp_12trials.xlsx,2,24,20,80,0,,,,,0,4,4,4,0,9,9,8,,,,,,,,3.8,1197.6008177999756,1201.4049581,1201.4049538599852,0.30529619997832924,1201.8515801000176,1201.8515801000176,n,0.6515389999840409,1203.6246812000172,1203.6246812000172,10,1.044,,,,,sub-060,55,90,700,bloc_loop.csv,2023-10-19_09h26.37.210,PainUncertainty,2022.2.5,143.8430844133359,
grave,forte,stimuli/330Hz,stimuli/forte,bloc_5,prob20hthp_12trials.xlsx,2,24,20,80,0,,,,,0,4,4,4,0,10,10,0,,,,,,,,3.4,1203.6246812000172,1207.03026889998,1207.030468760006,0.30160019994946197,1207.4749145000242,1207.4749145000242,m,0.6075770999887027,1213.8364383999724,1213.8364383999724,79,5.699,,,,,sub-060,55,90,700,bloc_loop.csv,2023-10-19_09h26.37.210,PainUncertainty,2022.2.5,143.8430844133359,
grave,forte,stimuli/330Hz,stimuli/forte,bloc_5,prob20hthp_12trials.xlsx,2,24,20,80,0,,,,,0,4,4,4,0,11,11,4,,,,,,,,4.9,1213.8364383999724,1218.7403200999834,1218.7403329599824,0.30476989998715,1219.1841500999872,1219.1841500999872,m,0.7726371000171639,1224.5771532999934,1224.5771532999934,86,4.559,,,,,sub-060,55,90,700,bloc_loop.csv,2023-10-19_09h26.37.210,PainUncertainty,2022.2.5,143.8430844133359,
aigu,forte,stimuli/660Hz,stimuli/forte,bloc_5,prob20hthp_12trials.xlsx,2,24,20,80,0,,,,,0,4,4,4,1,0,12,11,,,,,,,,4.9,1224.5771532999934,1229.4773132000118,1229.4774099600095,0.3050857000052929,1229.9215039000264,1229.9215039000264,n,0.8716970999957994,1235.9077363000251,1235.9077363000251,81,5.046,,,,,sub-060,55,90,700,bloc_loop.csv,2023-10-19_09h26.37.210,PainUncertainty,2022.2.5,143.8430844133359,
aigu,moderee,stimuli/660Hz,stimuli/moderee,bloc_5,prob20hthp_12trials.xlsx,2,24,20,80,0,,,,,0,4,4,4,1,1,13,7,,,,,,,,4.9,1235.9077363000251,1240.8125493000261,1240.812513760006,0.3006988999550231,1241.2566004000255,1241.2566004000255,n,0.7553206000011414,1245.273651800002,1245.273651800002,9,3.184,,,,,sub-060,55,90,700,bloc_loop.csv,2023-10-19_09h26.37.210,PainUncertainty,2022.2.5,143.8430844133359,
grave,forte,stimuli/330Hz,stimuli/forte,bloc_5,prob20hthp_12trials.xlsx,2,24,20,80,0,,,,,0,4,4,4,1,2,14,1,,,,,,,,4.4,1245.273651800002,1249.6742781000212,1249.6742846599723,0.30539629998384044,1250.1225925000035,1250.1225925000035,m,0.902467500010971,1253.3600781999994,1253.3600781999994,75,2.254,,,,,sub-060,55,90,700,bloc_loop.csv,2023-10-19_09h26.37.210,PainUncertainty,2022.2.5,143.8430844133359,
aigu,moderee,stimuli/660Hz,stimuli/moderee,bloc_5,prob20hthp_12trials.xlsx,2,24,20,80,0,,,,,0,4,4,4,1,3,15,8,,,,,,,,3.5,1253.3600781999994,1256.8627524999902,1256.8627373600089,0.3050093000056222,1257.3140402999707,1257.3140402999707,n,0.7380188999813981,1261.5418969999882,1261.5418969999882,10,3.427,,,,,sub-060,55,90,700,bloc_loop.csv,2023-10-19_09h26.37.210,PainUncertainty,2022.2.5,143.8430844133359,
aigu,moderee,stimuli/660Hz,stimuli/moderee,bloc_5,prob20hthp_12trials.xlsx,2,24,20,80,0,,,,,0,4,4,4,1,4,16,6,,,,,,,,4.9,1261.5418969999882,1266.4469651000109,1266.447093160014,0.306892600026913,1266.8989781999844,1266.8989781999844,n,0.6338698000181466,1272.8272987999953,1272.8272987999953,9,5.22,,,,,sub-060,55,90,700,bloc_loop.csv,2023-10-19_09h26.37.210,PainUncertainty,2022.2.5,143.8430844133359,
grave,forte,stimuli/330Hz,stimuli/forte,bloc_5,prob20hthp_12trials.xlsx,2,24,20,80,0,,,,,0,4,4,4,1,5,17,0,,,,,,,,3.9,1272.8272987999953,1276.7331377000082,1276.7330481599843,0.3067037999862805,1277.1847458999837,1277.1847458999837,m,1.0123235000064597,1279.7785955999861,1279.7785955999861,72,1.504,,,,,sub-060,55,90,700,bloc_loop.csv,2023-10-19_09h26.37.210,PainUncertainty,2022.2.5,143.8430844133359,
grave,moderee,stimuli/330Hz,stimuli/moderee,bloc_5,prob20hthp_12trials.xlsx,2,24,20,80,0,,,,,0,4,4,4,1,6,18,5,,,,,,,,3.8,1279.7785955999861,1283.581325599982,1283.581337159971,0.30492089997278526,1284.0252918999759,1284.0252918999759,n,0.7002785999793559,1290.0070517999702,1290.0070517999702,10,5.206,,,,,sub-060,55,90,700,bloc_loop.csv,2023-10-19_09h26.37.210,PainUncertainty,2022.2.5,143.8430844133359,
grave,forte,stimuli/330Hz,stimuli/forte,bloc_5,prob20hthp_12trials.xlsx,2,24,20,80,0,,,,,0,4,4,4,1,7,19,2,,,,,,,,5,1290.0070517999702,1295.0129073999706,1295.0128247599991,0.3052230999455787,1295.4571551000117,1295.4571551000117,m,0.7071028999635018,1299.2920212000026,1299.2920212000026,87,3.046,,,,,sub-060,55,90,700,bloc_loop.csv,2023-10-19_09h26.37.210,PainUncertainty,2022.2.5,143.8430844133359,
aigu,moderee,stimuli/660Hz,stimuli/moderee,bloc_5,prob20hthp_12trials.xlsx,2,24,20,80,0,,,,,0,4,4,4,1,8,20,9,,,,,,,,3.7,1299.2920212000026,1302.9930000000168,1302.9930640599982,0.3050240999436937,1303.437168799981,1303.437168799981,n,0.8288811999955215,1308.5296169000212,1308.5296169000212,11,4.2,,,,,sub-060,55,90,700,bloc_loop.csv,2023-10-19_09h26.37.210,PainUncertainty,2022.2.5,143.8430844133359,
aigu,moderee,stimuli/660Hz,stimuli/moderee,bloc_5,prob20hthp_12trials.xlsx,2,24,20,80,0,,,,,0,4,4,4,1,9,21,10,,,,,,,,3.1,1308.5296169000212,1311.6328963999986,1311.6329738600239,0.3049847999936901,1312.0771239000023,1312.0771239000023,n,2.2422549999901094,1317.687140199996,1317.687140199996,6,3.288,,,,,sub-060,55,90,700,bloc_loop.csv,2023-10-19_09h26.37.210,PainUncertainty,2022.2.5,143.8430844133359,
grave,forte,stimuli/330Hz,stimuli/forte,bloc_5,prob20hthp_12trials.xlsx,2,24,20,80,0,,,,,0,4,4,4,1,10,22,4,,,,,,,,3.8,1317.687140199996,1321.4881833000109,1321.4882555599966,0.3049337000120431,1321.9324455999886,1321.9324455999886,m,1.1920535000390373,1325.90161120001,1325.90161120001,41,2.713,,,,,sub-060,55,90,700,bloc_loop.csv,2023-10-19_09h26.37.210,PainUncertainty,2022.2.5,143.8430844133359,
grave,forte,stimuli/330Hz,stimuli/forte,bloc_5,prob20hthp_12trials.xlsx,2,24,20,80,0,,,,,0,4,4,4,1,11,23,3,,,,,,,,4.3,1325.90161120001,1330.2050377000123,1330.2049085599779,0.29946429998381063,1330.6473952999804,1330.6473952999804,m,0.6265186000382528,1335.009703000018,1335.009703000018,84,3.677,,,,,sub-060,55,90,700,bloc_loop.csv,2023-10-19_09h26.37.210,PainUncertainty,2022.2.5,143.8430844133359,
grave,forte,stimuli/330Hz,stimuli/forte,bloc_6,prob50_50_4trials.xlsx,2,8,50,50,0,,,,,0,5,5,5,0,0,0,1,,,,,,,,4.4,1335.009703000018,1339.4139111000113,1339.4139604599973,0.3047824999666773,1339.8585529000266,1339.8585529000266,m,0.8805313999764621,1342.9368191999965,1342.9368191999965,84,2.144,,,,,sub-060,55,90,700,bloc_loop.csv,2023-10-19_09h26.37.210,PainUncertainty,2022.2.5,143.8430844133359,
aigu,forte,stimuli/660Hz,stimuli/forte,bloc_6,prob50_50_4trials.xlsx,2,8,50,50,0,,,,,0,5,5,5,0,1,1,3,,,,,,,,4.2,1342.9368191999965,1347.137005699973,1347.1370901599935,0.3055706999730319,1347.5843240999966,1347.5843240999966,m,0.7036949000321329,1349.9384825999732,1349.9384825999732,83,1.573,,,,,sub-060,55,90,700,bloc_loop.csv,2023-10-19_09h26.37.210,PainUncertainty,2022.2.5,143.8430844133359,
aigu,moderee,stimuli/660Hz,stimuli/moderee,bloc_6,prob50_50_4trials.xlsx,2,8,50,50,0,,,,,0,5,5,5,0,2,2,2,,,,,,,,4.5,1349.9384825999732,1354.4436117999721,1354.44357995998,0.3053607000038028,1354.8922993000015,1354.8922993000015,n,0.9076578000094742,1359.8285629000165,1359.8285629000165,4,3.976,,,,,sub-060,55,90,700,bloc_loop.csv,2023-10-19_09h26.37.210,PainUncertainty,2022.2.5,143.8430844133359,
grave,moderee,stimuli/330Hz,stimuli/moderee,bloc_6,prob50_50_4trials.xlsx,2,8,50,50,0,,,,,0,5,5,5,0,3,3,0,,,,,,,,4.7,1359.8285629000165,1364.5281053999788,1364.5282209600032,0.305088400025852,1364.9723748000106,1364.9723748000106,n,0.9456215999671258,1369.6270292000263,1369.6270292000263,3,3.64,,,,,sub-060,55,90,700,bloc_loop.csv,2023-10-19_09h26.37.210,PainUncertainty,2022.2.5,143.8430844133359,
aigu,moderee,stimuli/660Hz,stimuli/moderee,bloc_6,prob50_50_4trials.xlsx,2,8,50,50,0,,,,,0,5,5,5,1,0,4,2,,,,,,,,4.4,1369.6270292000263,1374.0292639000108,1374.0293042599865,0.30480169999646023,1374.473440199974,1374.473440199974,n,0.6728411999647506,1377.3940332999919,1377.3940332999919,7,2.17,,,,,sub-060,55,90,700,bloc_loop.csv,2023-10-19_09h26.37.210,PainUncertainty,2022.2.5,143.8430844133359,
aigu,forte,stimuli/660Hz,stimuli/forte,bloc_6,prob50_50_4trials.xlsx,2,8,50,50,0,,,,,0,5,5,5,1,1,5,3,,,,,,,,4.3,1377.3940332999919,1381.69746689999,1381.69745826,0.30447740003000945,1382.1409233000013,1382.1409233000013,m,0.6878350999904796,1384.5861293000053,1384.5861293000053,84,1.677,,,,,sub-060,55,90,700,bloc_loop.csv,2023-10-19_09h26.37.210,PainUncertainty,2022.2.5,143.8430844133359,
grave,moderee,stimuli/330Hz,stimuli/moderee,bloc_6,prob50_50_4trials.xlsx,2,8,50,50,0,,,,,0,5,5,5,1,2,6,0,,,,,,,,5,1384.5861293000053,1389.5871081000078,1389.5871683600185,0.30502299999352545,1390.0356108999695,1390.0356108999695,n,0.8188814999884926,1391.8735109000118,1391.8735109000118,10,0.948,,,,,sub-060,55,90,700,bloc_loop.csv,2023-10-19_09h26.37.210,PainUncertainty,2022.2.5,143.8430844133359,
grave,forte,stimuli/330Hz,stimuli/forte,bloc_6,prob50_50_4trials.xlsx,2,8,50,50,0,,,,,0,5,5,5,1,3,7,1,,,,,,,,3.2,1391.8735109000118,1395.0732519999729,1395.073226659972,0.3052035000291653,1395.5173558000242,1395.5173558000242,m,0.6590951000107452,1398.3310024000239,1398.3310024000239,86,2.081,,,,,sub-060,55,90,700,bloc_loop.csv,2023-10-19_09h26.37.210,PainUncertainty,2022.2.5,143.8430844133359,
grave,moderee,stimuli/330Hz,stimuli/moderee,bloc_7,prob80hthp_12trials.xlsx,2,24,80,20,1,,,,,0,6,6,6,0,0,0,4,,,,,,,,3.4,1398.3310024000239,1401.7338886000216,1401.7338475600177,0.30503990000579506,1402.1818303000182,1402.1818303000182,n,0.9020005000056699,1408.382684000011,1408.382684000011,7,5.22,,,,,sub-060,55,90,700,bloc_loop.csv,2023-10-19_09h26.37.210,PainUncertainty,2022.2.5,143.8430844133359,
aigu,forte,stimuli/660Hz,stimuli/forte,bloc_7,prob80hthp_12trials.xlsx,2,24,80,20,1,,,,,0,6,6,6,0,1,1,6,,,,,,,,4.7,1408.382684000011,1413.0823464000132,1413.0824425600063,0.3050885000266135,1413.530176499975,1413.530176499975,m,1.8383032999699935,1416.9335013999953,1416.9335013999953,90,1.483,,,,,sub-060,55,90,700,bloc_loop.csv,2023-10-19_09h26.37.210,PainUncertainty,2022.2.5,143.8430844133359,
aigu,moderee,stimuli/660Hz,stimuli/moderee,bloc_7,prob80hthp_12trials.xlsx,2,24,80,20,1,,,,,0,6,6,6,0,2,2,11,,,,,,,,4.2,1416.9335013999953,1421.1387709000264,1421.1388461599768,0.3054244000231847,1421.5874710999778,1421.5874710999778,n,0.8936678999452852,1427.337924099993,1427.337924099993,4,4.788,,,,,sub-060,55,90,700,bloc_loop.csv,2023-10-19_09h26.37.210,PainUncertainty,2022.2.5,143.8430844133359,
grave,moderee,stimuli/330Hz,stimuli/moderee,bloc_7,prob80hthp_12trials.xlsx,2,24,80,20,1,,,,,0,6,6,6,0,3,3,1,,,,,,,,3.2,1427.337924099993,1430.5427469999995,1430.5427144600021,0.3049151999875903,1430.9868450000067,1430.9868450000067,n,2.187294000003021,1436.7034355999785,1436.7034355999785,6,3.448,,,,,sub-060,55,90,700,bloc_loop.csv,2023-10-19_09h26.37.210,PainUncertainty,2022.2.5,143.8430844133359,
aigu,forte,stimuli/660Hz,stimuli/forte,bloc_7,prob80hthp_12trials.xlsx,2,24,80,20,1,,,,,0,6,6,6,0,4,4,7,,,,,,,,4.6,1436.7034355999785,1441.3082269000006,1441.308168259979,0.30528359999880195,1441.754360800027,1441.754360800027,m,1.3648864999995567,1445.1879756000126,1445.1879756000126,78,2.018,,,,,sub-060,55,90,700,bloc_loop.csv,2023-10-19_09h26.37.210,PainUncertainty,2022.2.5,143.8430844133359,
aigu,forte,stimuli/660Hz,stimuli/forte,bloc_7,prob80hthp_12trials.xlsx,2,24,80,20,1,,,,,0,6,6,6,0,5,5,8,,,,,,,,3.7,1445.1879756000126,1448.8926131000044,1448.892081059987,0.3054633000283502,1449.3387525000144,1449.3387525000144,m,1.6286370999878272,1455.6238235000055,1455.6238235000055,86,4.609,,,,,sub-060,55,90,700,bloc_loop.csv,2023-10-19_09h26.37.210,PainUncertainty,2022.2.5,143.8430844133359,
aigu,forte,stimuli/660Hz,stimuli/forte,bloc_7,prob80hthp_12trials.xlsx,2,24,80,20,1,,,,,0,6,6,6,0,6,6,10,,,,,,,,4.6,1455.6238235000055,1460.226809100015,1460.2269046600036,0.3065273000393063,1460.6763171000057,1460.6763171000057,m,2.0198892999906093,1464.5589849000098,1464.5589849000098,61,1.785,,,,,sub-060,55,90,700,bloc_loop.csv,2023-10-19_09h26.37.210,PainUncertainty,2022.2.5,143.8430844133359,
grave,moderee,stimuli/330Hz,stimuli/moderee,bloc_7,prob80hthp_12trials.xlsx,2,24,80,20,1,,,,,0,6,6,6,0,7,7,3,,,,,,,,4.3,1464.5589849000098,1468.8602504999726,1468.8599537600007,0.304982400033623,1469.304072399973,1469.304072399973,n,0.5090560999815352,1473.1734770999756,1473.1734770999756,11,3.281,,,,,sub-060,55,90,700,bloc_loop.csv,2023-10-19_09h26.37.210,PainUncertainty,2022.2.5,143.8430844133359,
aigu,forte,stimuli/660Hz,stimuli/forte,bloc_7,prob80hthp_12trials.xlsx,2,24,80,20,1,,,,,0,6,6,6,0,8,8,9,,,,,,,,4.2,1473.1734770999756,1477.3746677999734,1477.374777060008,0.30482890002895147,1477.818716800015,1477.818716800015,m,1.7653261999948882,1481.4833769000252,1481.4833769000252,84,1.823,,,,,sub-060,55,90,700,bloc_loop.csv,2023-10-19_09h26.37.210,PainUncertainty,2022.2.5,143.8430844133359,
grave,moderee,stimuli/330Hz,stimuli/moderee,bloc_7,prob80hthp_12trials.xlsx,2,24,80,20,1,,,,,0,6,6,6,0,9,9,2,,,,,,,,3.8,1481.4833769000252,1485.2856239000103,1485.2858224600263,0.3046586000127718,1485.7294744999963,1485.7294744999963,n,0.46025280002504587,1489.0120343000162,1489.0120343000162,10,2.747,,,,,sub-060,55,90,700,bloc_loop.csv,2023-10-19_09h26.37.210,PainUncertainty,2022.2.5,143.8430844133359,
grave,forte,stimuli/330Hz,stimuli/forte,bloc_7,prob80hthp_12trials.xlsx,2,24,80,20,1,,,,,0,6,6,6,0,10,10,5,,,,,,,,4.3,1489.0120343000162,1493.314301299979,1493.3144198600262,0.30518050002865493,1493.7627164999722,1493.7627164999722,m,1.8161361000384204,1500.4558934000088,1500.4558934000088,87,4.794,,,,,sub-060,55,90,700,bloc_loop.csv,2023-10-19_09h26.37.210,PainUncertainty,2022.2.5,143.8430844133359,
grave,moderee,stimuli/330Hz,stimuli/moderee,bloc_7,prob80hthp_12trials.xlsx,2,24,80,20,1,,,,,0,6,6,6,0,11,11,0,,,,,,,,3.4,1500.4558934000088,1503.8568732999847,1503.8569381599723,0.30793319997610524,1504.308648300008,1504.308648300008,n,0.8553340000216849,1507.8853995000245,1507.8853995000245,8,2.661,,,,,sub-060,55,90,700,bloc_loop.csv,2023-10-19_09h26.37.210,PainUncertainty,2022.2.5,143.8430844133359,
grave,moderee,stimuli/330Hz,stimuli/moderee,bloc_7,prob80hthp_12trials.xlsx,2,24,80,20,1,,,,,0,6,6,6,1,0,12,2,,,,,,,,3.2,1507.8853995000245,1511.0872949999757,1511.0872607600236,0.30497250001644716,1511.5312189999968,1511.5312189999968,n,0.8337077000178397,1514.647887900006,1514.647887900006,6,2.207,,,,,sub-060,55,90,700,bloc_loop.csv,2023-10-19_09h26.37.210,PainUncertainty,2022.2.5,143.8430844133359,
aigu,forte,stimuli/660Hz,stimuli/forte,bloc_7,prob80hthp_12trials.xlsx,2,24,80,20,1,,,,,0,6,6,6,1,1,13,7,,,,,,,,3.7,1514.647887900006,1518.3516989999916,1518.351788459992,0.305293100012932,1518.7997290000203,1518.7997290000203,m,0.6579770999960601,1522.7485416000127,1522.7485416000127,88,3.233,,,,,sub-060,55,90,700,bloc_loop.csv,2023-10-19_09h26.37.210,PainUncertainty,2022.2.5,143.8430844133359,
aigu,forte,stimuli/660Hz,stimuli/forte,bloc_7,prob80hthp_12trials.xlsx,2,24,80,20,1,,,,,0,6,6,6,1,2,14,9,,,,,,,,3.5,1522.7485416000127,1526.2484820000245,1526.24842665997,0.3053220000001602,1526.6969916999806,1526.6969916999806,n,0.6697821999550797,1531.3003823999898,1531.3003823999898,18,3.867,,,,,sub-060,55,90,700,bloc_loop.csv,2023-10-19_09h26.37.210,PainUncertainty,2022.2.5,143.8430844133359,
aigu,moderee,stimuli/660Hz,stimuli/moderee,bloc_7,prob80hthp_12trials.xlsx,2,24,80,20,1,,,,,0,6,6,6,1,3,15,11,,,,,,,,4.4,1531.3003823999898,1535.700990799989,1535.7009244600254,0.30520929995691404,1536.1452089999802,1536.1452089999802,n,0.8485779000329785,1539.8982880000258,1539.8982880000258,8,2.829,,,,,sub-060,55,90,700,bloc_loop.csv,2023-10-19_09h26.37.210,PainUncertainty,2022.2.5,143.8430844133359,
aigu,forte,stimuli/660Hz,stimuli/forte,bloc_7,prob80hthp_12trials.xlsx,2,24,80,20,1,,,,,0,6,6,6,1,4,16,10,,,,,,,,3.3,1539.8982880000258,1543.2017666000174,1543.20202956,0.3044608000200242,1543.645982099988,1543.645982099988,m,1.4202420000219718,1549.232036900008,1549.232036900008,85,4.109,,,,,sub-060,55,90,700,bloc_loop.csv,2023-10-19_09h26.37.210,PainUncertainty,2022.2.5,143.8430844133359,
aigu,forte,stimuli/660Hz,stimuli/forte,bloc_7,prob80hthp_12trials.xlsx,2,24,80,20,1,,,,,0,6,6,6,1,5,17,8,,,,,,,,3,1549.232036900008,1552.2375192000181,1552.2375944600267,0.3052765000029467,1552.6820854999823,1552.6820854999823,m,1.0547837999765761,1556.8247253000154,1556.8247253000154,87,3.011,,,,,sub-060,55,90,700,bloc_loop.csv,2023-10-19_09h26.37.210,PainUncertainty,2022.2.5,143.8430844133359,
grave,moderee,stimuli/330Hz,stimuli/moderee,bloc_7,prob80hthp_12trials.xlsx,2,24,80,20,1,,,,,0,6,6,6,1,6,18,1,,,,,,,,3.8,1556.8247253000154,1560.6279028999852,1560.627858760016,0.30509179999353364,1561.0752491999883,1561.0752491999883,n,0.5789484000415541,1563.1200367999845,1563.1200367999845,6,1.408,,,,,sub-060,55,90,700,bloc_loop.csv,2023-10-19_09h26.37.210,PainUncertainty,2022.2.5,143.8430844133359,
grave,moderee,stimuli/330Hz,stimuli/moderee,bloc_7,prob80hthp_12trials.xlsx,2,24,80,20,1,,,,,0,6,6,6,1,7,19,0,,,,,,,,4.2,1563.1200367999845,1567.3231124000158,1567.3241264600133,0.2999988999799825,1567.7672605999978,1567.7672605999978,n,0.733071300026495,1571.7519693999784,1571.7519693999784,5,3.185,,,,,sub-060,55,90,700,bloc_loop.csv,2023-10-19_09h26.37.210,PainUncertainty,2022.2.5,143.8430844133359,
grave,moderee,stimuli/330Hz,stimuli/moderee,bloc_7,prob80hthp_12trials.xlsx,2,24,80,20,1,,,,,0,6,6,6,1,8,20,3,,,,,,,,4.2,1571.7519693999784,1575.9556382999872,1575.9556466600102,0.30544960004044697,1576.4027541999822,1576.4027541999822,n,1.3163958999793977,1581.1149457999854,1581.1149457999854,9,3.336,,,,,sub-060,55,90,700,bloc_loop.csv,2023-10-19_09h26.37.210,PainUncertainty,2022.2.5,143.8430844133359,
grave,moderee,stimuli/330Hz,stimuli/moderee,bloc_7,prob80hthp_12trials.xlsx,2,24,80,20,1,,,,,0,6,6,6,1,9,21,4,,,,,,,,3,1581.1149457999854,1584.1163204999757,1584.116313860001,0.30537489999551326,1584.5610969000263,1584.5610969000263,n,0.5611478999489918,1589.731604999979,1589.731604999979,7,4.482,,,,,sub-060,55,90,700,bloc_loop.csv,2023-10-19_09h26.37.210,PainUncertainty,2022.2.5,143.8430844133359,
grave,forte,stimuli/330Hz,stimuli/forte,bloc_7,prob80hthp_12trials.xlsx,2,24,80,20,1,,,,,0,6,6,6,1,10,22,5,,,,,,,,4.8,1589.731604999979,1594.5342792000156,1594.5342793599762,0.3047451000311412,1594.9827111000195,1594.9827111000195,m,0.8895098000066355,1600.3260758999968,1600.3260758999968,85,4.394,,,,,sub-060,55,90,700,bloc_loop.csv,2023-10-19_09h26.37.210,PainUncertainty,2022.2.5,143.8430844133359,
aigu,forte,stimuli/660Hz,stimuli/forte,bloc_7,prob80hthp_12trials.xlsx,2,24,80,20,1,,,,,0,6,6,6,1,11,23,6,,,,,,,,3.1,1600.3260758999968,1603.4313012000057,1603.4312584599888,0.3050719000166282,1603.882617699972,1603.882617699972,m,0.7970490999869071,1609.4843354999903,1609.4843354999903,85,2.773,,,,,sub-060,55,90,700,bloc_loop.csv,2023-10-19_09h26.37.210,PainUncertainty,2022.2.5,143.8430844133359,
,,,,bloc_7,prob80hthp_12trials.xlsx,2,24,80,20,1,,,,,0,6,6,6,,,,,0,0,0,0,,,,,,,,,,,,,,,,,1609.4843354999903,1673.224065700022,,,sub-060,55,90,700,bloc_loop.csv,2023-10-19_09h26.37.210,PainUncertainty,2022.2.5,143.8430844133359,
grave,moderee,stimuli/330Hz,stimuli/moderee,bloc_8,prob50_50_4trials.xlsx,3,12,50,50,0,,,,,0,7,7,7,0,0,0,0,,,,,,,,4,1674.949425400002,1678.9541740000132,1678.9543466600066,0.2994639999815263,1679.395237300021,1679.395237300021,n,1.0456649999832734,1683.865888500004,1683.865888500004,9,3.358,,,,,sub-060,55,90,700,bloc_loop.csv,2023-10-19_09h26.37.210,PainUncertainty,2022.2.5,143.8430844133359,
aigu,moderee,stimuli/660Hz,stimuli/moderee,bloc_8,prob50_50_4trials.xlsx,3,12,50,50,0,,,,,0,7,7,7,0,1,1,2,,,,,,,,3.8,1683.865888500004,1687.6702226999914,1687.6702636599716,0.30474460002733395,1688.114496299997,1688.114496299997,n,0.6171519999625161,1692.2406439000042,1692.2406439000042,9,3.435,,,,,sub-060,55,90,700,bloc_loop.csv,2023-10-19_09h26.37.210,PainUncertainty,2022.2.5,143.8430844133359,
grave,forte,stimuli/330Hz,stimuli/forte,bloc_8,prob50_50_4trials.xlsx,3,12,50,50,0,,,,,0,7,7,7,0,2,2,1,,,,,,,,4,1692.2406439000042,1696.2410134000238,1696.241186160018,0.30113939999137074,1696.6854181999806,1696.6854181999806,m,0.8269318999955431,1699.175096800027,1699.175096800027,82,1.607,,,,,sub-060,55,90,700,bloc_loop.csv,2023-10-19_09h26.37.210,PainUncertainty,2022.2.5,143.8430844133359,
aigu,forte,stimuli/660Hz,stimuli/forte,bloc_8,prob50_50_4trials.xlsx,3,12,50,50,0,,,,,0,7,7,7,0,3,3,3,,,,,,,,4.6,1699.175096800027,1703.7761801999877,1703.7761683599733,0.30518010002560914,1704.2204282999737,1704.2204282999737,m,0.8628928000107408,1708.7159512999933,1708.7159512999933,86,3.582,,,,,sub-060,55,90,700,bloc_loop.csv,2023-10-19_09h26.37.210,PainUncertainty,2022.2.5,143.8430844133359,
aigu,forte,stimuli/660Hz,stimuli/forte,bloc_8,prob50_50_4trials.xlsx,3,12,50,50,0,,,,,0,7,7,7,1,0,4,3,,,,,,,,3.2,1708.7159512999933,1711.9160220000194,1711.9161330600095,0.30487469997024164,1712.3604510999867,1712.3604510999867,m,1.1431762999854982,1715.063233599998,1715.063233599998,83,1.482,,,,,sub-060,55,90,700,bloc_loop.csv,2023-10-19_09h26.37.210,PainUncertainty,2022.2.5,143.8430844133359,
grave,moderee,stimuli/330Hz,stimuli/moderee,bloc_8,prob50_50_4trials.xlsx,3,12,50,50,0,,,,,0,7,7,7,1,1,5,0,,,,,,,,4,1715.063233599998,1719.0627955999807,1719.0627347600007,0.30537670000921935,1719.5070515000261,1719.5070515000261,n,0.523331500007771,1722.4784113999922,1722.4784113999922,6,2.386,,,,,sub-060,55,90,700,bloc_loop.csv,2023-10-19_09h26.37.210,PainUncertainty,2022.2.5,143.8430844133359,
aigu,moderee,stimuli/660Hz,stimuli/moderee,bloc_8,prob50_50_4trials.xlsx,3,12,50,50,0,,,,,0,7,7,7,1,2,6,2,,,,,,,,4,1722.4784113999922,1726.4808140000096,1726.480999459984,0.30444370000623167,1726.92482939997,1726.92482939997,n,0.6426829000120051,1728.6800663999747,1728.6800663999747,10,1.031,,,,,sub-060,55,90,700,bloc_loop.csv,2023-10-19_09h26.37.210,PainUncertainty,2022.2.5,143.8430844133359,
grave,forte,stimuli/330Hz,stimuli/forte,bloc_8,prob50_50_4trials.xlsx,3,12,50,50,0,,,,,0,7,7,7,1,3,7,1,,,,,,,,4.6,1728.6800663999747,1733.2816991999862,1733.2801419600205,0.30171580001479015,1733.7247814000002,1733.7247814000002,m,1.1056588999927044,1737.96345879999,1737.96345879999,84,3.08,,,,,sub-060,55,90,700,bloc_loop.csv,2023-10-19_09h26.37.210,PainUncertainty,2022.2.5,143.8430844133359,
aigu,forte,stimuli/660Hz,stimuli/forte,bloc_8,prob50_50_4trials.xlsx,3,12,50,50,0,,,,,0,7,7,7,2,0,8,3,,,,,,,,5,1737.96345879999,1742.9684621000197,1742.9685098599934,0.30479849997209385,1743.412686399999,1743.412686399999,m,0.869831099989824,1746.1000011999859,1746.1000011999859,87,1.734,,,,,sub-060,55,90,700,bloc_loop.csv,2023-10-19_09h26.37.210,PainUncertainty,2022.2.5,143.8430844133359,
aigu,moderee,stimuli/660Hz,stimuli/moderee,bloc_8,prob50_50_4trials.xlsx,3,12,50,50,0,,,,,0,7,7,7,2,1,9,2,,,,,,,,4.6,1746.1000011999859,1750.6989994000178,1750.6990828599723,0.30530229996657,1751.147248400026,1751.147248400026,n,1.026303699996788,1753.8339333999902,1753.8339333999902,11,1.601,,,,,sub-060,55,90,700,bloc_loop.csv,2023-10-19_09h26.37.210,PainUncertainty,2022.2.5,143.8430844133359,
grave,moderee,stimuli/330Hz,stimuli/moderee,bloc_8,prob50_50_4trials.xlsx,3,12,50,50,0,,,,,0,7,7,7,2,2,10,0,,,,,,,,4.5,1753.8339333999902,1758.3384720999748,1758.3385589600134,0.30523950001224875,1758.7863378999755,1758.7863378999755,n,0.5532509999466129,1762.9294015999767,1762.9294015999767,9,3.503,,,,,sub-060,55,90,700,bloc_loop.csv,2023-10-19_09h26.37.210,PainUncertainty,2022.2.5,143.8430844133359,
grave,forte,stimuli/330Hz,stimuli/forte,bloc_8,prob50_50_4trials.xlsx,3,12,50,50,0,,,,,0,7,7,7,2,3,11,1,,,,,,,,4.3,1762.9294015999767,1767.2351523999823,1767.2351804599807,0.30559589999029413,1767.6849171000067,1767.6849171000067,m,0.9153382999938913,1770.60159939999,1770.60159939999,84,1.921,,,,,sub-060,55,90,700,bloc_loop.csv,2023-10-19_09h26.37.210,PainUncertainty,2022.2.5,143.8430844133359,
aigu,moderee,stimuli/660Hz,stimuli/moderee,bloc_9,prob20hthp_12trials.xlsx,3,36,80,20,0,,,,,0,8,8,8,0,0,0,7,,,,,,,,3.1,1770.60159939999,1773.7015607000212,1773.7015397599957,0.30496430001221597,1774.145474000019,1774.145474000019,n,0.7559191000182182,1779.1172433000174,1779.1172433000174,10,4.155,,,,,sub-060,55,90,700,bloc_loop.csv,2023-10-19_09h26.37.210,PainUncertainty,2022.2.5,143.8430844133359,
aigu,moderee,stimuli/660Hz,stimuli/moderee,bloc_9,prob20hthp_12trials.xlsx,3,36,80,20,0,,,,,0,8,8,8,0,1,1,9,,,,,,,,3.9,1779.1172433000174,1783.0219725000206,1783.0219704600227,0.3008492999942973,1783.466021500004,1783.466021500004,n,2.1683163000270724,1788.6594113999745,1788.6594113999745,9,2.941,,,,,sub-060,55,90,700,bloc_loop.csv,2023-10-19_09h26.37.210,PainUncertainty,2022.2.5,143.8430844133359,
grave,forte,stimuli/330Hz,stimuli/forte,bloc_9,prob20hthp_12trials.xlsx,3,36,80,20,0,,,,,0,8,8,8,0,2,2,0,,,,,,,,4,1788.6594113999745,1792.6615621999954,1792.661540460022,0.30552150000585243,1793.1060098999878,1793.1060098999878,m,1.9119245000183582,1798.6637068999698,1798.6637068999698,84,3.58,,,,,sub-060,55,90,700,bloc_loop.csv,2023-10-19_09h26.37.210,PainUncertainty,2022.2.5,143.8430844133359,
grave,forte,stimuli/330Hz,stimuli/forte,bloc_9,prob20hthp_12trials.xlsx,3,36,80,20,0,,,,,0,8,8,8,0,3,3,2,,,,,,,,4.5,1798.6637068999698,1803.1628040000214,1803.1629603600072,0.305042699968908,1803.6143812999944,1803.6143812999944,m,0.9194291000021622,1808.077640899981,1808.077640899981,85,3.468,,,,,sub-060,55,90,700,bloc_loop.csv,2023-10-19_09h26.37.210,PainUncertainty,2022.2.5,143.8430844133359,
aigu,moderee,stimuli/660Hz,stimuli/moderee,bloc_9,prob20hthp_12trials.xlsx,3,36,80,20,0,,,,,0,8,8,8,0,4,4,10,,,,,,,,5,1808.077640899981,1813.0808500999701,1813.0808153600142,0.2996114999987185,1813.5196953999694,1813.5196953999694,n,0.7036273999838158,1816.500145900005,1816.500145900005,9,2.206,,,,,sub-060,55,90,700,bloc_loop.csv,2023-10-19_09h26.37.210,PainUncertainty,2022.2.5,143.8430844133359,
grave,forte,stimuli/330Hz,stimuli/forte,bloc_9,prob20hthp_12trials.xlsx,3,36,80,20,0,,,,,0,8,8,8,0,5,5,1,,,,,,,,3.2,1816.500145900005,1819.6995903999778,1819.6997223600106,0.30494420003378764,1820.151071499975,1820.151071499975,m,0.8603761999984272,1822.2531896000146,1822.2531896000146,90,1.176,,,,,sub-060,55,90,700,bloc_loop.csv,2023-10-19_09h26.37.210,PainUncertainty,2022.2.5,143.8430844133359,
aigu,forte,stimuli/660Hz,stimuli/forte,bloc_9,prob20hthp_12trials.xlsx,3,36,80,20,0,,,,,0,8,8,8,0,6,6,11,,,,,,,,3.1,1822.2531896000146,1825.3530975999893,1825.353149559995,0.30473000003257766,1825.7974504000158,1825.7974504000158,m,0.950834000017494,1831.6527535999776,1831.6527535999776,89,4.829,,,,,sub-060,55,90,700,bloc_loop.csv,2023-10-19_09h26.37.210,PainUncertainty,2022.2.5,143.8430844133359,
aigu,moderee,stimuli/660Hz,stimuli/moderee,bloc_9,prob20hthp_12trials.xlsx,3,36,80,20,0,,,,,0,8,8,8,0,7,7,6,,,,,,,,4.9,1831.6527535999776,1836.5556448000134,1836.5557045600203,0.30518229998415336,1836.9998946000123,1836.9998946000123,n,0.6514059000182897,1840.1862153999973,1840.1862153999973,9,2.475,,,,,sub-060,55,90,700,bloc_loop.csv,2023-10-19_09h26.37.210,PainUncertainty,2022.2.5,143.8430844133359,
grave,moderee,stimuli/330Hz,stimuli/moderee,bloc_9,prob20hthp_12trials.xlsx,3,36,80,20,0,,,,,0,8,8,8,0,8,8,5,,,,,,,,4.1,1840.1862153999973,1844.2859228000161,1844.2860234599852,0.30527999997138977,1844.7306705000228,1844.7306705000228,n,0.6472514999913983,1847.7623916000011,1847.7623916000011,8,2.303,,,,,sub-060,55,90,700,bloc_loop.csv,2023-10-19_09h26.37.210,PainUncertainty,2022.2.5,143.8430844133359,
grave,forte,stimuli/330Hz,stimuli/forte,bloc_9,prob20hthp_12trials.xlsx,3,36,80,20,0,,,,,0,8,8,8,0,9,9,4,,,,,,,,3.8,1847.7623916000011,1851.5647629000014,1851.5647508599855,0.3053080000099726,1852.0126660999958,1852.0126660999958,m,0.6505784000037238,1856.712127899984,1856.712127899984,84,3.962,,,,,sub-060,55,90,700,bloc_loop.csv,2023-10-19_09h26.37.210,PainUncertainty,2022.2.5,143.8430844133359,
aigu,moderee,stimuli/660Hz,stimuli/moderee,bloc_9,prob20hthp_12trials.xlsx,3,36,80,20,0,,,,,0,8,8,8,0,10,10,8,,,,,,,,3.4,1856.712127899984,1860.113965000026,1860.1139472600248,0.3059448999701999,1860.563435900025,1860.563435900025,n,0.7154964999645017,1865.0056596000213,1865.0056596000213,10,3.649,,,,,sub-060,55,90,700,bloc_loop.csv,2023-10-19_09h26.37.210,PainUncertainty,2022.2.5,143.8430844133359,
grave,forte,stimuli/330Hz,stimuli/forte,bloc_9,prob20hthp_12trials.xlsx,3,36,80,20,0,,,,,0,8,8,8,0,11,11,3,,,,,,,,4.8,1865.0056596000213,1869.8097330000019,1869.809724760015,0.2990280000376515,1870.252839200024,1870.252839200024,m,1.5584800000069663,1873.286018099985,1873.286018099985,90,1.4,,,,,sub-060,55,90,700,bloc_loop.csv,2023-10-19_09h26.37.210,PainUncertainty,2022.2.5,143.8430844133359,
aigu,moderee,stimuli/660Hz,stimuli/moderee,bloc_9,prob20hthp_12trials.xlsx,3,36,80,20,0,,,,,0,8,8,8,1,0,12,6,,,,,,,,4.5,1873.286018099985,1877.7901428000187,1877.7900641600195,0.3052792999660596,1878.236425400013,1878.236425400013,n,0.6032449000049382,1882.7937899000244,1882.7937899000244,9,3.879,,,,,sub-060,55,90,700,bloc_loop.csv,2023-10-19_09h26.37.210,PainUncertainty,2022.2.5,143.8430844133359,
grave,forte,stimuli/330Hz,stimuli/forte,bloc_9,prob20hthp_12trials.xlsx,3,36,80,20,0,,,,,0,8,8,8,1,1,13,2,,,,,,,,3.7,1882.7937899000244,1886.4990137999994,1886.4991075599742,0.30524190003052354,1886.943306399975,1886.943306399975,m,0.9764033999526873,1890.7678427000064,1890.7678427000064,83,2.789,,,,,sub-060,55,90,700,bloc_loop.csv,2023-10-19_09h26.37.210,PainUncertainty,2022.2.5,143.8430844133359,
grave,forte,stimuli/330Hz,stimuli/forte,bloc_9,prob20hthp_12trials.xlsx,3,36,80,20,0,,,,,0,8,8,8,1,2,14,1,,,,,,,,4.9,1890.7678427000064,1895.6671102999826,1895.6672785600008,0.3048691999865696,1896.1112365999725,1896.1112365999725,m,0.8819307000376284,1899.0941955000162,1899.0941955000162,89,2.045,,,,,sub-060,55,90,700,bloc_loop.csv,2023-10-19_09h26.37.210,PainUncertainty,2022.2.5,143.8430844133359,
grave,forte,stimuli/330Hz,stimuli/forte,bloc_9,prob20hthp_12trials.xlsx,3,36,80,20,0,,,,,0,8,8,8,1,3,15,4,,,,,,,,4.6,1899.0941955000162,1903.6955755000236,1903.695678160008,0.3051162000047043,1904.1436857000226,1904.1436857000226,m,0.9617140999762341,1908.6068324000225,1908.6068324000225,79,3.434,,,,,sub-060,55,90,700,bloc_loop.csv,2023-10-19_09h26.37.210,PainUncertainty,2022.2.5,143.8430844133359,
grave,moderee,stimuli/330Hz,stimuli/moderee,bloc_9,prob20hthp_12trials.xlsx,3,36,80,20,0,,,,,0,8,8,8,1,4,16,5,,,,,,,,4.1,1908.6068324000225,1912.710801600013,1912.7108586599993,0.3049911999842152,1913.1546959999832,1913.1546959999832,n,0.7696314000058919,1916.3885892999824,1916.3885892999824,8,2.405,,,,,sub-060,55,90,700,bloc_loop.csv,2023-10-19_09h26.37.210,PainUncertainty,2022.2.5,143.8430844133359,
aigu,moderee,stimuli/660Hz,stimuli/moderee,bloc_9,prob20hthp_12trials.xlsx,3,36,80,20,0,,,,,0,8,8,8,1,5,17,7,,,,,,,,4.6,1916.3885892999824,1920.989437000011,1920.9892822600145,0.3051255999598652,1921.4333712999942,1921.4333712999942,n,1.2027862000395544,1926.3763550000149,1926.3763550000149,8,3.672,,,,,sub-060,55,90,700,bloc_loop.csv,2023-10-19_09h26.37.210,PainUncertainty,2022.2.5,143.8430844133359,
aigu,moderee,stimuli/660Hz,stimuli/moderee,bloc_9,prob20hthp_12trials.xlsx,3,36,80,20,0,,,,,0,8,8,8,1,6,18,9,,,,,,,,3.4,1926.3763550000149,1929.7772859000252,1929.7754656599777,0.3047826000256464,1930.2196198999882,1930.2196198999882,n,0.7844280000426807,1932.9308654000051,1932.9308654000051,11,1.865,,,,,sub-060,55,90,700,bloc_loop.csv,2023-10-19_09h26.37.210,PainUncertainty,2022.2.5,143.8430844133359,
aigu,moderee,stimuli/660Hz,stimuli/moderee,bloc_9,prob20hthp_12trials.xlsx,3,36,80,20,0,,,,,0,8,8,8,1,7,19,10,,,,,,,,3.4,1932.9308654000051,1936.3313315999694,1936.3314725600126,0.3053492000326514,1936.7783967999858,1936.7783967999858,n,0.7324369000270963,1939.179456599988,1939.179456599988,7,1.588,,,,,sub-060,55,90,700,bloc_loop.csv,2023-10-19_09h26.37.210,PainUncertainty,2022.2.5,143.8430844133359,
aigu,forte,stimuli/660Hz,stimuli/forte,bloc_9,prob20hthp_12trials.xlsx,3,36,80,20,0,,,,,0,8,8,8,1,8,20,11,,,,,,,,3.2,1939.179456599988,1942.38061990001,1942.3809276599845,0.30458270001690835,1942.8320581999724,1942.8320581999724,m,0.8440416999510489,1945.0916669999715,1945.0916669999715,90,1.351,,,,,sub-060,55,90,700,bloc_loop.csv,2023-10-19_09h26.37.210,PainUncertainty,2022.2.5,143.8430844133359,
grave,forte,stimuli/330Hz,stimuli/forte,bloc_9,prob20hthp_12trials.xlsx,3,36,80,20,0,,,,,0,8,8,8,1,9,21,0,,,,,,,,4,1945.0916669999715,1949.0967021000106,1949.0967050599925,0.30525969999143854,1949.540966200002,1949.540966200002,m,0.799298900004942,1953.9470966000226,1953.9470966000226,86,3.533,,,,,sub-060,55,90,700,bloc_loop.csv,2023-10-19_09h26.37.210,PainUncertainty,2022.2.5,143.8430844133359,
aigu,moderee,stimuli/660Hz,stimuli/moderee,bloc_9,prob20hthp_12trials.xlsx,3,36,80,20,0,,,,,0,8,8,8,1,10,22,8,,,,,,,,3.3,1953.9470966000226,1957.250897800026,1957.251040460024,0.30467879999196157,1957.6947967999731,1957.6947967999731,n,0.6293137999600731,1959.4758404999739,1959.4758404999739,10,1.073,,,,,sub-060,55,90,700,bloc_loop.csv,2023-10-19_09h26.37.210,PainUncertainty,2022.2.5,143.8430844133359,
grave,forte,stimuli/330Hz,stimuli/forte,bloc_9,prob20hthp_12trials.xlsx,3,36,80,20,0,,,,,0,8,8,8,1,11,23,3,,,,,,,,3.9,1959.4758404999739,1963.376962099981,1963.376893359999,0.3049775999970734,1963.8206576000084,1963.8206576000084,m,0.6738803000189364,1966.7941429999773,1966.7941429999773,84,2.244,,,,,sub-060,55,90,700,bloc_loop.csv,2023-10-19_09h26.37.210,PainUncertainty,2022.2.5,143.8430844133359,
grave,forte,stimuli/330Hz,stimuli/forte,bloc_9,prob20hthp_12trials.xlsx,3,36,80,20,0,,,,,0,8,8,8,2,0,24,2,,,,,,,,4.4,1966.7941429999773,1971.197057100013,1971.1969485600189,0.3049999000504613,1971.6409281999804,1971.6409281999804,m,0.7976804999634624,1978.3036850999924,1978.3036850999924,84,5.79,,,,,sub-060,55,90,700,bloc_loop.csv,2023-10-19_09h26.37.210,PainUncertainty,2022.2.5,143.8430844133359,
aigu,moderee,stimuli/660Hz,stimuli/moderee,bloc_9,prob20hthp_12trials.xlsx,3,36,80,20,0,,,,,0,8,8,8,2,1,25,8,,,,,,,,5,1978.3036850999924,1983.309152700007,1983.309141559998,0.3050727999652736,1983.7532659000135,1983.7532659000135,n,0.7212869999930263,1986.7265150999883,1986.7265150999883,9,2.169,,,,,sub-060,55,90,700,bloc_loop.csv,2023-10-19_09h26.37.210,PainUncertainty,2022.2.5,143.8430844133359,
grave,forte,stimuli/330Hz,stimuli/forte,bloc_9,prob20hthp_12trials.xlsx,3,36,80,20,0,,,,,0,8,8,8,2,2,26,3,,,,,,,,4.1,1986.7265150999883,1990.8309399000136,1990.8307956599806,0.30501240002922714,1991.2750109999906,1991.2750109999906,m,1.8285723000299186,1994.9707127999864,1994.9707127999864,79,1.81,,,,,sub-060,55,90,700,bloc_loop.csv,2023-10-19_09h26.37.210,PainUncertainty,2022.2.5,143.8430844133359,
grave,forte,stimuli/330Hz,stimuli/forte,bloc_9,prob20hthp_12trials.xlsx,3,36,80,20,0,,,,,0,8,8,8,2,3,27,1,,,,,,,,3.3,1994.9707127999864,1998.2760762000107,1998.2762015599933,0.304830800043419,1998.7206030000234,1998.7206030000234,m,0.6597907000104897,2001.0929876000155,2001.0929876000155,86,1.631,,,,,sub-060,55,90,700,bloc_loop.csv,2023-10-19_09h26.37.210,PainUncertainty,2022.2.5,143.8430844133359,
aigu,moderee,stimuli/660Hz,stimuli/moderee,bloc_9,prob20hthp_12trials.xlsx,3,36,80,20,0,,,,,0,8,8,8,2,4,28,10,,,,,,,,4.9,2001.0929876000155,2005.9924139999785,2005.9923567600258,0.3050508000305854,2006.4364262999734,2006.4364262999734,n,0.5762498999829404,2008.8911116999807,2008.8911116999807,11,1.808,,,,,sub-060,55,90,700,bloc_loop.csv,2023-10-19_09h26.37.210,PainUncertainty,2022.2.5,143.8430844133359,
grave,forte,stimuli/330Hz,stimuli/forte,bloc_9,prob20hthp_12trials.xlsx,3,36,80,20,0,,,,,0,8,8,8,2,5,29,0,,,,,,,,3.7,2008.8911116999807,2012.5903494000086,2012.590358759981,0.30219270003726706,2013.0353363999748,2013.0353363999748,m,0.6111446999711916,2015.3963688000222,2015.3963688000222,82,1.691,,,,,sub-060,55,90,700,bloc_loop.csv,2023-10-19_09h26.37.210,PainUncertainty,2022.2.5,143.8430844133359,
grave,forte,stimuli/330Hz,stimuli/forte,bloc_9,prob20hthp_12trials.xlsx,3,36,80,20,0,,,,,0,8,8,8,2,6,30,4,,,,,,,,4.9,2015.3963688000222,2020.299557099992,2020.2996131599707,0.30291850003413856,2020.7442457000143,2020.7442457000143,m,0.6460013000178151,2024.9702993999817,2024.9702993999817,85,3.517,,,,,sub-060,55,90,700,bloc_loop.csv,2023-10-19_09h26.37.210,PainUncertainty,2022.2.5,143.8430844133359,
aigu,forte,stimuli/660Hz,stimuli/forte,bloc_9,prob20hthp_12trials.xlsx,3,36,80,20,0,,,,,0,8,8,8,2,7,31,11,,,,,,,,4.6,2024.9702993999817,2029.5715056000045,2029.5715701599897,0.30495759996119887,2030.0158112000208,2030.0158112000208,m,1.351468799985014,2034.687677400012,2034.687677400012,82,3.247,,,,,sub-060,55,90,700,bloc_loop.csv,2023-10-19_09h26.37.210,PainUncertainty,2022.2.5,143.8430844133359,
aigu,moderee,stimuli/660Hz,stimuli/moderee,bloc_9,prob20hthp_12trials.xlsx,3,36,80,20,0,,,,,0,8,8,8,2,8,32,9,,,,,,,,4.2,2034.687677400012,2038.8920698000002,2038.891957959981,0.30537929997080937,2039.3433949999744,2039.3433949999744,n,0.7400491999578662,2043.0137267999817,2043.0137267999817,8,2.88,,,,,sub-060,55,90,700,bloc_loop.csv,2023-10-19_09h26.37.210,PainUncertainty,2022.2.5,143.8430844133359,
aigu,moderee,stimuli/660Hz,stimuli/moderee,bloc_9,prob20hthp_12trials.xlsx,3,36,80,20,0,,,,,0,8,8,8,2,9,33,7,,,,,,,,4.1,2043.0137267999817,2047.1152479000157,2047.1152149600152,0.30535169999348,2047.5635669999756,2047.5635669999756,n,0.6630032999673858,2052.2049020999693,2052.2049020999693,7,3.921,,,,,sub-060,55,90,700,bloc_loop.csv,2023-10-19_09h26.37.210,PainUncertainty,2022.2.5,143.8430844133359,
grave,moderee,stimuli/330Hz,stimuli/moderee,bloc_9,prob20hthp_12trials.xlsx,3,36,80,20,0,,,,,0,8,8,8,2,10,34,5,,,,,,,,3.6,2052.2049020999693,2055.804118399974,2055.804099360021,0.3050374999875203,2056.2484199000173,2056.2484199000173,None,,2060.897090099985,2060.897090099985,9,2.156,,,2058.7159113999805,2058.7159113999805,sub-060,55,90,700,bloc_loop.csv,2023-10-19_09h26.37.210,PainUncertainty,2022.2.5,143.8430844133359,
aigu,moderee,stimuli/660Hz,stimuli/moderee,bloc_9,prob20hthp_12trials.xlsx,3,36,80,20,0,,,,,0,8,8,8,2,11,35,6,,,,,,,,4,2060.897090099985,2064.901962700009,2064.901973059989,0.3049845000496134,2065.346225299989,2065.346225299989,n,1.2141650000121444,2070.0119570000097,2070.0119570000097,5,3.427,,,,,sub-060,55,90,700,bloc_loop.csv,2023-10-19_09h26.37.210,PainUncertainty,2022.2.5,143.8430844133359,
