cue_,stimulus_,cue_fichier,stimulus_fichier,block_name,block_trials_file,block_n_reps,block_ntrials,block_prob_highP_highT,block_prob_highP_lowT,block_pause_after,Bloc_essai.thisRepN,Bloc_essai.thisTrialN,Bloc_essai.thisN,Bloc_essai.thisIndex,blocks.thisRepN,blocks.thisTrialN,blocks.thisN,blocks.thisIndex,trials.thisRepN,trials.thisTrialN,trials.thisN,trials.thisIndex,pause_loop.thisRepN,pause_loop.thisTrialN,pause_loop.thisN,pause_loop.thisIndex,key_resp_5.started,start_calib.started,key_resp_2.started,ISI_duration,pause.started,pause.stopped,cue.started,ISI.started,choice_pain.started,Choice.started,choice_pain.keys,choice_pain.rt,main_text.started,confirm_text.started,ratingScale.response,ratingScale.rt,key_resp_3.started,key_resp_6.started,participant,low_ma,high_ma,failsafe_ma,block_file,date,expName,psychopyVersion,frameRate,
aigu,moderee,stimuli/660Hz,stimuli/moderee,,,,,,,,0,0,0,2,,,,,,,,,,,,,20.3383439,163.2697202,200.0312637,4.2,201.74844,205.9559072,205.961507,0.3040855,206.392908,206.392908,n,1.7574499,211.0909918,211.0909918,33,2.858,,,,sub-052,45,60,700,bloc_loop.csv,2023-09-24_10h21.38.541,PainUncertainty,2022.2.5,144.0015437
grave,forte,stimuli/330Hz,stimuli/forte,,,,,,,,0,1,1,1,,,,,,,,,,,,,,,,3.4,211.0909918,214.4931618,214.4976492,0.3016664,214.9362256,214.9362256,m,1.2603376,218.8699332,218.8699332,31,2.622,,,,sub-052,45,60,700,bloc_loop.csv,2023-09-24_10h21.38.541,PainUncertainty,2022.2.5,144.0015437
aigu,forte,stimuli/660Hz,stimuli/forte,,,,,,,,0,2,2,3,,,,,,,,,,,,,,,,3.5,218.8699332,222.3742685,222.3740237,0.3053895,222.8222038,222.8222038,n,2.0103414,227.0207365,227.0207365,32,2.114,,,,sub-052,45,60,700,bloc_loop.csv,2023-09-24_10h21.38.541,PainUncertainty,2022.2.5,144.0015437
grave,moderee,stimuli/330Hz,stimuli/moderee,,,,,,,,0,3,3,0,,,,,,,,,,,,,,,,3.5,227.0207365,230.5210478,230.5206755,0.3051907,230.9655751,230.9655751,n,1.511237,234.7832488,234.7832488,16,2.282,,,,sub-052,45,60,700,bloc_loop.csv,2023-09-24_10h21.38.541,PainUncertainty,2022.2.5,144.0015437
grave,forte,stimuli/330Hz,stimuli/forte,bloc_1,prob20hthp_12trials.xlsx,4,48,20,80,0,,,,,0,0,0,0,0,0,0,1,,,,,,,,4.2,273.294397,277.4994744,277.4991429,0.3053749,277.9462658,277.9462658,n,1.8870791,281.6352892,281.6352892,17,1.726,,,,sub-052,45,60,700,bloc_loop.csv,2023-09-24_10h21.38.541,PainUncertainty,2022.2.5,144.0015437
aigu,moderee,stimuli/660Hz,stimuli/moderee,bloc_1,prob20hthp_12trials.xlsx,4,48,20,80,0,,,,,0,0,0,0,0,1,1,6,,,,,,,,4.8,281.6352892,286.4374556,286.4373889,0.3048731,286.8819889,286.8819889,m,0.3942672,288.7114376,288.7114376,30,1.371,,,,sub-052,45,60,700,bloc_loop.csv,2023-09-24_10h21.38.541,PainUncertainty,2022.2.5,144.0015437
aigu,moderee,stimuli/660Hz,stimuli/moderee,bloc_1,prob20hthp_12trials.xlsx,4,48,20,80,0,,,,,0,0,0,0,0,2,2,8,,,,,,,,3.2,288.7114376,291.9109246,291.912599,0.303367,292.3553209,292.3553209,m,0.3889921,293.7295334,293.7295334,30,0.919,,,,sub-052,45,60,700,bloc_loop.csv,2023-09-24_10h21.38.541,PainUncertainty,2022.2.5,144.0015437
grave,forte,stimuli/330Hz,stimuli/forte,bloc_1,prob20hthp_12trials.xlsx,4,48,20,80,0,,,,,0,0,0,0,0,3,3,3,,,,,,,,4,293.7295334,297.7305546,297.7302934,0.3052238,298.1753133,298.1753133,n,0.3564394,299.9447159,299.9447159,23,1.343,,,,sub-052,45,60,700,bloc_loop.csv,2023-09-24_10h21.38.541,PainUncertainty,2022.2.5,144.0015437
aigu,moderee,stimuli/660Hz,stimuli/moderee,bloc_1,prob20hthp_12trials.xlsx,4,48,20,80,0,,,,,0,0,0,0,0,4,4,7,,,,,,,,3.5,299.9447159,303.4466942,303.4465017,0.3011899,303.8911209,303.8911209,m,0.6801574,306.8959951,306.8959951,22,2.268,,,,sub-052,45,60,700,bloc_loop.csv,2023-09-24_10h21.38.541,PainUncertainty,2022.2.5,144.0015437
grave,moderee,stimuli/330Hz,stimuli/moderee,bloc_1,prob20hthp_12trials.xlsx,4,48,20,80,0,,,,,0,0,0,0,0,5,5,5,,,,,,,,3.8,306.8959951,310.6975246,310.6973273,0.3007043,311.1424294,311.1424294,n,0.3592455,313.12691,313.12691,16,1.56,,,,sub-052,45,60,700,bloc_loop.csv,2023-09-24_10h21.38.541,PainUncertainty,2022.2.5,144.0015437
grave,forte,stimuli/330Hz,stimuli/forte,bloc_1,prob20hthp_12trials.xlsx,4,48,20,80,0,,,,,0,0,0,0,0,6,6,4,,,,,,,,3.6,313.12691,316.7328896,316.7326062,0.3052659,317.1770926,317.1770926,n,0.1594014,319.0384625,319.0384625,14,1.649,,,,sub-052,45,60,700,bloc_loop.csv,2023-09-24_10h21.38.541,PainUncertainty,2022.2.5,144.0015437
grave,forte,stimuli/330Hz,stimuli/forte,bloc_1,prob20hthp_12trials.xlsx,4,48,20,80,0,,,,,0,0,0,0,0,7,7,2,,,,,,,,4.3,319.0384625,323.3383042,323.3379406,0.3048582,323.7820451,323.7820451,n,0.5555249,326.7722539,326.7722539,8,2.372,,,,sub-052,45,60,700,bloc_loop.csv,2023-09-24_10h21.38.541,PainUncertainty,2022.2.5,144.0015437
grave,forte,stimuli/330Hz,stimuli/forte,bloc_1,prob20hthp_12trials.xlsx,4,48,20,80,0,,,,,0,0,0,0,0,8,8,0,,,,,,,,4.6,326.7722539,331.3739862,331.3736322,0.3048104,331.8183847,331.8183847,None,,337.2864105,337.2864105,32,2.963,334.2856138,334.2856138,,sub-052,45,60,700,bloc_loop.csv,2023-09-24_10h21.38.541,PainUncertainty,2022.2.5,144.0015437
aigu,forte,stimuli/660Hz,stimuli/forte,bloc_1,prob20hthp_12trials.xlsx,4,48,20,80,0,,,,,0,0,0,0,0,9,9,11,,,,,,,,4.8,337.2864105,342.0901894,342.089813,0.3051428,342.5343446,342.5343446,m,1.5806548,346.6663694,346.6663694,29,2.482,,,,sub-052,45,60,700,bloc_loop.csv,2023-09-24_10h21.38.541,PainUncertainty,2022.2.5,144.0015437
aigu,moderee,stimuli/660Hz,stimuli/moderee,bloc_1,prob20hthp_12trials.xlsx,4,48,20,80,0,,,,,0,0,0,0,0,10,10,10,,,,,,,,4.5,346.6663694,351.1680466,351.1677864,0.3006435,351.6122584,351.6122584,None,,355.8522525,355.8522525,28,1.748,354.0799081,354.0799081,,sub-052,45,60,700,bloc_loop.csv,2023-09-24_10h21.38.541,PainUncertainty,2022.2.5,144.0015437
aigu,moderee,stimuli/660Hz,stimuli/moderee,bloc_1,prob20hthp_12trials.xlsx,4,48,20,80,0,,,,,0,0,0,0,0,11,11,9,,,,,,,,4.7,355.8522525,360.5580553,360.5577223,0.3002294,361.0024824,361.0024824,m,1.2527715,363.666968,363.666968,24,1.351,,,,sub-052,45,60,700,bloc_loop.csv,2023-09-24_10h21.38.541,PainUncertainty,2022.2.5,144.0015437
aigu,moderee,stimuli/660Hz,stimuli/moderee,bloc_1,prob20hthp_12trials.xlsx,4,48,20,80,0,,,,,0,0,0,0,1,0,12,10,,,,,,,,4.8,363.666968,368.4687071,368.4683887,0.3049447,368.9125844,368.9125844,m,0.6426834,371.9103539,371.9103539,21,2.301,,,,sub-052,45,60,700,bloc_loop.csv,2023-09-24_10h21.38.541,PainUncertainty,2022.2.5,144.0015437
aigu,moderee,stimuli/660Hz,stimuli/moderee,bloc_1,prob20hthp_12trials.xlsx,4,48,20,80,0,,,,,0,0,0,0,1,1,13,8,,,,,,,,3.9,371.9103539,375.8101413,375.80959,0.305161,376.2563564,376.2563564,m,0.7000279,378.6399182,378.6399182,27,1.6,,,,sub-052,45,60,700,bloc_loop.csv,2023-09-24_10h21.38.541,PainUncertainty,2022.2.5,144.0015437
grave,forte,stimuli/330Hz,stimuli/forte,bloc_1,prob20hthp_12trials.xlsx,4,48,20,80,0,,,,,0,0,0,0,1,2,14,2,,,,,,,,3.3,378.6399182,381.9425708,381.9431307,0.3044351,382.3900833,382.3900833,n,1.1618641,386.2110188,386.2110188,13,2.601,,,,sub-052,45,60,700,bloc_loop.csv,2023-09-24_10h21.38.541,PainUncertainty,2022.2.5,144.0015437
grave,forte,stimuli/330Hz,stimuli/forte,bloc_1,prob20hthp_12trials.xlsx,4,48,20,80,0,,,,,0,0,0,0,1,3,15,3,,,,,,,,3.2,386.2110188,389.4153254,389.4150794,0.304858,389.8633778,389.8633778,n,1.0947857,392.5066795,392.5066795,18,1.491,,,,sub-052,45,60,700,bloc_loop.csv,2023-09-24_10h21.38.541,PainUncertainty,2022.2.5,144.0015437
grave,forte,stimuli/330Hz,stimuli/forte,bloc_1,prob20hthp_12trials.xlsx,4,48,20,80,0,,,,,0,0,0,0,1,4,16,4,,,,,,,,4,392.5066795,396.5066062,396.5063085,0.3050038,396.9507544,396.9507544,n,1.1499666,399.1857114,399.1857114,10,1.025,,,,sub-052,45,60,700,bloc_loop.csv,2023-09-24_10h21.38.541,PainUncertainty,2022.2.5,144.0015437
grave,forte,stimuli/330Hz,stimuli/forte,bloc_1,prob20hthp_12trials.xlsx,4,48,20,80,0,,,,,0,0,0,0,1,5,17,1,,,,,,,,3.5,399.1857114,402.687927,402.6875978,0.3050718,403.1323026,403.1323026,n,1.2650514,406.2976338,406.2976338,10,1.817,,,,sub-052,45,60,700,bloc_loop.csv,2023-09-24_10h21.38.541,PainUncertainty,2022.2.5,144.0015437
grave,moderee,stimuli/330Hz,stimuli/moderee,bloc_1,prob20hthp_12trials.xlsx,4,48,20,80,0,,,,,0,0,0,0,1,6,18,5,,,,,,,,3.9,406.2976338,410.2033123,410.2031526,0.3040543,410.6471078,410.6471078,n,0.8178986,414.4299254,414.4299254,12,2.908,,,,sub-052,45,60,700,bloc_loop.csv,2023-09-24_10h21.38.541,PainUncertainty,2022.2.5,144.0015437
aigu,moderee,stimuli/660Hz,stimuli/moderee,bloc_1,prob20hthp_12trials.xlsx,4,48,20,80,0,,,,,0,0,0,0,1,7,19,9,,,,,,,,3.6,414.4299254,418.0300085,418.0298759,0.3052999,418.4775065,418.4775065,m,1.9185732,424.0642399,424.0642399,24,3.607,,,,sub-052,45,60,700,bloc_loop.csv,2023-09-24_10h21.38.541,PainUncertainty,2022.2.5,144.0015437
aigu,moderee,stimuli/660Hz,stimuli/moderee,bloc_1,prob20hthp_12trials.xlsx,4,48,20,80,0,,,,,0,0,0,0,1,8,20,6,,,,,,,,4.6,424.0642399,428.6699831,428.6697438,0.3056267,429.1189572,429.1189572,None,,433.8443696,433.8443696,20,2.205,,,,sub-052,45,60,700,bloc_loop.csv,2023-09-24_10h21.38.541,PainUncertainty,2022.2.5,144.0015437
aigu,forte,stimuli/660Hz,stimuli/forte,bloc_1,prob20hthp_12trials.xlsx,4,48,20,80,0,,,,,0,0,0,0,1,9,21,11,,,,,,,,4.3,433.8443696,438.1503908,438.1500763,0.3053047,438.5969395,438.5969395,n,2.3884464,442.9519096,442.9519096,14,1.907,,,,sub-052,45,60,700,bloc_loop.csv,2023-09-24_10h21.38.541,PainUncertainty,2022.2.5,144.0015437
grave,forte,stimuli/330Hz,stimuli/forte,bloc_1,prob20hthp_12trials.xlsx,4,48,20,80,0,,,,,0,0,0,0,1,10,22,0,,,,,,,,4,442.9519096,446.9572688,446.9569506,0.3050868,447.4014407,447.4014407,m,0.9702751,450.9100039,450.9100039,24,2.456,,,,sub-052,45,60,700,bloc_loop.csv,2023-09-24_10h21.38.541,PainUncertainty,2022.2.5,144.0015437
aigu,moderee,stimuli/660Hz,stimuli/moderee,bloc_1,prob20hthp_12trials.xlsx,4,48,20,80,0,,,,,0,0,0,0,1,11,23,7,,,,,,,,4,450.9100039,454.909388,454.90908,0.3050567,455.3576204,455.3576204,n,1.156465,458.9940866,458.9940866,10,2.413,,,,sub-052,45,60,700,bloc_loop.csv,2023-09-24_10h21.38.541,PainUncertainty,2022.2.5,144.0015437
grave,forte,stimuli/330Hz,stimuli/forte,bloc_1,prob20hthp_12trials.xlsx,4,48,20,80,0,,,,,0,0,0,0,2,0,24,3,,,,,,,,3.4,458.9940866,462.3963973,462.3960584,0.3049551,462.8407197,462.8407197,n,1.677637,466.4560223,466.4560223,14,1.858,,,,sub-052,45,60,700,bloc_loop.csv,2023-09-24_10h21.38.541,PainUncertainty,2022.2.5,144.0015437
aigu,moderee,stimuli/660Hz,stimuli/moderee,bloc_1,prob20hthp_12trials.xlsx,4,48,20,80,0,,,,,0,0,0,0,2,1,25,8,,,,,,,,3.9,466.4560223,470.3558837,470.3557579,0.3016261,470.8009475,470.8009475,m,2.1522247,475.7074104,475.7074104,17,2.691,,,,sub-052,45,60,700,bloc_loop.csv,2023-09-24_10h21.38.541,PainUncertainty,2022.2.5,144.0015437
aigu,moderee,stimuli/660Hz,stimuli/moderee,bloc_1,prob20hthp_12trials.xlsx,4,48,20,80,0,,,,,0,0,0,0,2,2,26,7,,,,,,,,4.6,475.7074104,480.3085548,480.3100837,0.3031985,480.7528164,480.7528164,n,1.4987327,483.6981986,483.6981986,13,1.377,,,,sub-052,45,60,700,bloc_loop.csv,2023-09-24_10h21.38.541,PainUncertainty,2022.2.5,144.0015437
grave,forte,stimuli/330Hz,stimuli/forte,bloc_1,prob20hthp_12trials.xlsx,4,48,20,80,0,,,,,0,0,0,0,2,3,27,1,,,,,,,,4,483.6981986,487.6979226,487.6976764,0.3051827,488.1422027,488.1422027,m,1.459973,492.4835316,492.4835316,17,2.824,,,,sub-052,45,60,700,bloc_loop.csv,2023-09-24_10h21.38.541,PainUncertainty,2022.2.5,144.0015437
grave,forte,stimuli/330Hz,stimuli/forte,bloc_1,prob20hthp_12trials.xlsx,4,48,20,80,0,,,,,0,0,0,0,2,4,28,4,,,,,,,,3.4,492.4835316,495.8864863,495.8861705,0.3051128,496.3306751,496.3306751,None,,500.729415,500.729415,19,1.901,498.7984539,498.7984539,,sub-052,45,60,700,bloc_loop.csv,2023-09-24_10h21.38.541,PainUncertainty,2022.2.5,144.0015437
aigu,forte,stimuli/660Hz,stimuli/forte,bloc_1,prob20hthp_12trials.xlsx,4,48,20,80,0,,,,,0,0,0,0,2,5,29,11,,,,,,,,3.5,500.729415,504.2346883,504.2345523,0.3046827,504.6814413,504.6814413,m,1.2596165,507.0717172,507.0717172,21,1.078,,,,sub-052,45,60,700,bloc_loop.csv,2023-09-24_10h21.38.541,PainUncertainty,2022.2.5,144.0015437
grave,forte,stimuli/330Hz,stimuli/forte,bloc_1,prob20hthp_12trials.xlsx,4,48,20,80,0,,,,,0,0,0,0,2,6,30,2,,,,,,,,4.4,507.0717172,511.4720742,511.4717802,0.304846,511.9158612,511.9158612,m,1.2867684,516.322812,516.322812,11,3.059,,,,sub-052,45,60,700,bloc_loop.csv,2023-09-24_10h21.38.541,PainUncertainty,2022.2.5,144.0015437
grave,forte,stimuli/330Hz,stimuli/forte,bloc_1,prob20hthp_12trials.xlsx,4,48,20,80,0,,,,,0,0,0,0,2,7,31,0,,,,,,,,4.3,516.322812,520.6255791,520.6253955,0.3049745,521.0698499,521.0698499,n,1.2817135,524.3300753,524.3300753,13,1.907,,,,sub-052,45,60,700,bloc_loop.csv,2023-09-24_10h21.38.541,PainUncertainty,2022.2.5,144.0015437
aigu,moderee,stimuli/660Hz,stimuli/moderee,bloc_1,prob20hthp_12trials.xlsx,4,48,20,80,0,,,,,0,0,0,0,2,8,32,6,,,,,,,,4.1,524.3300753,528.4323783,528.4323192,0.3049112,528.8834356,528.8834356,n,0.7460391,531.6139984,531.6139984,12,1.928,,,,sub-052,45,60,700,bloc_loop.csv,2023-09-24_10h21.38.541,PainUncertainty,2022.2.5,144.0015437
aigu,moderee,stimuli/660Hz,stimuli/moderee,bloc_1,prob20hthp_12trials.xlsx,4,48,20,80,0,,,,,0,0,0,0,2,9,33,10,,,,,,,,3.4,531.6139984,535.0166856,535.0165359,0.3004249,535.4610778,535.4610778,n,0.8686268,538.21374,538.21374,7,1.823,,,,sub-052,45,60,700,bloc_loop.csv,2023-09-24_10h21.38.541,PainUncertainty,2022.2.5,144.0015437
grave,moderee,stimuli/330Hz,stimuli/moderee,bloc_1,prob20hthp_12trials.xlsx,4,48,20,80,0,,,,,0,0,0,0,2,10,34,5,,,,,,,,4.9,538.21374,543.1146042,543.1143694,0.3048951,543.5584445,543.5584445,n,0.7308903,546.6188123,546.6188123,11,2.268,,,,sub-052,45,60,700,bloc_loop.csv,2023-09-24_10h21.38.541,PainUncertainty,2022.2.5,144.0015437
aigu,moderee,stimuli/660Hz,stimuli/moderee,bloc_1,prob20hthp_12trials.xlsx,4,48,20,80,0,,,,,0,0,0,0,2,11,35,9,,,,,,,,4.6,546.6188123,551.2194442,551.2190571,0.3053831,551.670926,551.670926,m,1.2753073,555.7091527,555.7091527,18,2.706,,,,sub-052,45,60,700,bloc_loop.csv,2023-09-24_10h21.38.541,PainUncertainty,2022.2.5,144.0015437
aigu,moderee,stimuli/660Hz,stimuli/moderee,bloc_1,prob20hthp_12trials.xlsx,4,48,20,80,0,,,,,0,0,0,0,3,0,36,8,,,,,,,,4.3,555.7091527,560.0122491,560.0119232,0.3049796,560.460419,560.460419,n,0.7340867,562.8049556,562.8049556,8,1.532,,,,sub-052,45,60,700,bloc_loop.csv,2023-09-24_10h21.38.541,PainUncertainty,2022.2.5,144.0015437
grave,forte,stimuli/330Hz,stimuli/forte,bloc_1,prob20hthp_12trials.xlsx,4,48,20,80,0,,,,,0,0,0,0,3,1,37,3,,,,,,,,3.5,562.8049556,566.3046269,566.3042974,0.3054142,566.7530127,566.7530127,m,0.7700092,568.7490496,568.7490496,21,1.15,,,,sub-052,45,60,700,bloc_loop.csv,2023-09-24_10h21.38.541,PainUncertainty,2022.2.5,144.0015437
grave,moderee,stimuli/330Hz,stimuli/moderee,bloc_1,prob20hthp_12trials.xlsx,4,48,20,80,0,,,,,0,0,0,0,3,2,38,5,,,,,,,,4,568.7490496,572.7498315,572.7495487,0.3051355,573.1982502,573.1982502,n,0.5681848,576.547871,576.547871,7,2.713,,,,sub-052,45,60,700,bloc_loop.csv,2023-09-24_10h21.38.541,PainUncertainty,2022.2.5,144.0015437
aigu,moderee,stimuli/660Hz,stimuli/moderee,bloc_1,prob20hthp_12trials.xlsx,4,48,20,80,0,,,,,0,0,0,0,3,3,39,6,,,,,,,,4.9,576.547871,581.4523179,581.4519681,0.3052836,581.9007674,581.9007674,n,0.6361442,584.8566397,584.8566397,11,2.234,,,,sub-052,45,60,700,bloc_loop.csv,2023-09-24_10h21.38.541,PainUncertainty,2022.2.5,144.0015437
grave,forte,stimuli/330Hz,stimuli/forte,bloc_1,prob20hthp_12trials.xlsx,4,48,20,80,0,,,,,0,0,0,0,3,4,40,0,,,,,,,,3.8,584.8566397,588.6614132,588.6611399,0.3053937,589.1131079,589.1131079,m,0.6707467,591.7427138,591.7427138,22,1.886,,,,sub-052,45,60,700,bloc_loop.csv,2023-09-24_10h21.38.541,PainUncertainty,2022.2.5,144.0015437
aigu,moderee,stimuli/660Hz,stimuli/moderee,bloc_1,prob20hthp_12trials.xlsx,4,48,20,80,0,,,,,0,0,0,0,3,5,41,7,,,,,,,,4.2,591.7427138,595.9474927,595.947001,0.3010968,596.3918026,596.3918026,n,0.9011838,600.1448965,600.1448965,6,2.794,,,,sub-052,45,60,700,bloc_loop.csv,2023-09-24_10h21.38.541,PainUncertainty,2022.2.5,144.0015437
aigu,moderee,stimuli/660Hz,stimuli/moderee,bloc_1,prob20hthp_12trials.xlsx,4,48,20,80,0,,,,,0,0,0,0,3,6,42,9,,,,,,,,5,600.1448965,605.149469,605.1491485,0.3050673,605.5942073,605.5942073,n,0.976598,609.5725913,609.5725913,9,2.931,,,,sub-052,45,60,700,bloc_loop.csv,2023-09-24_10h21.38.541,PainUncertainty,2022.2.5,144.0015437
grave,forte,stimuli/330Hz,stimuli/forte,bloc_1,prob20hthp_12trials.xlsx,4,48,20,80,0,,,,,0,0,0,0,3,7,43,1,,,,,,,,4,609.5725913,613.574126,613.5739191,0.3050576,614.0223882,614.0223882,m,0.6616591,616.0758526,616.0758526,26,1.325,,,,sub-052,45,60,700,bloc_loop.csv,2023-09-24_10h21.38.541,PainUncertainty,2022.2.5,144.0015437
aigu,moderee,stimuli/660Hz,stimuli/moderee,bloc_1,prob20hthp_12trials.xlsx,4,48,20,80,0,,,,,0,0,0,0,3,8,44,10,,,,,,,,4.3,616.0758526,620.3809722,620.3805829,0.3054465,620.8297203,620.8297203,n,0.70827,622.579865,622.579865,8,0.969,,,,sub-052,45,60,700,bloc_loop.csv,2023-09-24_10h21.38.541,PainUncertainty,2022.2.5,144.0015437
grave,forte,stimuli/330Hz,stimuli/forte,bloc_1,prob20hthp_12trials.xlsx,4,48,20,80,0,,,,,0,0,0,0,3,9,45,2,,,,,,,,3.8,622.579865,626.3814785,626.3809446,0.3053752,626.8262387,626.8262387,None,,631.7674974,631.7674974,14,2.44,629.2948812,629.2948812,,sub-052,45,60,700,bloc_loop.csv,2023-09-24_10h21.38.541,PainUncertainty,2022.2.5,144.0015437
grave,forte,stimuli/330Hz,stimuli/forte,bloc_1,prob20hthp_12trials.xlsx,4,48,20,80,0,,,,,0,0,0,0,3,10,46,4,,,,,,,,3.3,631.7674974,635.0699564,635.0695535,0.3052907,635.5180784,635.5180784,m,0.9995028,638.3032342,638.3032342,25,1.718,,,,sub-052,45,60,700,bloc_loop.csv,2023-09-24_10h21.38.541,PainUncertainty,2022.2.5,144.0015437
aigu,forte,stimuli/660Hz,stimuli/forte,bloc_1,prob20hthp_12trials.xlsx,4,48,20,80,0,,,,,0,0,0,0,3,11,47,11,,,,,,,,3.7,638.3032342,642.0103706,642.0080685,0.3052017,642.4563951,642.4563951,m,0.6077188,645.5102658,645.5102658,19,2.364,,,,sub-052,45,60,700,bloc_loop.csv,2023-09-24_10h21.38.541,PainUncertainty,2022.2.5,144.0015437
grave,moderee,stimuli/330Hz,stimuli/moderee,bloc_2,prob50_50_4trials.xlsx,2,8,50,50,1,,,,,0,1,1,1,0,0,0,0,,,,,,,,4.9,645.5102658,650.4118758,650.411585,0.3048889,650.8561818,650.8561818,n,1.0108458,654.2817205,654.2817205,8,2.344,,,,sub-052,45,60,700,bloc_loop.csv,2023-09-24_10h21.38.541,PainUncertainty,2022.2.5,144.0015437
aigu,forte,stimuli/660Hz,stimuli/forte,bloc_2,prob50_50_4trials.xlsx,2,8,50,50,1,,,,,0,1,1,1,0,1,1,3,,,,,,,,3.1,654.2817205,657.3863782,657.3850945,0.3052072,657.8335863,657.8335863,m,0.8541201,661.1195563,661.1195563,30,2.358,,,,sub-052,45,60,700,bloc_loop.csv,2023-09-24_10h21.38.541,PainUncertainty,2022.2.5,144.0015437
aigu,moderee,stimuli/660Hz,stimuli/moderee,bloc_2,prob50_50_4trials.xlsx,2,8,50,50,1,,,,,0,1,1,1,0,2,2,2,,,,,,,,3.7,661.1195563,664.8233891,664.8230026,0.2991276,665.2614389,665.2614389,n,1.7197774,668.3430421,668.3430421,12,1.289,,,,sub-052,45,60,700,bloc_loop.csv,2023-09-24_10h21.38.541,PainUncertainty,2022.2.5,144.0015437
grave,forte,stimuli/330Hz,stimuli/forte,bloc_2,prob50_50_4trials.xlsx,2,8,50,50,1,,,,,0,1,1,1,0,3,3,1,,,,,,,,3.7,668.3430421,672.0463535,672.0462391,0.30479,672.4908822,672.4908822,m,0.919881,675.3573135,675.3573135,26,1.872,,,,sub-052,45,60,700,bloc_loop.csv,2023-09-24_10h21.38.541,PainUncertainty,2022.2.5,144.0015437
aigu,moderee,stimuli/660Hz,stimuli/moderee,bloc_2,prob50_50_4trials.xlsx,2,8,50,50,1,,,,,0,1,1,1,1,0,4,2,,,,,,,,5,675.3573135,680.3598824,680.3595469,0.305178,680.8041064,680.8041064,n,0.6523521,682.4666879,682.4666879,14,0.942,,,,sub-052,45,60,700,bloc_loop.csv,2023-09-24_10h21.38.541,PainUncertainty,2022.2.5,144.0015437
grave,forte,stimuli/330Hz,stimuli/forte,bloc_2,prob50_50_4trials.xlsx,2,8,50,50,1,,,,,0,1,1,1,1,1,5,1,,,,,,,,4.7,682.4666879,687.1666466,687.1662251,0.3020545,687.6114364,687.6114364,m,0.7381286,689.6728092,689.6728092,19,1.247,,,,sub-052,45,60,700,bloc_loop.csv,2023-09-24_10h21.38.541,PainUncertainty,2022.2.5,144.0015437
grave,moderee,stimuli/330Hz,stimuli/moderee,bloc_2,prob50_50_4trials.xlsx,2,8,50,50,1,,,,,0,1,1,1,1,2,6,0,,,,,,,,3.1,689.6728092,692.7784767,692.7804849,0.3026639,693.2222276,693.2222276,n,0.618026,694.9296956,694.9296956,10,1.023,,,,sub-052,45,60,700,bloc_loop.csv,2023-09-24_10h21.38.541,PainUncertainty,2022.2.5,144.0015437
aigu,forte,stimuli/660Hz,stimuli/forte,bloc_2,prob50_50_4trials.xlsx,2,8,50,50,1,,,,,0,1,1,1,1,3,7,3,,,,,,,,4.3,694.9296956,699.2301456,699.2298258,0.3050274,699.6743849,699.6743849,m,1.3127859,704.3650669,704.3650669,15,1.35,,,,sub-052,45,60,700,bloc_loop.csv,2023-09-24_10h21.38.541,PainUncertainty,2022.2.5,144.0015437
aigu,forte,stimuli/660Hz,stimuli/forte,bloc_3,prob80hthp_12trials.xlsx,2,24,80,20,0,,,,,0,0,0,0,0,0,0,6,,,,,25.8594767,31.4698371,,3,37.255752,40.2557668,40.25516658,0.3031085,40.7026087,40.7026087,m,1.7964717,44.3103192,44.3103192,20,1.745,,,sub-052,45,60,700,bloc_loopcontinue.csv,2023-09-24_10h39.27.858,PainUncertainty,2022.2.5,142.4150459,
aigu,forte,stimuli/660Hz,stimuli/forte,bloc_3,prob80hthp_12trials.xlsx,2,24,80,20,0,,,,,0,0,0,0,0,1,1,10,,,,,,,,3.7,44.3103192,48.0133195,48.01340448,0.3052974,48.4622069,48.4622069,m,1.9240748,52.1719233,52.1719233,27,1.719,,,sub-052,45,60,700,bloc_loopcontinue.csv,2023-09-24_10h39.27.858,PainUncertainty,2022.2.5,142.4150459,
grave,moderee,stimuli/330Hz,stimuli/moderee,bloc_3,prob80hthp_12trials.xlsx,2,24,80,20,0,,,,,0,0,0,0,0,2,2,4,,,,,,,,4,52.1719233,56.174324,56.17426818,0.305042,56.6223096,56.6223096,n,0.7031358,59.1379904,59.1379904,20,1.761,,,sub-052,45,60,700,bloc_loopcontinue.csv,2023-09-24_10h39.27.858,PainUncertainty,2022.2.5,142.4150459,
grave,moderee,stimuli/330Hz,stimuli/moderee,bloc_3,prob80hthp_12trials.xlsx,2,24,80,20,0,,,,,0,0,0,0,0,3,3,3,,,,,,,,4.5,59.1379904,63.6401801,63.64018508,0.3013882,64.0846179,64.0846179,n,0.5610186,67.7351009,67.7351009,4,3.025,,,sub-052,45,60,700,bloc_loopcontinue.csv,2023-09-24_10h39.27.858,PainUncertainty,2022.2.5,142.4150459,
grave,moderee,stimuli/330Hz,stimuli/moderee,bloc_3,prob80hthp_12trials.xlsx,2,24,80,20,0,,,,,0,0,0,0,0,4,4,1,,,,,,,,3.2,67.7351009,70.9397015,70.93972658,0.2997018,71.3785763,71.3785763,n,0.6374246,72.8322973,72.8322973,10,0.747,,,sub-052,45,60,700,bloc_loopcontinue.csv,2023-09-24_10h39.27.858,PainUncertainty,2022.2.5,142.4150459,
grave,forte,stimuli/330Hz,stimuli/forte,bloc_3,prob80hthp_12trials.xlsx,2,24,80,20,0,,,,,0,0,0,0,0,5,5,5,,,,,,,,4.5,72.8322973,77.3364253,77.33622198,0.3051398,77.7849413,77.7849413,m,1.2953722,81.3965192,81.3965192,17,2.239,,,sub-052,45,60,700,bloc_loopcontinue.csv,2023-09-24_10h39.27.858,PainUncertainty,2022.2.5,142.4150459,
aigu,moderee,stimuli/660Hz,stimuli/moderee,bloc_3,prob80hthp_12trials.xlsx,2,24,80,20,0,,,,,0,0,0,0,0,6,6,11,,,,,,,,3.4,81.3965192,84.7954022,84.79554858,0.3048078,85.2395962,85.2395962,n,0.5202111,88.154896,88.154896,8,2.324,,,sub-052,45,60,700,bloc_loopcontinue.csv,2023-09-24_10h39.27.858,PainUncertainty,2022.2.5,142.4150459,
aigu,forte,stimuli/660Hz,stimuli/forte,bloc_3,prob80hthp_12trials.xlsx,2,24,80,20,0,,,,,0,0,0,0,0,7,7,9,,,,,,,,3.8,88.154896,91.9560084,91.95601768,0.3051829,92.4043157,92.4043157,m,1.1603326,96.143938,96.143938,26,2.519,,,sub-052,45,60,700,bloc_loopcontinue.csv,2023-09-24_10h39.27.858,PainUncertainty,2022.2.5,142.4150459,
aigu,forte,stimuli/660Hz,stimuli/forte,bloc_3,prob80hthp_12trials.xlsx,2,24,80,20,0,,,,,0,0,0,0,0,8,8,7,,,,,,,,5,96.143938,101.1454155,101.1448253,0.305136,101.5887771,101.5887771,m,1.6938616,106.2929067,106.2929067,21,2.942,,,sub-052,45,60,700,bloc_loopcontinue.csv,2023-09-24_10h39.27.858,PainUncertainty,2022.2.5,142.4150459,
grave,moderee,stimuli/330Hz,stimuli/moderee,bloc_3,prob80hthp_12trials.xlsx,2,24,80,20,0,,,,,0,0,0,0,0,9,9,0,,,,,,,,3.3,106.2929067,109.5973446,109.5973429,0.3051452,110.0438422,110.0438422,n,0.7181828,111.7089942,111.7089942,7,0.878,,,sub-052,45,60,700,bloc_loopcontinue.csv,2023-09-24_10h39.27.858,PainUncertainty,2022.2.5,142.4150459,
aigu,forte,stimuli/660Hz,stimuli/forte,bloc_3,prob80hthp_12trials.xlsx,2,24,80,20,0,,,,,0,0,0,0,0,10,10,8,,,,,,,,3.2,111.7089942,114.9105939,114.9105587,0.3006579,115.3550882,115.3550882,m,0.7229107,118.1801454,118.1801454,20,2.025,,,sub-052,45,60,700,bloc_loopcontinue.csv,2023-09-24_10h39.27.858,PainUncertainty,2022.2.5,142.4150459,
grave,moderee,stimuli/330Hz,stimuli/moderee,bloc_3,prob80hthp_12trials.xlsx,2,24,80,20,0,,,,,0,0,0,0,0,11,11,2,,,,,,,,4.7,118.1801454,122.8835944,122.8836895,0.3051457,123.3313433,123.3313433,n,1.1226131,125.2902171,125.2902171,10,0.767,,,sub-052,45,60,700,bloc_loopcontinue.csv,2023-09-24_10h39.27.858,PainUncertainty,2022.2.5,142.4150459,
grave,moderee,stimuli/330Hz,stimuli/moderee,bloc_3,prob80hthp_12trials.xlsx,2,24,80,20,0,,,,,0,0,0,0,1,0,12,1,,,,,,,,4.8,125.2902171,130.092534,130.0925708,0.3048271,130.5367395,130.5367395,n,0.8734955,134.3179412,134.3179412,5,2.852,,,sub-052,45,60,700,bloc_loopcontinue.csv,2023-09-24_10h39.27.858,PainUncertainty,2022.2.5,142.4150459,
grave,moderee,stimuli/330Hz,stimuli/moderee,bloc_3,prob80hthp_12trials.xlsx,2,24,80,20,0,,,,,0,0,0,0,1,1,13,0,,,,,,,,3,134.3179412,137.3230331,137.3229239,0.2992872,137.7641319,137.7641319,n,0.7788065,141.4588335,141.4588335,3,2.836,,,sub-052,45,60,700,bloc_loopcontinue.csv,2023-09-24_10h39.27.858,PainUncertainty,2022.2.5,142.4150459,
aigu,forte,stimuli/660Hz,stimuli/forte,bloc_3,prob80hthp_12trials.xlsx,2,24,80,20,0,,,,,0,0,0,0,1,2,14,8,,,,,,,,3.5,141.4588335,144.962812,144.9625657,0.3051375,145.4072297,145.4072297,m,0.8755679,149.0162866,149.0162866,21,2.677,,,sub-052,45,60,700,bloc_loopcontinue.csv,2023-09-24_10h39.27.858,PainUncertainty,2022.2.5,142.4150459,
aigu,forte,stimuli/660Hz,stimuli/forte,bloc_3,prob80hthp_12trials.xlsx,2,24,80,20,0,,,,,0,0,0,0,1,3,15,7,,,,,,,,4.9,149.0162866,153.9217923,153.9218126,0.3050592,154.3701227,154.3701227,m,2.1779347,158.2843158,158.2843158,19,1.678,,,sub-052,45,60,700,bloc_loopcontinue.csv,2023-09-24_10h39.27.858,PainUncertainty,2022.2.5,142.4150459,
aigu,forte,stimuli/660Hz,stimuli/forte,bloc_3,prob80hthp_12trials.xlsx,2,24,80,20,0,,,,,0,0,0,0,1,4,16,6,,,,,,,,3.7,158.2843158,161.9857814,161.9855771,0.3050493,162.4301196,162.4301196,m,1.4044172,168.190319,168.190319,16,4.295,,,sub-052,45,60,700,bloc_loopcontinue.csv,2023-09-24_10h39.27.858,PainUncertainty,2022.2.5,142.4150459,
aigu,forte,stimuli/660Hz,stimuli/forte,bloc_3,prob80hthp_12trials.xlsx,2,24,80,20,0,,,,,0,0,0,0,1,5,17,10,,,,,,,,4.7,168.190319,172.8902398,172.8906076,0.3013346,173.3354221,173.3354221,m,0.6824581,177.1222363,177.1222363,16,3.053,,,sub-052,45,60,700,bloc_loopcontinue.csv,2023-09-24_10h39.27.858,PainUncertainty,2022.2.5,142.4150459,
aigu,forte,stimuli/660Hz,stimuli/forte,bloc_3,prob80hthp_12trials.xlsx,2,24,80,20,0,,,,,0,0,0,0,1,6,18,9,,,,,,,,3.2,177.1222363,180.3215046,180.3217492,0.2993538,180.7658371,180.7658371,m,0.7722005,184.042598,184.042598,20,2.419,,,sub-052,45,60,700,bloc_loopcontinue.csv,2023-09-24_10h39.27.858,PainUncertainty,2022.2.5,142.4150459,
grave,moderee,stimuli/330Hz,stimuli/moderee,bloc_3,prob80hthp_12trials.xlsx,2,24,80,20,0,,,,,0,0,0,0,1,7,19,3,,,,,,,,5,184.042598,189.0445809,189.0445713,0.3050531,189.492857,189.492857,n,0.5321451,190.9277788,190.9277788,4,0.844,,,sub-052,45,60,700,bloc_loopcontinue.csv,2023-09-24_10h39.27.858,PainUncertainty,2022.2.5,142.4150459,
aigu,moderee,stimuli/660Hz,stimuli/moderee,bloc_3,prob80hthp_12trials.xlsx,2,24,80,20,0,,,,,0,0,0,0,1,8,20,11,,,,,,,,4.5,190.9277788,195.4272721,195.4272033,0.3049464,195.8715246,195.8715246,n,0.5586454,197.8147798,197.8147798,2,1.323,,,sub-052,45,60,700,bloc_loopcontinue.csv,2023-09-24_10h39.27.858,PainUncertainty,2022.2.5,142.4150459,
grave,moderee,stimuli/330Hz,stimuli/moderee,bloc_3,prob80hthp_12trials.xlsx,2,24,80,20,0,,,,,0,0,0,0,1,9,21,4,,,,,,,,3.4,197.8147798,201.2192389,201.2191935,0.2997458,201.6642262,201.6642262,n,0.6012844,204.7180437,204.7180437,3,2.386,,,sub-052,45,60,700,bloc_loopcontinue.csv,2023-09-24_10h39.27.858,PainUncertainty,2022.2.5,142.4150459,
grave,forte,stimuli/330Hz,stimuli/forte,bloc_3,prob80hthp_12trials.xlsx,2,24,80,20,0,,,,,0,0,0,0,1,10,22,5,,,,,,,,4.8,204.7180437,209.5192878,209.5192886,0.3051589,209.9670282,209.9670282,None,,214.4972972,214.4972972,6,2.004,,,sub-052,45,60,700,bloc_loopcontinue.csv,2023-09-24_10h39.27.858,PainUncertainty,2022.2.5,142.4150459,
grave,moderee,stimuli/330Hz,stimuli/moderee,bloc_3,prob80hthp_12trials.xlsx,2,24,80,20,0,,,,,0,0,0,0,1,11,23,2,,,,,,,,3.4,214.4972972,217.9018193,217.9017601,0.3053205,218.3463787,218.3463787,n,0.7997467,220.8878588,220.8878588,4,1.685,,,sub-052,45,60,700,bloc_loopcontinue.csv,2023-09-24_10h39.27.858,PainUncertainty,2022.2.5,142.4150459,
aigu,moderee,stimuli/660Hz,stimuli/moderee,bloc_4,prob50_50_4trials.xlsx,2,8,50,50,1,,,,,0,1,1,1,0,0,0,2,,,,,,,,3.3,220.8878588,224.187377,224.1872678,0.3054759,224.6339439,224.6339439,n,1.337545,227.0563475,227.0563475,6,1.018,,,sub-052,45,60,700,bloc_loopcontinue.csv,2023-09-24_10h39.27.858,PainUncertainty,2022.2.5,142.4150459,
aigu,forte,stimuli/660Hz,stimuli/forte,bloc_4,prob50_50_4trials.xlsx,2,8,50,50,1,,,,,0,1,1,1,0,1,1,3,,,,,,,,4.5,227.0563475,231.5562698,231.5561713,0.3055496,232.0055313,232.0055313,m,0.6453137,235.0618573,235.0618573,13,2.33,,,sub-052,45,60,700,bloc_loopcontinue.csv,2023-09-24_10h39.27.858,PainUncertainty,2022.2.5,142.4150459,
grave,moderee,stimuli/330Hz,stimuli/moderee,bloc_4,prob50_50_4trials.xlsx,2,8,50,50,1,,,,,0,1,1,1,0,2,2,0,,,,,,,,3.8,235.0618573,238.8627411,238.8626581,0.3051509,239.3071269,239.3071269,n,0.482381,240.6382135,240.6382135,8,0.775,,,sub-052,45,60,700,bloc_loopcontinue.csv,2023-09-24_10h39.27.858,PainUncertainty,2022.2.5,142.4150459,
grave,forte,stimuli/330Hz,stimuli/forte,bloc_4,prob50_50_4trials.xlsx,2,8,50,50,1,,,,,0,1,1,1,0,3,3,1,,,,,,,,3.1,240.6382135,243.7382391,243.7382664,0.3051515,244.1823981,244.1823981,m,0.6085149,245.7819164,245.7819164,20,0.935,,,sub-052,45,60,700,bloc_loopcontinue.csv,2023-09-24_10h39.27.858,PainUncertainty,2022.2.5,142.4150459,
aigu,forte,stimuli/660Hz,stimuli/forte,bloc_4,prob50_50_4trials.xlsx,2,8,50,50,1,,,,,0,1,1,1,1,0,4,3,,,,,,,,3.6,245.7819164,249.3848054,249.3848304,0.3053337,249.8330281,249.8330281,m,0.585467,251.5352732,251.5352732,26,1.046,,,sub-052,45,60,700,bloc_loopcontinue.csv,2023-09-24_10h39.27.858,PainUncertainty,2022.2.5,142.4150459,
grave,moderee,stimuli/330Hz,stimuli/moderee,bloc_4,prob50_50_4trials.xlsx,2,8,50,50,1,,,,,0,1,1,1,1,1,5,0,,,,,,,,3.2,251.5352732,254.7396901,254.7396943,0.3050947,255.1837863,255.1837863,n,0.7156392,257.5900258,257.5900258,10,1.613,,,sub-052,45,60,700,bloc_loopcontinue.csv,2023-09-24_10h39.27.858,PainUncertainty,2022.2.5,142.4150459,
grave,forte,stimuli/330Hz,stimuli/forte,bloc_4,prob50_50_4trials.xlsx,2,8,50,50,1,,,,,0,1,1,1,1,2,6,1,,,,,,,,4.9,257.5900258,262.4905264,262.4904946,0.3050391,262.9346588,262.9346588,m,0.6385107,265.1014087,265.1014087,26,1.449,,,sub-052,45,60,700,bloc_loopcontinue.csv,2023-09-24_10h39.27.858,PainUncertainty,2022.2.5,142.4150459,
aigu,moderee,stimuli/660Hz,stimuli/moderee,bloc_4,prob50_50_4trials.xlsx,2,8,50,50,1,,,,,0,1,1,1,1,3,7,2,,,,,,,,3.1,265.1014087,268.2066806,268.2064788,0.3051846,268.6509835,268.6509835,n,1.1886988,273.473676,273.473676,5,1.601,,,sub-052,45,60,700,bloc_loopcontinue.csv,2023-09-24_10h39.27.858,PainUncertainty,2022.2.5,142.4150459,
,,,,bloc_4,prob50_50_4trials.xlsx,2,8,50,50,1,,,,,0,1,1,1,,,,,0,0,0,0,,,,,,,,,,,,,,,,,273.473676,287.1814485,sub-052,45,60,700,bloc_loopcontinue.csv,2023-09-24_10h39.27.858,PainUncertainty,2022.2.5,142.4150459,
aigu,moderee,stimuli/660Hz,stimuli/moderee,bloc_5,prob20hthp_12trials.xlsx,2,24,20,80,0,,,,,0,2,2,2,0,0,0,10,,,,,,,,3.7,288.6685437,292.3691401,292.3691617,0.2991415,292.8073163,292.8073163,n,0.5241727,296.5932877,296.5932877,0,3.199,,,sub-052,45,60,700,bloc_loopcontinue.csv,2023-09-24_10h39.27.858,PainUncertainty,2022.2.5,142.4150459,
aigu,moderee,stimuli/660Hz,stimuli/moderee,bloc_5,prob20hthp_12trials.xlsx,2,24,20,80,0,,,,,0,2,2,2,0,1,1,9,,,,,,,,4.2,296.5932877,300.7939679,300.7939732,0.3047939,301.2435175,301.2435175,n,0.4713543,302.7438706,302.7438706,0,0.976,,,sub-052,45,60,700,bloc_loopcontinue.csv,2023-09-24_10h39.27.858,PainUncertainty,2022.2.5,142.4150459,
grave,moderee,stimuli/330Hz,stimuli/moderee,bloc_5,prob20hthp_12trials.xlsx,2,24,20,80,0,,,,,0,2,2,2,0,2,2,5,,,,,,,,3.4,302.7438706,306.1489721,306.1488808,0.3049747,306.5929178,306.5929178,n,0.5140789,308.0677303,308.0677303,2,0.899,,,sub-052,45,60,700,bloc_loopcontinue.csv,2023-09-24_10h39.27.858,PainUncertainty,2022.2.5,142.4150459,
aigu,moderee,stimuli/660Hz,stimuli/moderee,bloc_5,prob20hthp_12trials.xlsx,2,24,20,80,0,,,,,0,2,2,2,0,3,3,6,,,,,,,,4.4,308.0677303,312.4688765,312.4688194,0.3058926,312.9184202,312.9184202,n,0.6168703,315.4950785,315.4950785,2,1.905,,,sub-052,45,60,700,bloc_loopcontinue.csv,2023-09-24_10h39.27.858,PainUncertainty,2022.2.5,142.4150459,
aigu,moderee,stimuli/660Hz,stimuli/moderee,bloc_5,prob20hthp_12trials.xlsx,2,24,20,80,0,,,,,0,2,2,2,0,4,4,8,,,,,,,,4.2,315.4950785,319.6989233,319.6988645,0.3007185,320.143374,320.143374,n,0.5005979,323.5184002,323.5184002,1,2.8,,,sub-052,45,60,700,bloc_loopcontinue.csv,2023-09-24_10h39.27.858,PainUncertainty,2022.2.5,142.4150459,
grave,forte,stimuli/330Hz,stimuli/forte,bloc_5,prob20hthp_12trials.xlsx,2,24,20,80,0,,,,,0,2,2,2,0,5,5,3,,,,,,,,4.7,323.5184002,328.2207372,328.2207187,0.3051574,328.6652277,328.6652277,m,0.7269572,331.2179764,331.2179764,27,1.762,,,sub-052,45,60,700,bloc_loopcontinue.csv,2023-09-24_10h39.27.858,PainUncertainty,2022.2.5,142.4150459,
grave,forte,stimuli/330Hz,stimuli/forte,bloc_5,prob20hthp_12trials.xlsx,2,24,20,80,0,,,,,0,2,2,2,0,6,6,2,,,,,,,,3.8,331.2179764,335.0201948,335.0202914,0.3050637,335.4650618,335.4650618,m,0.5423936,337.9442714,337.9442714,22,1.88,,,sub-052,45,60,700,bloc_loopcontinue.csv,2023-09-24_10h39.27.858,PainUncertainty,2022.2.5,142.4150459,
grave,forte,stimuli/330Hz,stimuli/forte,bloc_5,prob20hthp_12trials.xlsx,2,24,20,80,0,,,,,0,2,2,2,0,7,7,0,,,,,,,,3.2,337.9442714,341.146063,341.146009,0.3051728,341.5910544,341.5910544,m,0.6748976,344.6242174,344.6242174,20,2.282,,,sub-052,45,60,700,bloc_loopcontinue.csv,2023-09-24_10h39.27.858,PainUncertainty,2022.2.5,142.4150459,
aigu,moderee,stimuli/660Hz,stimuli/moderee,bloc_5,prob20hthp_12trials.xlsx,2,24,20,80,0,,,,,0,2,2,2,0,8,8,7,,,,,,,,4.9,344.6242174,349.528908,349.5288653,0.304983,349.9730755,349.9730755,n,0.6169926,351.590755,351.590755,6,0.928,,,sub-052,45,60,700,bloc_loopcontinue.csv,2023-09-24_10h39.27.858,PainUncertainty,2022.2.5,142.4150459,
aigu,forte,stimuli/660Hz,stimuli/forte,bloc_5,prob20hthp_12trials.xlsx,2,24,20,80,0,,,,,0,2,2,2,0,9,9,11,,,,,,,,4,351.590755,355.5922162,355.5922525,0.3051541,356.0415519,356.0415519,m,0.702908,358.2849005,358.2849005,26,1.49,,,sub-052,45,60,700,bloc_loopcontinue.csv,2023-09-24_10h39.27.858,PainUncertainty,2022.2.5,142.4150459,
grave,forte,stimuli/330Hz,stimuli/forte,bloc_5,prob20hthp_12trials.xlsx,2,24,20,80,0,,,,,0,2,2,2,0,10,10,1,,,,,,,,4.4,358.2849005,362.6902228,362.6901786,0.300908,363.1348649,363.1348649,m,0.6225147,366.1938356,366.1938356,28,2.379,,,sub-052,45,60,700,bloc_loopcontinue.csv,2023-09-24_10h39.27.858,PainUncertainty,2022.2.5,142.4150459,
grave,forte,stimuli/330Hz,stimuli/forte,bloc_5,prob20hthp_12trials.xlsx,2,24,20,80,0,,,,,0,2,2,2,0,11,11,4,,,,,,,,3.3,366.1938356,369.496646,369.4966032,0.3053857,369.9434998,369.9434998,m,1.2209313,374.2944785,374.2944785,21,3.073,,,sub-052,45,60,700,bloc_loopcontinue.csv,2023-09-24_10h39.27.858,PainUncertainty,2022.2.5,142.4150459,
aigu,forte,stimuli/660Hz,stimuli/forte,bloc_5,prob20hthp_12trials.xlsx,2,24,20,80,0,,,,,0,2,2,2,1,0,12,11,,,,,,,,4.1,374.2944785,378.3938869,378.3938116,0.3052576,378.8413344,378.8413344,n,0.4830534,380.8930469,380.8930469,10,1.504,,,sub-052,45,60,700,bloc_loopcontinue.csv,2023-09-24_10h39.27.858,PainUncertainty,2022.2.5,142.4150459,
aigu,moderee,stimuli/660Hz,stimuli/moderee,bloc_5,prob20hthp_12trials.xlsx,2,24,20,80,0,,,,,0,2,2,2,1,1,13,6,,,,,,,,3.4,380.8930469,384.2970316,384.2970017,0.3050929,384.7415297,384.7415297,n,0.4232502,387.0631448,387.0631448,5,1.823,,,sub-052,45,60,700,bloc_loopcontinue.csv,2023-09-24_10h39.27.858,PainUncertainty,2022.2.5,142.4150459,
grave,forte,stimuli/330Hz,stimuli/forte,bloc_5,prob20hthp_12trials.xlsx,2,24,20,80,0,,,,,0,2,2,2,1,2,14,2,,,,,,,,4.6,387.0631448,391.6660837,391.6660207,0.3053315,392.112513,392.112513,m,0.6945546,394.5227663,394.5227663,24,1.656,,,sub-052,45,60,700,bloc_loopcontinue.csv,2023-09-24_10h39.27.858,PainUncertainty,2022.2.5,142.4150459,
grave,forte,stimuli/330Hz,stimuli/forte,bloc_5,prob20hthp_12trials.xlsx,2,24,20,80,0,,,,,0,2,2,2,1,3,15,4,,,,,,,,4.3,394.5227663,398.8270229,398.8271597,0.3044854,399.2708675,399.2708675,m,0.7345437,400.9157603,400.9157603,18,0.835,,,sub-052,45,60,700,bloc_loopcontinue.csv,2023-09-24_10h39.27.858,PainUncertainty,2022.2.5,142.4150459,
aigu,moderee,stimuli/660Hz,stimuli/moderee,bloc_5,prob20hthp_12trials.xlsx,2,24,20,80,0,,,,,0,2,2,2,1,4,16,8,,,,,,,,4.7,400.9157603,405.6191133,405.6191733,0.30503,406.0634895,406.0634895,n,0.4734037,408.6633273,408.6633273,5,2.073,,,sub-052,45,60,700,bloc_loopcontinue.csv,2023-09-24_10h39.27.858,PainUncertainty,2022.2.5,142.4150459,
grave,moderee,stimuli/330Hz,stimuli/moderee,bloc_5,prob20hthp_12trials.xlsx,2,24,20,80,0,,,,,0,2,2,2,1,5,17,5,,,,,,,,4,408.6633273,412.6687171,412.6687117,0.3049352,413.1132413,413.1132413,n,0.4211644,415.4229021,415.4229021,2,1.824,,,sub-052,45,60,700,bloc_loopcontinue.csv,2023-09-24_10h39.27.858,PainUncertainty,2022.2.5,142.4150459,
aigu,moderee,stimuli/660Hz,stimuli/moderee,bloc_5,prob20hthp_12trials.xlsx,2,24,20,80,0,,,,,0,2,2,2,1,6,18,9,,,,,,,,3,415.4229021,418.4262503,418.4262734,0.305254,418.8751103,418.8751103,n,0.3828273,420.1372256,420.1372256,4,0.81,,,sub-052,45,60,700,bloc_loopcontinue.csv,2023-09-24_10h39.27.858,PainUncertainty,2022.2.5,142.4150459,
grave,forte,stimuli/330Hz,stimuli/forte,bloc_5,prob20hthp_12trials.xlsx,2,24,20,80,0,,,,,0,2,2,2,1,7,19,3,,,,,,,,5,420.1372256,425.1424223,425.1423297,0.3050422,425.5865772,425.5865772,m,0.5697825,428.2850813,428.2850813,31,2.071,,,sub-052,45,60,700,bloc_loopcontinue.csv,2023-09-24_10h39.27.858,PainUncertainty,2022.2.5,142.4150459,
grave,forte,stimuli/330Hz,stimuli/forte,bloc_5,prob20hthp_12trials.xlsx,2,24,20,80,0,,,,,0,2,2,2,1,8,20,1,,,,,,,,3.3,428.2850813,431.587728,431.5876743,0.3049641,432.0362464,432.0362464,m,0.8250527,434.4536538,434.4536538,25,1.523,,,sub-052,45,60,700,bloc_loopcontinue.csv,2023-09-24_10h39.27.858,PainUncertainty,2022.2.5,142.4150459,
grave,forte,stimuli/330Hz,stimuli/forte,bloc_5,prob20hthp_12trials.xlsx,2,24,20,80,0,,,,,0,2,2,2,1,9,21,0,,,,,,,,4.9,434.4536538,439.3594169,439.3593322,0.3050793,439.8036001,439.8036001,m,1.0390335,443.1939148,443.1939148,32,2.281,,,sub-052,45,60,700,bloc_loopcontinue.csv,2023-09-24_10h39.27.858,PainUncertainty,2022.2.5,142.4150459,
aigu,moderee,stimuli/660Hz,stimuli/moderee,bloc_5,prob20hthp_12trials.xlsx,2,24,20,80,0,,,,,0,2,2,2,1,10,22,10,,,,,,,,3.8,443.1939148,446.9992171,446.9993563,0.3051099,447.4477103,447.4477103,n,1.0247411,450.5270695,450.5270695,1,1.997,,,sub-052,45,60,700,bloc_loopcontinue.csv,2023-09-24_10h39.27.858,PainUncertainty,2022.2.5,142.4150459,
aigu,moderee,stimuli/660Hz,stimuli/moderee,bloc_5,prob20hthp_12trials.xlsx,2,24,20,80,0,,,,,0,2,2,2,1,11,23,7,,,,,,,,3.4,450.5270695,453.9305395,453.9305682,0.3050887,454.3747739,454.3747739,n,0.9616446,457.686881,457.686881,1,2.29,,,sub-052,45,60,700,bloc_loopcontinue.csv,2023-09-24_10h39.27.858,PainUncertainty,2022.2.5,142.4150459,
grave,moderee,stimuli/330Hz,stimuli/moderee,bloc_6,prob50_50_4trials.xlsx,2,8,50,50,0,,,,,0,3,3,3,0,0,0,0,,,,,,,,4.4,457.686881,462.0912982,462.0912805,0.3050868,462.5354884,462.5354884,n,1.8416514,469.5425673,469.5425673,7,5.093,,,sub-052,45,60,700,bloc_loopcontinue.csv,2023-09-24_10h39.27.858,PainUncertainty,2022.2.5,142.4150459,
aigu,forte,stimuli/660Hz,stimuli/forte,bloc_6,prob50_50_4trials.xlsx,2,8,50,50,0,,,,,0,3,3,3,0,1,1,3,,,,,,,,3.1,469.5425673,472.6481213,472.6481468,0.3050321,473.0923916,473.0923916,m,2.258498,477.708316,477.708316,36,2.29,,,sub-052,45,60,700,bloc_loopcontinue.csv,2023-09-24_10h39.27.858,PainUncertainty,2022.2.5,142.4150459,
grave,forte,stimuli/330Hz,stimuli/forte,bloc_6,prob50_50_4trials.xlsx,2,8,50,50,0,,,,,0,3,3,3,0,2,2,1,,,,,,,,3.5,477.708316,481.2119837,481.2119947,0.3009774,481.6568141,481.6568141,m,1.071805,483.6662442,483.6662442,27,0.866,,,sub-052,45,60,700,bloc_loopcontinue.csv,2023-09-24_10h39.27.858,PainUncertainty,2022.2.5,142.4150459,
aigu,moderee,stimuli/660Hz,stimuli/moderee,bloc_6,prob50_50_4trials.xlsx,2,8,50,50,0,,,,,0,3,3,3,0,3,3,2,,,,,,,,4.1,483.6662442,487.767978,487.7679908,0.3050447,488.2121995,488.2121995,n,0.4811508,489.4035944,489.4035944,10,0.655,,,sub-052,45,60,700,bloc_loopcontinue.csv,2023-09-24_10h39.27.858,PainUncertainty,2022.2.5,142.4150459,
aigu,moderee,stimuli/660Hz,stimuli/moderee,bloc_6,prob50_50_4trials.xlsx,2,8,50,50,0,,,,,0,3,3,3,1,0,4,2,,,,,,,,4.3,489.4035944,493.7062354,493.7061911,0.2999103,494.149237,494.149237,n,0.3737325,496.3218876,496.3218876,5,1.734,,,sub-052,45,60,700,bloc_loopcontinue.csv,2023-09-24_10h39.27.858,PainUncertainty,2022.2.5,142.4150459,
grave,moderee,stimuli/330Hz,stimuli/moderee,bloc_6,prob50_50_4trials.xlsx,2,8,50,50,0,,,,,0,3,3,3,1,1,5,0,,,,,,,,3.4,496.3218876,499.7211479,499.7215332,0.3047468,500.165484,500.165484,n,0.5304805,502.5691897,502.5691897,4,1.802,,,sub-052,45,60,700,bloc_loopcontinue.csv,2023-09-24_10h39.27.858,PainUncertainty,2022.2.5,142.4150459,
grave,forte,stimuli/330Hz,stimuli/forte,bloc_6,prob50_50_4trials.xlsx,2,8,50,50,0,,,,,0,3,3,3,1,2,6,1,,,,,,,,3.8,502.5691897,506.3744764,506.3745283,0.3049463,506.8187175,506.8187175,m,1.1573156,509.2477849,509.2477849,27,1.213,,,sub-052,45,60,700,bloc_loopcontinue.csv,2023-09-24_10h39.27.858,PainUncertainty,2022.2.5,142.4150459,
aigu,forte,stimuli/660Hz,stimuli/forte,bloc_6,prob50_50_4trials.xlsx,2,8,50,50,0,,,,,0,3,3,3,1,3,7,3,,,,,,,,3.3,509.2477849,512.5488194,512.5487685,0.3051378,512.993025,512.993025,n,0.4884933,516.0076579,516.0076579,8,2.464,,,sub-052,45,60,700,bloc_loopcontinue.csv,2023-09-24_10h39.27.858,PainUncertainty,2022.2.5,142.4150459,
grave,forte,stimuli/330Hz,stimuli/forte,bloc_7,prob80hthp_12trials.xlsx,2,24,80,20,0,,,,,0,4,4,4,0,0,0,5,,,,,,,,4.8,516.0076579,520.8068738,520.8067419,0.3052051,521.250988,521.250988,m,0.6816809,522.8137424,522.8137424,18,0.803,,,sub-052,45,60,700,bloc_loopcontinue.csv,2023-09-24_10h39.27.858,PainUncertainty,2022.2.5,142.4150459,
grave,moderee,stimuli/330Hz,stimuli/moderee,bloc_7,prob80hthp_12trials.xlsx,2,24,80,20,0,,,,,0,4,4,4,0,1,1,4,,,,,,,,4.7,522.8137424,527.5158806,527.5159518,0.3051178,527.9601118,527.9601118,n,1.312392,531.2177323,531.2177323,5,1.894,,,sub-052,45,60,700,bloc_loopcontinue.csv,2023-09-24_10h39.27.858,PainUncertainty,2022.2.5,142.4150459,
grave,moderee,stimuli/330Hz,stimuli/moderee,bloc_7,prob80hthp_12trials.xlsx,2,24,80,20,0,,,,,0,4,4,4,0,2,2,1,,,,,,,,3.4,531.2177323,534.621124,534.6210936,0.3049749,535.0652775,535.0652775,n,1.0391926,538.058457,538.058457,5,1.872,,,sub-052,45,60,700,bloc_loopcontinue.csv,2023-09-24_10h39.27.858,PainUncertainty,2022.2.5,142.4150459,
aigu,forte,stimuli/660Hz,stimuli/forte,bloc_7,prob80hthp_12trials.xlsx,2,24,80,20,0,,,,,0,4,4,4,0,3,3,7,,,,,,,,3,538.058457,541.0593585,541.0593206,0.2992395,541.4976517,541.4976517,m,1.6137711,544.6903656,544.6903656,34,1.497,,,sub-052,45,60,700,bloc_loopcontinue.csv,2023-09-24_10h39.27.858,PainUncertainty,2022.2.5,142.4150459,
grave,moderee,stimuli/330Hz,stimuli/moderee,bloc_7,prob80hthp_12trials.xlsx,2,24,80,20,0,,,,,0,4,4,4,0,4,4,0,,,,,,,,4.3,544.6903656,548.990959,548.9908701,0.3046709,549.4350151,549.4350151,n,1.0268953,551.7672846,551.7672846,6,1.247,,,sub-052,45,60,700,bloc_loopcontinue.csv,2023-09-24_10h39.27.858,PainUncertainty,2022.2.5,142.4150459,
aigu,moderee,stimuli/660Hz,stimuli/moderee,bloc_7,prob80hthp_12trials.xlsx,2,24,80,20,0,,,,,0,4,4,4,0,5,5,11,,,,,,,,3.9,551.7672846,555.6725016,555.6724342,0.3050048,556.1163217,556.1163217,n,0.903328,558.5760134,558.5760134,8,1.473,,,sub-052,45,60,700,bloc_loopcontinue.csv,2023-09-24_10h39.27.858,PainUncertainty,2022.2.5,142.4150459,
aigu,forte,stimuli/660Hz,stimuli/forte,bloc_7,prob80hthp_12trials.xlsx,2,24,80,20,0,,,,,0,4,4,4,0,6,6,6,,,,,,,,5,558.5760134,563.5759822,563.5760054,0.3049408,564.0204004,564.0204004,n,0.5978058,567.1858208,567.1858208,4,2.503,,,sub-052,45,60,700,bloc_loopcontinue.csv,2023-09-24_10h39.27.858,PainUncertainty,2022.2.5,142.4150459,
aigu,forte,stimuli/660Hz,stimuli/forte,bloc_7,prob80hthp_12trials.xlsx,2,24,80,20,0,,,,,0,4,4,4,0,7,7,9,,,,,,,,3.3,567.1858208,570.4868335,570.4867935,0.3049293,570.9306585,570.9306585,n,0.5207627,572.9549382,572.9549382,4,1.448,,,sub-052,45,60,700,bloc_loopcontinue.csv,2023-09-24_10h39.27.858,PainUncertainty,2022.2.5,142.4150459,
aigu,forte,stimuli/660Hz,stimuli/forte,bloc_7,prob80hthp_12trials.xlsx,2,24,80,20,0,,,,,0,4,4,4,0,8,8,8,,,,,,,,3.1,572.9549382,576.0566465,576.056637,0.3049977,576.5011833,576.5011833,m,0.617827,577.9727849,577.9727849,21,0.774,,,sub-052,45,60,700,bloc_loopcontinue.csv,2023-09-24_10h39.27.858,PainUncertainty,2022.2.5,142.4150459,
grave,moderee,stimuli/330Hz,stimuli/moderee,bloc_7,prob80hthp_12trials.xlsx,2,24,80,20,0,,,,,0,4,4,4,0,9,9,3,,,,,,,,3.4,577.9727849,581.3767363,581.3766198,0.3051384,581.820912,581.820912,n,0.417405,585.0031745,585.0031745,2,2.698,,,sub-052,45,60,700,bloc_loopcontinue.csv,2023-09-24_10h39.27.858,PainUncertainty,2022.2.5,142.4150459,
aigu,forte,stimuli/660Hz,stimuli/forte,bloc_7,prob80hthp_12trials.xlsx,2,24,80,20,0,,,,,0,4,4,4,0,10,10,10,,,,,,,,4.9,585.0031745,589.9060012,589.906149,0.3048625,590.3526004,590.3526004,m,0.7569174,592.7048774,592.7048774,33,1.525,,,sub-052,45,60,700,bloc_loopcontinue.csv,2023-09-24_10h39.27.858,PainUncertainty,2022.2.5,142.4150459,
grave,moderee,stimuli/330Hz,stimuli/moderee,bloc_7,prob80hthp_12trials.xlsx,2,24,80,20,0,,,,,0,4,4,4,0,11,11,2,,,,,,,,4,592.7048774,596.704971,596.7051249,0.3049402,597.1541939,597.1541939,n,1.1363371,600.0384145,600.0384145,4,1.686,,,sub-052,45,60,700,bloc_loopcontinue.csv,2023-09-24_10h39.27.858,PainUncertainty,2022.2.5,142.4150459,
grave,moderee,stimuli/330Hz,stimuli/moderee,bloc_7,prob80hthp_12trials.xlsx,2,24,80,20,0,,,,,0,4,4,4,1,0,12,2,,,,,,,,4.2,600.0384145,604.2407908,604.2406322,0.3049276,604.6848129,604.6848129,n,0.4651924,607.2606348,607.2606348,2,2.058,,,sub-052,45,60,700,bloc_loopcontinue.csv,2023-09-24_10h39.27.858,PainUncertainty,2022.2.5,142.4150459,
grave,moderee,stimuli/330Hz,stimuli/moderee,bloc_7,prob80hthp_12trials.xlsx,2,24,80,20,0,,,,,0,4,4,4,1,1,13,3,,,,,,,,3.2,607.2606348,610.4637727,610.4636071,0.3055855,610.9108472,610.9108472,n,0.4896905,612.1828418,612.1828418,2,0.706,,,sub-052,45,60,700,bloc_loopcontinue.csv,2023-09-24_10h39.27.858,PainUncertainty,2022.2.5,142.4150459,
aigu,forte,stimuli/660Hz,stimuli/forte,bloc_7,prob80hthp_12trials.xlsx,2,24,80,20,0,,,,,0,4,4,4,1,2,14,10,,,,,,,,4.8,612.1828418,616.9853192,616.9852361,0.3051964,617.429624,617.429624,m,0.9754088,621.2902571,621.2902571,21,2.816,,,sub-052,45,60,700,bloc_loopcontinue.csv,2023-09-24_10h39.27.858,PainUncertainty,2022.2.5,142.4150459,
aigu,forte,stimuli/660Hz,stimuli/forte,bloc_7,prob80hthp_12trials.xlsx,2,24,80,20,0,,,,,0,4,4,4,1,3,15,6,,,,,,,,4.4,621.2902571,625.6945654,625.6944501,0.3053827,626.1388139,626.1388139,m,0.8248575,629.3102114,629.3102114,33,2.288,,,sub-052,45,60,700,bloc_loopcontinue.csv,2023-09-24_10h39.27.858,PainUncertainty,2022.2.5,142.4150459,
grave,forte,stimuli/330Hz,stimuli/forte,bloc_7,prob80hthp_12trials.xlsx,2,24,80,20,0,,,,,0,4,4,4,1,4,16,5,,,,,,,,5,629.3102114,634.3141015,634.3140785,0.2990298,634.7543934,634.7543934,n,0.4414235,637.9700751,637.9700751,2,2.727,,,sub-052,45,60,700,bloc_loopcontinue.csv,2023-09-24_10h39.27.858,PainUncertainty,2022.2.5,142.4150459,
aigu,forte,stimuli/660Hz,stimuli/forte,bloc_7,prob80hthp_12trials.xlsx,2,24,80,20,0,,,,,0,4,4,4,1,5,17,7,,,,,,,,4,637.9700751,641.9744985,641.9744716,0.3051068,642.4186668,642.4186668,n,0.5525566,644.9047386,644.9047386,3,1.858,,,sub-052,45,60,700,bloc_loopcontinue.csv,2023-09-24_10h39.27.858,PainUncertainty,2022.2.5,142.4150459,
grave,moderee,stimuli/330Hz,stimuli/moderee,bloc_7,prob80hthp_12trials.xlsx,2,24,80,20,0,,,,,0,4,4,4,1,6,18,0,,,,,,,,3.7,644.9047386,648.6071339,648.6071366,0.305652,649.0563219,649.0563219,n,0.4416724,651.7918156,651.7918156,0,2.233,,,sub-052,45,60,700,bloc_loopcontinue.csv,2023-09-24_10h39.27.858,PainUncertainty,2022.2.5,142.4150459,
grave,moderee,stimuli/330Hz,stimuli/moderee,bloc_7,prob80hthp_12trials.xlsx,2,24,80,20,0,,,,,0,4,4,4,1,7,19,1,,,,,,,,4.2,651.7918156,655.9972966,655.9972105,0.304894,656.4413638,656.4413638,n,0.4199506,659.2214591,659.2214591,2,2.301,,,sub-052,45,60,700,bloc_loopcontinue.csv,2023-09-24_10h39.27.858,PainUncertainty,2022.2.5,142.4150459,
grave,moderee,stimuli/330Hz,stimuli/moderee,bloc_7,prob80hthp_12trials.xlsx,2,24,80,20,0,,,,,0,4,4,4,1,8,20,4,,,,,,,,4.4,659.2214591,663.6229368,663.6229584,0.3050946,664.074246,664.074246,n,0.3184207,667.4373323,667.4373323,0,2.968,,,sub-052,45,60,700,bloc_loopcontinue.csv,2023-09-24_10h39.27.858,PainUncertainty,2022.2.5,142.4150459,
aigu,forte,stimuli/660Hz,stimuli/forte,bloc_7,prob80hthp_12trials.xlsx,2,24,80,20,0,,,,,0,4,4,4,1,9,21,8,,,,,,,,5,667.4373323,672.4364753,672.4363998,0.3050348,672.8806347,672.8806347,m,0.758717,676.2885962,676.2885962,35,2.581,,,sub-052,45,60,700,bloc_loopcontinue.csv,2023-09-24_10h39.27.858,PainUncertainty,2022.2.5,142.4150459,
aigu,forte,stimuli/660Hz,stimuli/forte,bloc_7,prob80hthp_12trials.xlsx,2,24,80,20,0,,,,,0,4,4,4,1,10,22,9,,,,,,,,3.5,676.2885962,679.791551,679.7915384,0.3050595,680.2358384,680.2358384,m,2.1544286,684.6450738,684.6450738,32,2.17,,,sub-052,45,60,700,bloc_loopcontinue.csv,2023-09-24_10h39.27.858,PainUncertainty,2022.2.5,142.4150459,
aigu,moderee,stimuli/660Hz,stimuli/moderee,bloc_7,prob80hthp_12trials.xlsx,2,24,80,20,0,,,,,0,4,4,4,1,11,23,11,,,,,,,,3.3,684.6450738,687.9453415,687.9452684,0.3051979,688.3895871,688.3895871,n,1.0746472,690.6829587,690.6829587,8,1.165,,,sub-052,45,60,700,bloc_loopcontinue.csv,2023-09-24_10h39.27.858,PainUncertainty,2022.2.5,142.4150459,
grave,moderee,stimuli/330Hz,stimuli/moderee,bloc_8,prob50_50_4trials.xlsx,3,12,50,50,0,,,,,0,5,5,5,0,0,0,0,,,,,,,,4.7,690.6829587,695.3840654,695.3839907,0.3050715,695.8280493,695.8280493,n,0.7497691,698.6259674,698.6259674,8,1.976,,,sub-052,45,60,700,bloc_loopcontinue.csv,2023-09-24_10h39.27.858,PainUncertainty,2022.2.5,142.4150459,
grave,forte,stimuli/330Hz,stimuli/forte,bloc_8,prob50_50_4trials.xlsx,3,12,50,50,0,,,,,0,5,5,5,0,1,1,1,,,,,,,,4.8,698.6259674,703.4263531,703.4263103,0.3051195,703.8705237,703.8705237,m,0.8470726,706.2783124,706.2783124,12,1.504,,,sub-052,45,60,700,bloc_loopcontinue.csv,2023-09-24_10h39.27.858,PainUncertainty,2022.2.5,142.4150459,
aigu,forte,stimuli/660Hz,stimuli/forte,bloc_8,prob50_50_4trials.xlsx,3,12,50,50,0,,,,,0,5,5,5,0,2,2,3,,,,,,,,4.1,706.2783124,710.378609,710.3785993,0.3057444,710.8280655,710.8280655,n,2.0791232,715.9160369,715.9160369,14,2.934,,,sub-052,45,60,700,bloc_loopcontinue.csv,2023-09-24_10h39.27.858,PainUncertainty,2022.2.5,142.4150459,
aigu,moderee,stimuli/660Hz,stimuli/moderee,bloc_8,prob50_50_4trials.xlsx,3,12,50,50,0,,,,,0,5,5,5,0,3,3,2,,,,,,,,3.2,715.9160369,719.1162852,719.1163138,0.3047275,719.560286,719.560286,n,0.6779497,723.0091901,723.0091901,5,2.699,,,sub-052,45,60,700,bloc_loopcontinue.csv,2023-09-24_10h39.27.858,PainUncertainty,2022.2.5,142.4150459,
aigu,forte,stimuli/660Hz,stimuli/forte,bloc_8,prob50_50_4trials.xlsx,3,12,50,50,0,,,,,0,5,5,5,1,0,4,3,,,,,,,,4.4,723.0091901,727.4084135,727.408425,0.3051067,727.8526904,727.8526904,m,0.9569287,731.59032,731.59032,21,2.698,,,sub-052,45,60,700,bloc_loopcontinue.csv,2023-09-24_10h39.27.858,PainUncertainty,2022.2.5,142.4150459,
aigu,moderee,stimuli/660Hz,stimuli/moderee,bloc_8,prob50_50_4trials.xlsx,3,12,50,50,0,,,,,0,5,5,5,1,1,5,2,,,,,,,,4.7,731.59032,736.2916264,736.2915418,0.3050294,736.7382387,736.7382387,n,1.4387516,740.2656934,740.2656934,5,2.016,,,sub-052,45,60,700,bloc_loopcontinue.csv,2023-09-24_10h39.27.858,PainUncertainty,2022.2.5,142.4150459,
grave,forte,stimuli/330Hz,stimuli/forte,bloc_8,prob50_50_4trials.xlsx,3,12,50,50,0,,,,,0,5,5,5,1,2,6,1,,,,,,,,4,740.2656934,744.2646617,744.2647054,0.3054448,744.7126338,744.7126338,m,1.3456192,747.6787664,747.6787664,26,1.544,,,sub-052,45,60,700,bloc_loopcontinue.csv,2023-09-24_10h39.27.858,PainUncertainty,2022.2.5,142.4150459,
grave,moderee,stimuli/330Hz,stimuli/moderee,bloc_8,prob50_50_4trials.xlsx,3,12,50,50,0,,,,,0,5,5,5,1,3,7,0,,,,,,,,3.6,747.6787664,751.2798962,751.2798725,0.3028307,751.7256904,751.7256904,n,0.3961634,753.6076907,753.6076907,5,1.412,,,sub-052,45,60,700,bloc_loopcontinue.csv,2023-09-24_10h39.27.858,PainUncertainty,2022.2.5,142.4150459,
aigu,forte,stimuli/660Hz,stimuli/forte,bloc_8,prob50_50_4trials.xlsx,3,12,50,50,0,,,,,0,5,5,5,2,0,8,3,,,,,,,,3.5,753.6076907,757.1134879,757.1134898,0.3050671,757.5576472,757.5576472,None,,761.8053769,761.8053769,24,1.739,,,sub-052,45,60,700,bloc_loopcontinue.csv,2023-09-24_10h39.27.858,PainUncertainty,2022.2.5,142.4150459,
grave,forte,stimuli/330Hz,stimuli/forte,bloc_8,prob50_50_4trials.xlsx,3,12,50,50,0,,,,,0,5,5,5,2,1,9,1,,,,,,,,4.3,761.8053769,766.1080104,766.1078593,0.3049542,766.552012,766.552012,m,0.9094457,768.8832725,768.8832725,24,1.345,,,sub-052,45,60,700,bloc_loopcontinue.csv,2023-09-24_10h39.27.858,PainUncertainty,2022.2.5,142.4150459,
grave,moderee,stimuli/330Hz,stimuli/moderee,bloc_8,prob50_50_4trials.xlsx,3,12,50,50,0,,,,,0,5,5,5,2,2,10,0,,,,,,,,5,768.8832725,773.8865243,773.8864768,0.3049171,774.3306796,774.3306796,n,0.8467205,778.29286,778.29286,4,3.067,,,sub-052,45,60,700,bloc_loopcontinue.csv,2023-09-24_10h39.27.858,PainUncertainty,2022.2.5,142.4150459,
aigu,moderee,stimuli/660Hz,stimuli/moderee,bloc_8,prob50_50_4trials.xlsx,3,12,50,50,0,,,,,0,5,5,5,2,3,11,2,,,,,,,,4.9,778.29286,783.1931773,783.1933069,0.3046717,783.6374597,783.6374597,n,0.7133334,785.8689267,785.8689267,5,1.454,,,sub-052,45,60,700,bloc_loopcontinue.csv,2023-09-24_10h39.27.858,PainUncertainty,2022.2.5,142.4150459,
aigu,moderee,stimuli/660Hz,stimuli/moderee,bloc_9,prob20hthp_12trials.xlsx,3,36,80,20,0,,,,,0,6,6,6,0,0,0,7,,,,,,,,4.2,785.8689267,790.0695423,790.0696217,0.3044296,790.513081,790.513081,n,0.5871335,792.770918,792.770918,6,1.587,,,sub-052,45,60,700,bloc_loopcontinue.csv,2023-09-24_10h39.27.858,PainUncertainty,2022.2.5,142.4150459,
grave,forte,stimuli/330Hz,stimuli/forte,bloc_9,prob20hthp_12trials.xlsx,3,36,80,20,0,,,,,0,6,6,6,0,1,1,2,,,,,,,,4.9,792.770918,797.6740055,797.6739957,0.3051821,798.1181282,798.1181282,m,0.6569442,800.2663548,800.2663548,40,1.413,,,sub-052,45,60,700,bloc_loopcontinue.csv,2023-09-24_10h39.27.858,PainUncertainty,2022.2.5,142.4150459,
aigu,moderee,stimuli/660Hz,stimuli/moderee,bloc_9,prob20hthp_12trials.xlsx,3,36,80,20,0,,,,,0,6,6,6,0,2,2,10,,,,,,,,4,800.2663548,804.2720897,804.2720027,0.3054713,804.7206877,804.7206877,n,0.6552013,806.2887853,806.2887853,0,0.843,,,sub-052,45,60,700,bloc_loopcontinue.csv,2023-09-24_10h39.27.858,PainUncertainty,2022.2.5,142.4150459,
grave,forte,stimuli/330Hz,stimuli/forte,bloc_9,prob20hthp_12trials.xlsx,3,36,80,20,0,,,,,0,6,6,6,0,3,3,3,,,,,,,,3.6,806.2887853,809.8908799,809.8908718,0.3049425,810.3350716,810.3350716,m,1.3069797,813.8623323,813.8623323,20,2.164,,,sub-052,45,60,700,bloc_loopcontinue.csv,2023-09-24_10h39.27.858,PainUncertainty,2022.2.5,142.4150459,
grave,forte,stimuli/330Hz,stimuli/forte,bloc_9,prob20hthp_12trials.xlsx,3,36,80,20,0,,,,,0,6,6,6,0,4,4,0,,,,,,,,5,813.8623323,818.8643875,818.8644319,0.304904,819.3083827,819.3083827,m,1.3697418,821.8373953,821.8373953,26,1.073,,,sub-052,45,60,700,bloc_loopcontinue.csv,2023-09-24_10h39.27.858,PainUncertainty,2022.2.5,142.4150459,
aigu,moderee,stimuli/660Hz,stimuli/moderee,bloc_9,prob20hthp_12trials.xlsx,3,36,80,20,0,,,,,0,6,6,6,0,5,5,8,,,,,,,,4.4,821.8373953,826.239989,826.240014,0.2991048,826.6776556,826.6776556,n,1.157817,829.4573989,829.4573989,16,1.545,,,sub-052,45,60,700,bloc_loopcontinue.csv,2023-09-24_10h39.27.858,PainUncertainty,2022.2.5,142.4150459,
grave,forte,stimuli/330Hz,stimuli/forte,bloc_9,prob20hthp_12trials.xlsx,3,36,80,20,0,,,,,0,6,6,6,0,6,6,1,,,,,,,,4.1,829.4573989,833.5608402,833.5609772,0.3014128,834.0054338,834.0054338,m,1.2655329,836.9022886,836.9022886,30,1.566,,,sub-052,45,60,700,bloc_loopcontinue.csv,2023-09-24_10h39.27.858,PainUncertainty,2022.2.5,142.4150459,
aigu,forte,stimuli/660Hz,stimuli/forte,bloc_9,prob20hthp_12trials.xlsx,3,36,80,20,0,,,,,0,6,6,6,0,7,7,11,,,,,,,,4.8,836.9022886,841.7071556,841.7071374,0.3051219,842.1513898,842.1513898,m,0.8095086,844.8909191,844.8909191,38,1.881,,,sub-052,45,60,700,bloc_loopcontinue.csv,2023-09-24_10h39.27.858,PainUncertainty,2022.2.5,142.4150459,
grave,forte,stimuli/330Hz,stimuli/forte,bloc_9,prob20hthp_12trials.xlsx,3,36,80,20,0,,,,,0,6,6,6,0,8,8,4,,,,,,,,3.5,844.8909191,848.3954685,848.395455,0.3050282,848.8397908,848.8397908,m,1.0253516,851.795517,851.795517,32,1.852,,,sub-052,45,60,700,bloc_loopcontinue.csv,2023-09-24_10h39.27.858,PainUncertainty,2022.2.5,142.4150459,
aigu,moderee,stimuli/660Hz,stimuli/moderee,bloc_9,prob20hthp_12trials.xlsx,3,36,80,20,0,,,,,0,6,6,6,0,9,9,9,,,,,,,,4.5,851.795517,856.2992978,856.2991847,0.305166,856.7437591,856.7437591,n,0.9901088,859.4001683,859.4001683,1,1.61,,,sub-052,45,60,700,bloc_loopcontinue.csv,2023-09-24_10h39.27.858,PainUncertainty,2022.2.5,142.4150459,
grave,moderee,stimuli/330Hz,stimuli/moderee,bloc_9,prob20hthp_12trials.xlsx,3,36,80,20,0,,,,,0,6,6,6,0,10,10,5,,,,,,,,4.9,859.4001683,864.3006407,864.3021003,0.3033872,864.7444209,864.7444209,n,1.1611828,867.2615509,867.2615509,4,1.288,,,sub-052,45,60,700,bloc_loopcontinue.csv,2023-09-24_10h39.27.858,PainUncertainty,2022.2.5,142.4150459,
aigu,moderee,stimuli/660Hz,stimuli/moderee,bloc_9,prob20hthp_12trials.xlsx,3,36,80,20,0,,,,,0,6,6,6,0,11,11,6,,,,,,,,4.9,867.2615509,872.162592,872.1624772,0.3050061,872.6064622,872.6064622,n,0.4784627,875.2667717,875.2667717,6,2.12,,,sub-052,45,60,700,bloc_loopcontinue.csv,2023-09-24_10h39.27.858,PainUncertainty,2022.2.5,142.4150459,
grave,moderee,stimuli/330Hz,stimuli/moderee,bloc_9,prob20hthp_12trials.xlsx,3,36,80,20,0,,,,,0,6,6,6,1,0,12,5,,,,,,,,4.5,875.2667717,879.7675206,879.7673569,0.3047246,880.2115322,880.2115322,n,0.4580064,881.5962003,881.5962003,4,0.858,,,sub-052,45,60,700,bloc_loopcontinue.csv,2023-09-24_10h39.27.858,PainUncertainty,2022.2.5,142.4150459,
grave,forte,stimuli/330Hz,stimuli/forte,bloc_9,prob20hthp_12trials.xlsx,3,36,80,20,0,,,,,0,6,6,6,1,1,13,0,,,,,,,,3,881.5962003,884.6015584,884.6015244,0.2996667,885.0438923,885.0438923,m,1.1320426,888.8964584,888.8964584,29,2.657,,,sub-052,45,60,700,bloc_loopcontinue.csv,2023-09-24_10h39.27.858,PainUncertainty,2022.2.5,142.4150459,
grave,forte,stimuli/330Hz,stimuli/forte,bloc_9,prob20hthp_12trials.xlsx,3,36,80,20,0,,,,,0,6,6,6,1,2,14,4,,,,,,,,4,888.8964584,892.9015791,892.9016016,0.3010425,893.3458878,893.3458878,n,1.2020529,895.3846182,895.3846182,9,0.753,,,sub-052,45,60,700,bloc_loopcontinue.csv,2023-09-24_10h39.27.858,PainUncertainty,2022.2.5,142.4150459,
aigu,moderee,stimuli/660Hz,stimuli/moderee,bloc_9,prob20hthp_12trials.xlsx,3,36,80,20,0,,,,,0,6,6,6,1,3,15,10,,,,,,,,4.9,895.3846182,900.2840559,900.2841143,0.3050889,900.732369,900.732369,n,0.4695486,902.7179067,902.7179067,4,1.441,,,sub-052,45,60,700,bloc_loopcontinue.csv,2023-09-24_10h39.27.858,PainUncertainty,2022.2.5,142.4150459,
grave,forte,stimuli/330Hz,stimuli/forte,bloc_9,prob20hthp_12trials.xlsx,3,36,80,20,0,,,,,0,6,6,6,1,4,16,1,,,,,,,,4.5,902.7179067,907.2221956,907.2221968,0.304901,907.6664683,907.6664683,m,0.7797268,909.7960501,909.7960501,25,1.281,,,sub-052,45,60,700,bloc_loopcontinue.csv,2023-09-24_10h39.27.858,PainUncertainty,2022.2.5,142.4150459,
grave,forte,stimuli/330Hz,stimuli/forte,bloc_9,prob20hthp_12trials.xlsx,3,36,80,20,0,,,,,0,6,6,6,1,5,17,3,,,,,,,,4.5,909.7960501,914.300174,914.2998845,0.3054184,914.7492293,914.7492293,m,1.0769119,918.2492703,918.2492703,35,2.349,,,sub-052,45,60,700,bloc_loopcontinue.csv,2023-09-24_10h39.27.858,PainUncertainty,2022.2.5,142.4150459,
aigu,moderee,stimuli/660Hz,stimuli/moderee,bloc_9,prob20hthp_12trials.xlsx,3,36,80,20,0,,,,,0,6,6,6,1,6,18,8,,,,,,,,3,918.2492703,921.2515229,921.2515197,0.3051173,921.6959704,921.6959704,n,0.6544586,924.8482647,924.8482647,2,2.441,,,sub-052,45,60,700,bloc_loopcontinue.csv,2023-09-24_10h39.27.858,PainUncertainty,2022.2.5,142.4150459,
aigu,moderee,stimuli/660Hz,stimuli/moderee,bloc_9,prob20hthp_12trials.xlsx,3,36,80,20,0,,,,,0,6,6,6,1,7,19,9,,,,,,,,3.3,924.8482647,928.1482344,928.1481909,0.3050175,928.5977116,928.5977116,n,0.9007189,931.4633213,931.4633213,5,1.908,,,sub-052,45,60,700,bloc_loopcontinue.csv,2023-09-24_10h39.27.858,PainUncertainty,2022.2.5,142.4150459,
aigu,moderee,stimuli/660Hz,stimuli/moderee,bloc_9,prob20hthp_12trials.xlsx,3,36,80,20,0,,,,,0,6,6,6,1,8,20,6,,,,,,,,3.9,931.4633213,935.3645409,935.3644183,0.3050637,935.8085933,935.8085933,n,0.4368321,937.1505396,937.1505396,4,0.851,,,sub-052,45,60,700,bloc_loopcontinue.csv,2023-09-24_10h39.27.858,PainUncertainty,2022.2.5,142.4150459,
aigu,moderee,stimuli/660Hz,stimuli/moderee,bloc_9,prob20hthp_12trials.xlsx,3,36,80,20,0,,,,,0,6,6,6,1,9,21,7,,,,,,,,4.5,937.1505396,941.6499578,941.6497166,0.3051827,942.0939093,942.0939093,n,0.47008,943.3024042,943.3024042,3,0.663,,,sub-052,45,60,700,bloc_loopcontinue.csv,2023-09-24_10h39.27.858,PainUncertainty,2022.2.5,142.4150459,
aigu,forte,stimuli/660Hz,stimuli/forte,bloc_9,prob20hthp_12trials.xlsx,3,36,80,20,0,,,,,0,6,6,6,1,10,22,11,,,,,,,,4.7,943.3024042,948.0056456,948.0049661,0.3052632,948.4526552,948.4526552,n,0.9740657,953.2586596,953.2586596,2,3.769,,,sub-052,45,60,700,bloc_loopcontinue.csv,2023-09-24_10h39.27.858,PainUncertainty,2022.2.5,142.4150459,
grave,forte,stimuli/330Hz,stimuli/forte,bloc_9,prob20hthp_12trials.xlsx,3,36,80,20,0,,,,,0,6,6,6,1,11,23,2,,,,,,,,4.4,953.2586596,957.6586547,957.6586154,0.3051444,958.1028414,958.1028414,m,0.5126284,959.8719826,959.8719826,21,1.198,,,sub-052,45,60,700,bloc_loopcontinue.csv,2023-09-24_10h39.27.858,PainUncertainty,2022.2.5,142.4150459,
grave,forte,stimuli/330Hz,stimuli/forte,bloc_9,prob20hthp_12trials.xlsx,3,36,80,20,0,,,,,0,6,6,6,2,0,24,1,,,,,,,,3.7,959.8719826,963.5763821,963.5762765,0.3050497,964.0202693,964.0202693,m,0.6421429,966.5531135,966.5531135,26,1.816,,,sub-052,45,60,700,bloc_loopcontinue.csv,2023-09-24_10h39.27.858,PainUncertainty,2022.2.5,142.4150459,
aigu,moderee,stimuli/660Hz,stimuli/moderee,bloc_9,prob20hthp_12trials.xlsx,3,36,80,20,0,,,,,0,6,6,6,2,1,25,8,,,,,,,,3.2,966.5531135,969.7579701,969.7575948,0.3053842,970.2057539,970.2057539,n,0.9622407,974.2060167,974.2060167,0,2.97,,,sub-052,45,60,700,bloc_loopcontinue.csv,2023-09-24_10h39.27.858,PainUncertainty,2022.2.5,142.4150459,
aigu,moderee,stimuli/660Hz,stimuli/moderee,bloc_9,prob20hthp_12trials.xlsx,3,36,80,20,0,,,,,0,6,6,6,2,2,26,9,,,,,,,,4.4,974.2060167,978.6056188,978.6056061,0.3052412,979.0497899,979.0497899,n,1.0254298,981.4590812,981.4590812,0,1.323,,,sub-052,45,60,700,bloc_loopcontinue.csv,2023-09-24_10h39.27.858,PainUncertainty,2022.2.5,142.4150459,
aigu,moderee,stimuli/660Hz,stimuli/moderee,bloc_9,prob20hthp_12trials.xlsx,3,36,80,20,0,,,,,0,6,6,6,2,3,27,6,,,,,,,,3.3,981.4590812,984.7594957,984.75952,0.3014103,985.2047796,985.2047796,n,0.7101166,988.2996478,988.2996478,0,2.302,,,sub-052,45,60,700,bloc_loopcontinue.csv,2023-09-24_10h39.27.858,PainUncertainty,2022.2.5,142.4150459,
aigu,forte,stimuli/660Hz,stimuli/forte,bloc_9,prob20hthp_12trials.xlsx,3,36,80,20,0,,,,,0,6,6,6,2,4,28,11,,,,,,,,3,988.2996478,991.3016244,991.3015783,0.3051112,991.7457764,991.7457764,m,0.7327622,994.3723346,994.3723346,24,1.81,,,sub-052,45,60,700,bloc_loopcontinue.csv,2023-09-24_10h39.27.858,PainUncertainty,2022.2.5,142.4150459,
aigu,moderee,stimuli/660Hz,stimuli/moderee,bloc_9,prob20hthp_12trials.xlsx,3,36,80,20,0,,,,,0,6,6,6,2,5,29,7,,,,,,,,4.8,994.3723346,999.1774632,999.1774751,0.2993525,999.6159492,999.6159492,n,0.6885889,1002.504991,1002.504991,4,2.115,,,sub-052,45,60,700,bloc_loopcontinue.csv,2023-09-24_10h39.27.858,PainUncertainty,2022.2.5,142.4150459,
grave,forte,stimuli/330Hz,stimuli/forte,bloc_9,prob20hthp_12trials.xlsx,3,36,80,20,0,,,,,0,6,6,6,2,6,30,4,,,,,,,,3.6,1002.504991,1006.10898,1006.108876,0.3052612,1006.553179,1006.553179,None,,1010.795419,1010.795419,25,1.738,,,sub-052,45,60,700,bloc_loopcontinue.csv,2023-09-24_10h39.27.858,PainUncertainty,2022.2.5,142.4150459,
grave,forte,stimuli/330Hz,stimuli/forte,bloc_9,prob20hthp_12trials.xlsx,3,36,80,20,0,,,,,0,6,6,6,2,7,31,0,,,,,,,,4.2,1010.795419,1014.998835,1014.99886,0.3051133,1015.443724,1015.443724,m,0.6816381,1018.081522,1018.081522,28,1.894,,,sub-052,45,60,700,bloc_loopcontinue.csv,2023-09-24_10h39.27.858,PainUncertainty,2022.2.5,142.4150459,
grave,forte,stimuli/330Hz,stimuli/forte,bloc_9,prob20hthp_12trials.xlsx,3,36,80,20,0,,,,,0,6,6,6,2,8,32,3,,,,,,,,3.1,1018.081522,1021.187106,1021.187213,0.3049393,1021.635762,1021.635762,m,1.3361376,1023.978304,1023.978304,32,0.928,,,sub-052,45,60,700,bloc_loopcontinue.csv,2023-09-24_10h39.27.858,PainUncertainty,2022.2.5,142.4150459,
grave,moderee,stimuli/330Hz,stimuli/moderee,bloc_9,prob20hthp_12trials.xlsx,3,36,80,20,0,,,,,0,6,6,6,2,9,33,5,,,,,,,,3.1,1023.978304,1027.083712,1027.083703,0.3049722,1027.52812,1027.52812,n,0.8512784,1030.562201,1030.562201,1,2.118,,,sub-052,45,60,700,bloc_loopcontinue.csv,2023-09-24_10h39.27.858,PainUncertainty,2022.2.5,142.4150459,
aigu,moderee,stimuli/660Hz,stimuli/moderee,bloc_9,prob20hthp_12trials.xlsx,3,36,80,20,0,,,,,0,6,6,6,2,10,34,10,,,,,,,,4.5,1030.562201,1035.063816,1035.063726,0.3051872,1035.508012,1035.508012,n,0.8813814,1038.247493,1038.247493,6,1.781,,,sub-052,45,60,700,bloc_loopcontinue.csv,2023-09-24_10h39.27.858,PainUncertainty,2022.2.5,142.4150459,
grave,forte,stimuli/330Hz,stimuli/forte,bloc_9,prob20hthp_12trials.xlsx,3,36,80,20,0,,,,,0,6,6,6,2,11,35,2,,,,,,,,4.1,1038.247493,1042.349241,1042.349194,0.3053588,1042.793592,1042.793592,n,1.2350171,1045.932814,1045.932814,4,1.881,,,sub-052,45,60,700,bloc_loopcontinue.csv,2023-09-24_10h39.27.858,PainUncertainty,2022.2.5,142.4150459,