cue_,stimulus_,cue_fichier,stimulus_fichier,block_name,block_trials_file,block_n_reps,block_ntrials,block_prob_highP_highT,block_prob_highP_lowT,block_pause_after,Bloc_essai.thisRepN,Bloc_essai.thisTrialN,Bloc_essai.thisN,Bloc_essai.thisIndex,blocks.thisRepN,blocks.thisTrialN,blocks.thisN,blocks.thisIndex,trials.thisRepN,trials.thisTrialN,trials.thisN,trials.thisIndex,pause_loop.thisRepN,pause_loop.thisTrialN,pause_loop.thisN,pause_loop.thisIndex,key_resp_5.started,start_calib.started,key_resp_2.started,ISI_duration,pause.started,pause.stopped,cue.started,ISI.started,choice_pain.started,Choice.started,choice_pain.keys,choice_pain.rt,main_text.started,confirm_text.started,ratingScale.response,ratingScale.rt,choice_pain.stopped,Choice.stopped,key_resp_3.started,key_resp_6.started,participant,low_ma,high_ma,failsafe_ma,block_file,date,expName,psychopyVersion,frameRate
aigu,forte,stimuli/660Hz,stimuli/forte,,,,,,,,0,0,0,3,,,,,,,,,,,,,14.8658347,142.1078715,182.967122,4.1,186.6099846,190.7220394,190.7184655,0.3054333,191.1567072,191.1567072,m,1.441238,194.7287266,194.7287266,13,2.055,,,,,sub-022,30,60,700,bloc_loop.csv,2023-06-12_17h12.38.776,PainUncertainty,2022.2.5,143.2792025
grave,forte,stimuli/330Hz,stimuli/forte,,,,,,,,0,1,1,1,,,,,,,,,,,,,,,,4.8,194.7287266,199.5315152,199.5317062,0.3052009,199.9759323,199.9759323,m,1.8117282,205.1342049,205.1342049,14,3.296,,,,,sub-022,30,60,700,bloc_loop.csv,2023-06-12_17h12.38.776,PainUncertainty,2022.2.5,143.2792025
aigu,moderee,stimuli/660Hz,stimuli/moderee,,,,,,,,0,2,2,2,,,,,,,,,,,,,,,,4.3,205.1342049,209.4356274,209.4357671,0.3076386,209.8872666,209.8872666,n,1.5853596,213.7030982,213.7030982,10,2.171,,,,,sub-022,30,60,700,bloc_loop.csv,2023-06-12_17h12.38.776,PainUncertainty,2022.2.5,143.2792025
grave,moderee,stimuli/330Hz,stimuli/moderee,,,,,,,,0,3,3,0,,,,,,,,,,,,,,,,4.7,213.7030982,218.4019614,218.4021086,0.3049523,218.8461861,218.8461861,n,1.0635534,225.0360971,225.0360971,9,5.103,,,,,sub-022,30,60,700,bloc_loop.csv,2023-06-12_17h12.38.776,PainUncertainty,2022.2.5,143.2792025
grave,forte,stimuli/330Hz,stimuli/forte,bloc_1,prob20hthp_12trials.xlsx,4,48,20,80,0,,,,,0,0,0,0,0,0,0,1,,,,,,,,3.7,271.8720877,275.5755047,275.5755483,0.3053223,276.0223406,276.0223406,m,1.8045535,281.782675,281.782675,14,3.887,,,,,sub-022,30,60,700,bloc_loop.csv,2023-06-12_17h12.38.776,PainUncertainty,2022.2.5,143.2792025
aigu,moderee,stimuli/660Hz,stimuli/moderee,bloc_1,prob20hthp_12trials.xlsx,4,48,20,80,0,,,,,0,0,0,0,0,1,1,6,,,,,,,,5,281.782675,286.7851581,286.7851593,0.3051946,287.229567,287.229567,n,0.6559778,291.6131197,291.6131197,1,3.665,,,,,sub-022,30,60,700,bloc_loop.csv,2023-06-12_17h12.38.776,PainUncertainty,2022.2.5,143.2792025
grave,forte,stimuli/330Hz,stimuli/forte,bloc_1,prob20hthp_12trials.xlsx,4,48,20,80,0,,,,,0,0,0,0,0,2,2,2,,,,,,,,4.3,291.6131197,295.9182802,295.91822,0.3051382,296.3628428,296.3628428,m,0.9502244,299.574693,299.574693,9,2.198,,,,,sub-022,30,60,700,bloc_loop.csv,2023-06-12_17h12.38.776,PainUncertainty,2022.2.5,143.2792025
aigu,forte,stimuli/660Hz,stimuli/forte,bloc_1,prob20hthp_12trials.xlsx,4,48,20,80,0,,,,,0,0,0,0,0,3,3,11,,,,,,,,3.5,299.574693,303.0791205,303.0798506,0.3038925,303.5230404,303.5230404,m,0.9753887,311.2421204,311.2421204,17,6.679,,,,,sub-022,30,60,700,bloc_loop.csv,2023-06-12_17h12.38.776,PainUncertainty,2022.2.5,143.2792025
aigu,moderee,stimuli/660Hz,stimuli/moderee,bloc_1,prob20hthp_12trials.xlsx,4,48,20,80,0,,,,,0,0,0,0,0,4,4,7,,,,,,,,3.6,311.2421204,314.8441197,314.8441116,0.3053053,315.2956973,315.2956973,n,0.689044,318.8363147,318.8363147,1,2.79,,,,,sub-022,30,60,700,bloc_loop.csv,2023-06-12_17h12.38.776,PainUncertainty,2022.2.5,143.2792025
grave,forte,stimuli/330Hz,stimuli/forte,bloc_1,prob20hthp_12trials.xlsx,4,48,20,80,0,,,,,0,0,0,0,0,5,5,0,,,,,,,,3.7,318.8363147,322.5398059,322.5397809,0.3049699,322.9835991,322.9835991,m,0.8752626,326.9402661,326.9402661,16,3.033,,,,,sub-022,30,60,700,bloc_loop.csv,2023-06-12_17h12.38.776,PainUncertainty,2022.2.5,143.2792025
aigu,moderee,stimuli/660Hz,stimuli/moderee,bloc_1,prob20hthp_12trials.xlsx,4,48,20,80,0,,,,,0,0,0,0,0,6,6,8,,,,,,,,4.8,326.9402661,331.7420847,331.7419591,0.3052548,332.1934628,332.1934628,n,0.5856996,339.2463317,339.2463317,2,6.403,,,,,sub-022,30,60,700,bloc_loop.csv,2023-06-12_17h12.38.776,PainUncertainty,2022.2.5,143.2792025
grave,forte,stimuli/330Hz,stimuli/forte,bloc_1,prob20hthp_12trials.xlsx,4,48,20,80,0,,,,,0,0,0,0,0,7,7,3,,,,,,,,3.1,339.2463317,342.347301,342.3472111,0.3054324,342.7916242,342.7916242,m,0.7571768,347.7990576,347.7990576,10,4.194,,,,,sub-022,30,60,700,bloc_loop.csv,2023-06-12_17h12.38.776,PainUncertainty,2022.2.5,143.2792025
aigu,moderee,stimuli/660Hz,stimuli/moderee,bloc_1,prob20hthp_12trials.xlsx,4,48,20,80,0,,,,,0,0,0,0,0,8,8,10,,,,,,,,3,347.7990576,350.7997976,350.7997994,0.3053023,351.2511553,351.2511553,n,0.618616,353.90468,353.90468,0,1.983,,,,,sub-022,30,60,700,bloc_loop.csv,2023-06-12_17h12.38.776,PainUncertainty,2022.2.5,143.2792025
grave,forte,stimuli/330Hz,stimuli/forte,bloc_1,prob20hthp_12trials.xlsx,4,48,20,80,0,,,,,0,0,0,0,0,9,9,4,,,,,,,,5,353.90468,358.9056263,358.9054121,0.304927,359.3494409,359.3494409,m,0.8498323,363.463792,363.463792,10,3.207,,,,,sub-022,30,60,700,bloc_loop.csv,2023-06-12_17h12.38.776,PainUncertainty,2022.2.5,143.2792025
grave,moderee,stimuli/330Hz,stimuli/moderee,bloc_1,prob20hthp_12trials.xlsx,4,48,20,80,0,,,,,0,0,0,0,0,10,10,5,,,,,,,,4.2,363.463792,367.6629774,367.6631202,0.3048866,368.1072159,368.1072159,n,0.5910019,372.2074323,372.2074323,0,3.462,,,,,sub-022,30,60,700,bloc_loop.csv,2023-06-12_17h12.38.776,PainUncertainty,2022.2.5,143.2792025
aigu,moderee,stimuli/660Hz,stimuli/moderee,bloc_1,prob20hthp_12trials.xlsx,4,48,20,80,0,,,,,0,0,0,0,0,11,11,9,,,,,,,,3.7,372.2074323,375.9070509,375.9070819,0.3053724,376.3559542,376.3559542,n,0.9863417,381.4468157,381.4468157,0,4.053,,,,,sub-022,30,60,700,bloc_loop.csv,2023-06-12_17h12.38.776,PainUncertainty,2022.2.5,143.2792025
aigu,moderee,stimuli/660Hz,stimuli/moderee,bloc_1,prob20hthp_12trials.xlsx,4,48,20,80,0,,,,,0,0,0,0,1,0,12,8,,,,,,,,3.8,381.4468157,385.2484894,385.2485647,0.2991665,385.6871982,385.6871982,None,,392.3344034,392.3344034,6,4.143,388.1538012,388.1538012,,,sub-022,30,60,700,bloc_loop.csv,2023-06-12_17h12.38.776,PainUncertainty,2022.2.5,143.2792025
aigu,moderee,stimuli/660Hz,stimuli/moderee,bloc_1,prob20hthp_12trials.xlsx,4,48,20,80,0,,,,,0,0,0,0,1,1,13,7,,,,,,,,3.6,392.3344034,395.937519,395.939625,0.3028232,396.3814913,396.3814913,n,0.8752526,401.2040831,401.2040831,3,3.9,,,,,sub-022,30,60,700,bloc_loop.csv,2023-06-12_17h12.38.776,PainUncertainty,2022.2.5,143.2792025
grave,forte,stimuli/330Hz,stimuli/forte,bloc_1,prob20hthp_12trials.xlsx,4,48,20,80,0,,,,,0,0,0,0,1,2,14,2,,,,,,,,3.4,401.2040831,404.6050666,404.6050433,0.3047523,405.0492101,405.0492101,m,0.7402391,408.7028018,408.7028018,14,2.852,,,,,sub-022,30,60,700,bloc_loop.csv,2023-06-12_17h12.38.776,PainUncertainty,2022.2.5,143.2792025
aigu,moderee,stimuli/660Hz,stimuli/moderee,bloc_1,prob20hthp_12trials.xlsx,4,48,20,80,0,,,,,0,0,0,0,1,3,15,9,,,,,,,,4.2,408.7028018,412.9046827,412.9047829,0.3049439,413.3490074,413.3490074,n,0.9876706,420.2104507,420.2104507,0,5.769,,,,,sub-022,30,60,700,bloc_loop.csv,2023-06-12_17h12.38.776,PainUncertainty,2022.2.5,143.2792025
grave,moderee,stimuli/330Hz,stimuli/moderee,bloc_1,prob20hthp_12trials.xlsx,4,48,20,80,0,,,,,0,0,0,0,1,4,16,5,,,,,,,,3.8,420.2104507,424.010205,424.0102902,0.3049129,424.4543286,424.4543286,n,0.8079276,429.6572218,429.6572218,0,4.333,,,,,sub-022,30,60,700,bloc_loop.csv,2023-06-12_17h12.38.776,PainUncertainty,2022.2.5,143.2792025
aigu,moderee,stimuli/660Hz,stimuli/moderee,bloc_1,prob20hthp_12trials.xlsx,4,48,20,80,0,,,,,0,0,0,0,1,5,17,10,,,,,,,,4,429.6572218,433.6578625,433.6577837,0.3061791,434.1090368,434.1090368,None,,440.1608632,440.1608632,8,3.547,,,,,sub-022,30,60,700,bloc_loop.csv,2023-06-12_17h12.38.776,PainUncertainty,2022.2.5,143.2792025
grave,forte,stimuli/330Hz,stimuli/forte,bloc_1,prob20hthp_12trials.xlsx,4,48,20,80,0,,,,,0,0,0,0,1,6,18,1,,,,,,,,4.7,440.1608632,444.8667903,444.8669459,0.3047701,445.3111676,445.3111676,m,0.8094296,449.1430939,449.1430939,22,2.963,,,,,sub-022,30,60,700,bloc_loop.csv,2023-06-12_17h12.38.776,PainUncertainty,2022.2.5,143.2792025
aigu,moderee,stimuli/660Hz,stimuli/moderee,bloc_1,prob20hthp_12trials.xlsx,4,48,20,80,0,,,,,0,0,0,0,1,7,19,6,,,,,,,,5,449.1430939,454.1456433,454.1457223,0.3049882,454.5898612,454.5898612,n,0.8462266,459.4072311,459.4072311,4,3.899,,,,,sub-022,30,60,700,bloc_loop.csv,2023-06-12_17h12.38.776,PainUncertainty,2022.2.5,143.2792025
aigu,forte,stimuli/660Hz,stimuli/forte,bloc_1,prob20hthp_12trials.xlsx,4,48,20,80,0,,,,,0,0,0,0,1,8,20,11,,,,,,,,3.4,459.4072311,462.8065288,462.8067875,0.3046433,463.2510087,463.2510087,m,0.7694563,471.3937907,471.3937907,25,7.31,,,,,sub-022,30,60,700,bloc_loop.csv,2023-06-12_17h12.38.776,PainUncertainty,2022.2.5,143.2792025
grave,forte,stimuli/330Hz,stimuli/forte,bloc_1,prob20hthp_12trials.xlsx,4,48,20,80,0,,,,,0,0,0,0,1,9,21,0,,,,,,,,4.4,471.3937907,475.7941805,475.794229,0.3049274,476.2425207,476.2425207,m,0.8322108,480.6324803,480.6324803,28,3.504,,,,,sub-022,30,60,700,bloc_loop.csv,2023-06-12_17h12.38.776,PainUncertainty,2022.2.5,143.2792025
grave,forte,stimuli/330Hz,stimuli/forte,bloc_1,prob20hthp_12trials.xlsx,4,48,20,80,0,,,,,0,0,0,0,1,10,22,3,,,,,,,,4,480.6324803,484.6360941,484.6359351,0.3050088,485.0833091,485.0833091,m,1.021122,489.4243903,489.4243903,29,3.262,,,,,sub-022,30,60,700,bloc_loop.csv,2023-06-12_17h12.38.776,PainUncertainty,2022.2.5,143.2792025
grave,forte,stimuli/330Hz,stimuli/forte,bloc_1,prob20hthp_12trials.xlsx,4,48,20,80,0,,,,,0,0,0,0,1,11,23,4,,,,,,,,4.3,489.4243903,493.7269831,493.7269607,0.3013737,494.1714357,494.1714357,m,0.7244072,498.2477168,498.2477168,30,3.297,,,,,sub-022,30,60,700,bloc_loop.csv,2023-06-12_17h12.38.776,PainUncertainty,2022.2.5,143.2792025
aigu,moderee,stimuli/660Hz,stimuli/moderee,bloc_1,prob20hthp_12trials.xlsx,4,48,20,80,0,,,,,0,0,0,0,2,0,24,10,,,,,,,,4.9,498.2477168,503.1517415,503.1517375,0.3047786,503.6000189,503.6000189,n,1.4122488,512.3303438,512.3303438,3,7.262,,,,,sub-022,30,60,700,bloc_loop.csv,2023-06-12_17h12.38.776,PainUncertainty,2022.2.5,143.2792025
aigu,forte,stimuli/660Hz,stimuli/forte,bloc_1,prob20hthp_12trials.xlsx,4,48,20,80,0,,,,,0,0,0,0,2,1,25,11,,,,,,,,3.4,512.3303438,515.7299147,515.7311773,0.3037394,516.1739283,516.1739283,m,1.3084413,519.6847045,519.6847045,20,2.143,,,,,sub-022,30,60,700,bloc_loop.csv,2023-06-12_17h12.38.776,PainUncertainty,2022.2.5,143.2792025
aigu,moderee,stimuli/660Hz,stimuli/moderee,bloc_1,prob20hthp_12trials.xlsx,4,48,20,80,0,,,,,0,0,0,0,2,2,26,9,,,,,,,,4.2,519.6847045,523.8903063,523.8903108,0.3049998,524.3345807,524.3345807,n,1.448932,530.2492736,530.2492736,1,4.415,,,,,sub-022,30,60,700,bloc_loop.csv,2023-06-12_17h12.38.776,PainUncertainty,2022.2.5,143.2792025
grave,forte,stimuli/330Hz,stimuli/forte,bloc_1,prob20hthp_12trials.xlsx,4,48,20,80,0,,,,,0,0,0,0,2,3,27,1,,,,,,,,3.7,530.2492736,533.9539046,533.954073,0.3049756,534.3983254,534.3983254,m,0.8102611,544.1415738,544.1415738,31,8.858,,,,,sub-022,30,60,700,bloc_loop.csv,2023-06-12_17h12.38.776,PainUncertainty,2022.2.5,143.2792025
aigu,moderee,stimuli/660Hz,stimuli/moderee,bloc_1,prob20hthp_12trials.xlsx,4,48,20,80,0,,,,,0,0,0,0,2,4,28,6,,,,,,,,3.5,544.1415738,547.6433609,547.6432052,0.3057184,548.0925757,548.0925757,n,0.8765133,553.044509,553.044509,2,4.011,,,,,sub-022,30,60,700,bloc_loop.csv,2023-06-12_17h12.38.776,PainUncertainty,2022.2.5,143.2792025
grave,forte,stimuli/330Hz,stimuli/forte,bloc_1,prob20hthp_12trials.xlsx,4,48,20,80,0,,,,,0,0,0,0,2,5,29,4,,,,,,,,4.1,553.044509,557.144514,557.1444577,0.3051725,557.5888312,557.5888312,m,0.7972146,561.1797486,561.1797486,25,2.741,,,,,sub-022,30,60,700,bloc_loop.csv,2023-06-12_17h12.38.776,PainUncertainty,2022.2.5,143.2792025
grave,forte,stimuli/330Hz,stimuli/forte,bloc_1,prob20hthp_12trials.xlsx,4,48,20,80,0,,,,,0,0,0,0,2,6,30,0,,,,,,,,3.6,561.1797486,564.7841166,564.7841808,0.3049615,565.228526,565.228526,m,0.9251632,568.7560914,568.7560914,23,2.54,,,,,sub-022,30,60,700,bloc_loop.csv,2023-06-12_17h12.38.776,PainUncertainty,2022.2.5,143.2792025
grave,forte,stimuli/330Hz,stimuli/forte,bloc_1,prob20hthp_12trials.xlsx,4,48,20,80,0,,,,,0,0,0,0,2,7,31,3,,,,,,,,3.3,568.7560914,572.0558788,572.0558899,0.299923,572.5007439,572.5007439,m,0.9752938,577.7099527,577.7099527,27,4.178,,,,,sub-022,30,60,700,bloc_loop.csv,2023-06-12_17h12.38.776,PainUncertainty,2022.2.5,143.2792025
grave,forte,stimuli/330Hz,stimuli/forte,bloc_1,prob20hthp_12trials.xlsx,4,48,20,80,0,,,,,0,0,0,0,2,8,32,2,,,,,,,,4.1,577.7099527,581.8143808,581.814262,0.3052978,582.2624219,582.2624219,None,,588.1309533,588.1309533,21,3.363,,,,,sub-022,30,60,700,bloc_loop.csv,2023-06-12_17h12.38.776,PainUncertainty,2022.2.5,143.2792025
grave,moderee,stimuli/330Hz,stimuli/moderee,bloc_1,prob20hthp_12trials.xlsx,4,48,20,80,0,,,,,0,0,0,0,2,9,33,5,,,,,,,,4.8,588.1309533,592.9334193,592.9333598,0.3053139,593.3775952,593.3775952,n,0.722715,596.7450861,596.7450861,1,2.589,,,,,sub-022,30,60,700,bloc_loop.csv,2023-06-12_17h12.38.776,PainUncertainty,2022.2.5,143.2792025
aigu,moderee,stimuli/660Hz,stimuli/moderee,bloc_1,prob20hthp_12trials.xlsx,4,48,20,80,0,,,,,0,0,0,0,2,10,34,8,,,,,,,,4.7,596.7450861,601.448475,601.4483842,0.3048806,601.8962357,601.8962357,n,0.8182242,605.9535389,605.9535389,3,3.172,,,,,sub-022,30,60,700,bloc_loop.csv,2023-06-12_17h12.38.776,PainUncertainty,2022.2.5,143.2792025
aigu,moderee,stimuli/660Hz,stimuli/moderee,bloc_1,prob20hthp_12trials.xlsx,4,48,20,80,0,,,,,0,0,0,0,2,11,35,7,,,,,,,,3,605.9535389,608.9563173,608.9562532,0.3049585,609.4008066,609.4008066,n,0.8191011,615.4962627,615.4962627,3,5.227,,,,,sub-022,30,60,700,bloc_loop.csv,2023-06-12_17h12.38.776,PainUncertainty,2022.2.5,143.2792025
grave,forte,stimuli/330Hz,stimuli/forte,bloc_1,prob20hthp_12trials.xlsx,4,48,20,80,0,,,,,0,0,0,0,3,0,36,3,,,,,,,,3.5,615.4962627,618.9993039,618.999603,0.3006936,619.4434234,619.4434234,m,0.7282635,626.0150648,626.0150648,18,5.769,,,,,sub-022,30,60,700,bloc_loop.csv,2023-06-12_17h12.38.776,PainUncertainty,2022.2.5,143.2792025
aigu,moderee,stimuli/660Hz,stimuli/moderee,bloc_1,prob20hthp_12trials.xlsx,4,48,20,80,0,,,,,0,0,0,0,3,1,37,9,,,,,,,,3.4,626.0150648,629.4171019,629.417332,0.2990861,629.8619424,629.8619424,n,0.7519604,634.9024033,634.9024033,0,4.235,,,,,sub-022,30,60,700,bloc_loop.csv,2023-06-12_17h12.38.776,PainUncertainty,2022.2.5,143.2792025
aigu,moderee,stimuli/660Hz,stimuli/moderee,bloc_1,prob20hthp_12trials.xlsx,4,48,20,80,0,,,,,0,0,0,0,3,2,38,10,,,,,,,,4.4,634.9024033,639.307553,639.3077254,0.3048884,639.75498,639.75498,n,0.8808196,646.7784698,646.7784698,3,6.068,,,,,sub-022,30,60,700,bloc_loop.csv,2023-06-12_17h12.38.776,PainUncertainty,2022.2.5,143.2792025
aigu,forte,stimuli/660Hz,stimuli/forte,bloc_1,prob20hthp_12trials.xlsx,4,48,20,80,0,,,,,0,0,0,0,3,3,39,11,,,,,,,,3.4,646.7784698,650.1834149,650.1835681,0.305102,650.6278116,650.6278116,m,1.1319614,656.0022395,656.0022395,17,4.185,,,,,sub-022,30,60,700,bloc_loop.csv,2023-06-12_17h12.38.776,PainUncertainty,2022.2.5,143.2792025
aigu,moderee,stimuli/660Hz,stimuli/moderee,bloc_1,prob20hthp_12trials.xlsx,4,48,20,80,0,,,,,0,0,0,0,3,4,40,7,,,,,,,,3.3,656.0022395,659.3026576,659.3026268,0.3049492,659.746818,659.746818,n,0.7371237,665.6877655,665.6877655,1,5.138,,,,,sub-022,30,60,700,bloc_loop.csv,2023-06-12_17h12.38.776,PainUncertainty,2022.2.5,143.2792025
aigu,moderee,stimuli/660Hz,stimuli/moderee,bloc_1,prob20hthp_12trials.xlsx,4,48,20,80,0,,,,,0,0,0,0,3,5,41,8,,,,,,,,5,665.6877655,670.6933443,670.6934744,0.3046436,671.1417542,671.1417542,n,0.7170706,675.1837518,675.1837518,1,3.274,,,,,sub-022,30,60,700,bloc_loop.csv,2023-06-12_17h12.38.776,PainUncertainty,2022.2.5,143.2792025
grave,moderee,stimuli/330Hz,stimuli/moderee,bloc_1,prob20hthp_12trials.xlsx,4,48,20,80,0,,,,,0,0,0,0,3,6,42,5,,,,,,,,5,675.1837518,680.1871102,680.187159,0.3051815,680.6314733,680.6314733,n,0.7726502,684.4707422,684.4707422,1,3.013,,,,,sub-022,30,60,700,bloc_loop.csv,2023-06-12_17h12.38.776,PainUncertainty,2022.2.5,143.2792025
aigu,moderee,stimuli/660Hz,stimuli/moderee,bloc_1,prob20hthp_12trials.xlsx,4,48,20,80,0,,,,,0,0,0,0,3,7,43,6,,,,,,,,4.8,684.4707422,689.2715273,689.2715425,0.3050292,689.7157117,689.7157117,n,0.8144011,695.2435317,695.2435317,4,4.659,,,,,sub-022,30,60,700,bloc_loop.csv,2023-06-12_17h12.38.776,PainUncertainty,2022.2.5,143.2792025
grave,forte,stimuli/330Hz,stimuli/forte,bloc_1,prob20hthp_12trials.xlsx,4,48,20,80,0,,,,,0,0,0,0,3,8,44,1,,,,,,,,4.2,695.2435317,699.4464267,699.4465695,0.305392,699.8911355,699.8911355,m,0.9901399,702.5168242,702.5168242,20,1.574,,,,,sub-022,30,60,700,bloc_loop.csv,2023-06-12_17h12.38.776,PainUncertainty,2022.2.5,143.2792025
grave,forte,stimuli/330Hz,stimuli/forte,bloc_1,prob20hthp_12trials.xlsx,4,48,20,80,0,,,,,0,0,0,0,3,9,45,0,,,,,,,,3.3,702.5168242,705.8222459,705.8223104,0.3050168,706.2701582,706.2701582,m,0.7485472,710.6058437,710.6058437,23,3.526,,,,,sub-022,30,60,700,bloc_loop.csv,2023-06-12_17h12.38.776,PainUncertainty,2022.2.5,143.2792025
grave,forte,stimuli/330Hz,stimuli/forte,bloc_1,prob20hthp_12trials.xlsx,4,48,20,80,0,,,,,0,0,0,0,3,10,46,2,,,,,,,,4,710.6058437,714.6083887,714.6082581,0.2990303,715.04594,715.04594,m,0.7509403,718.486103,718.486103,22,2.623,,,,,sub-022,30,60,700,bloc_loop.csv,2023-06-12_17h12.38.776,PainUncertainty,2022.2.5,143.2792025
grave,forte,stimuli/330Hz,stimuli/forte,bloc_1,prob20hthp_12trials.xlsx,4,48,20,80,0,,,,,0,0,0,0,3,11,47,4,,,,,,,,3.9,718.486103,722.3868909,722.3868246,0.3048406,722.8309846,722.8309846,m,0.78274,725.7429632,725.7429632,23,2.067,,,,,sub-022,30,60,700,bloc_loop.csv,2023-06-12_17h12.38.776,PainUncertainty,2022.2.5,143.2792025
grave,forte,stimuli/330Hz,stimuli/forte,bloc_2,prob50_50_4trials.xlsx,2,8,50,50,1,,,,,0,1,1,1,0,0,0,1,,,,,,,,4.7,725.7429632,730.4432545,730.4432942,0.3049862,730.8874335,730.8874335,m,0.783838,734.566101,734.566101,20,2.839,,,,,sub-022,30,60,700,bloc_loop.csv,2023-06-12_17h12.38.776,PainUncertainty,2022.2.5,143.2792025
aigu,moderee,stimuli/660Hz,stimuli/moderee,bloc_2,prob50_50_4trials.xlsx,2,8,50,50,1,,,,,0,1,1,1,0,1,1,2,,,,,,,,4.5,734.566101,739.0693651,739.0695658,0.3046022,739.5174228,739.5174228,n,0.8545894,744.1104215,744.1104215,2,3.677,,,,,sub-022,30,60,700,bloc_loop.csv,2023-06-12_17h12.38.776,PainUncertainty,2022.2.5,143.2792025
grave,moderee,stimuli/330Hz,stimuli/moderee,bloc_2,prob50_50_4trials.xlsx,2,8,50,50,1,,,,,0,1,1,1,0,2,2,0,,,,,,,,3,744.1104215,747.1119663,747.1120456,0.3049778,747.5563219,747.5563219,n,1.2308383,752.7887708,752.7887708,2,3.948,,,,,sub-022,30,60,700,bloc_loop.csv,2023-06-12_17h12.38.776,PainUncertainty,2022.2.5,143.2792025
aigu,forte,stimuli/660Hz,stimuli/forte,bloc_2,prob50_50_4trials.xlsx,2,8,50,50,1,,,,,0,1,1,1,0,3,3,3,,,,,,,,5,752.7887708,757.7943104,757.7940987,0.3053652,758.2419161,758.2419161,m,1.3859641,765.067397,765.067397,15,5.372,,,,,sub-022,30,60,700,bloc_loop.csv,2023-06-12_17h12.38.776,PainUncertainty,2022.2.5,143.2792025
grave,moderee,stimuli/330Hz,stimuli/moderee,bloc_2,prob50_50_4trials.xlsx,2,8,50,50,1,,,,,0,1,1,1,1,0,4,0,,,,,,,,4.9,765.067397,769.9688857,769.9688556,0.3052008,770.4130516,770.4130516,n,0.8187326,772.8189664,772.8189664,2,1.533,,,,,sub-022,30,60,700,bloc_loop.csv,2023-06-12_17h12.38.776,PainUncertainty,2022.2.5,143.2792025
grave,forte,stimuli/330Hz,stimuli/forte,bloc_2,prob50_50_4trials.xlsx,2,8,50,50,1,,,,,0,1,1,1,1,1,5,1,,,,,,,,4.6,772.8189664,777.4212541,777.4213883,0.3047363,777.8655025,777.8655025,m,1.1205566,782.1853204,782.1853204,15,3.138,,,,,sub-022,30,60,700,bloc_loop.csv,2023-06-12_17h12.38.776,PainUncertainty,2022.2.5,143.2792025
aigu,moderee,stimuli/660Hz,stimuli/moderee,bloc_2,prob50_50_4trials.xlsx,2,8,50,50,1,,,,,0,1,1,1,1,2,6,2,,,,,,,,4.1,782.1853204,786.2907968,786.2912226,0.2996817,786.7351678,786.7351678,n,0.908615,792.239898,792.239898,0,4.545,,,,,sub-022,30,60,700,bloc_loop.csv,2023-06-12_17h12.38.776,PainUncertainty,2022.2.5,143.2792025
aigu,forte,stimuli/660Hz,stimuli/forte,bloc_2,prob50_50_4trials.xlsx,2,8,50,50,1,,,,,0,1,1,1,1,3,7,3,,,,,,,,4.4,792.239898,796.6388664,796.6390397,0.3009871,797.0835436,797.0835436,m,0.9509273,801.8920179,801.8920179,27,1.828,,,,,sub-022,30,60,700,bloc_loop.csv,2023-06-12_17h12.38.776,PainUncertainty,2022.2.5,143.2792025
,,,,bloc_2,prob50_50_4trials.xlsx,2,8,50,50,1,,,,,0,1,1,1,,,,,0,0,0,0,,,,,,,,,,,,,,,,,,,801.8920179,825.8157788,sub-022,30,60,700,bloc_loop.csv,2023-06-12_17h12.38.776,PainUncertainty,2022.2.5,143.2792025
grave,moderee,stimuli/330Hz,stimuli/moderee,bloc_3,prob80hthp_12trials.xlsx,2,24,80,20,0,,,,,0,2,2,2,0,0,0,1,,,,,,,,3.9,827.1214494,831.0253998,831.0258531,0.3044316,831.4730737,831.4730737,n,0.6347473,834.1204897,834.1204897,3,1.965,,,,,sub-022,30,60,700,bloc_loop.csv,2023-06-12_17h12.38.776,PainUncertainty,2022.2.5,143.2792025
aigu,forte,stimuli/660Hz,stimuli/forte,bloc_3,prob80hthp_12trials.xlsx,2,24,80,20,0,,,,,0,2,2,2,0,1,1,7,,,,,,,,4,834.1204897,838.1234369,838.1235299,0.3046316,838.5676121,838.5676121,m,0.8235196,842.5928299,842.5928299,17,3.143,,,,,sub-022,30,60,700,bloc_loop.csv,2023-06-12_17h12.38.776,PainUncertainty,2022.2.5,143.2792025
aigu,forte,stimuli/660Hz,stimuli/forte,bloc_3,prob80hthp_12trials.xlsx,2,24,80,20,0,,,,,0,2,2,2,0,2,2,10,,,,,,,,3.5,842.5928299,846.0962337,846.0962882,0.3048856,846.5403376,846.5403376,m,0.839673,848.8931516,848.8931516,24,1.448,,,,,sub-022,30,60,700,bloc_loop.csv,2023-06-12_17h12.38.776,PainUncertainty,2022.2.5,143.2792025
aigu,forte,stimuli/660Hz,stimuli/forte,bloc_3,prob80hthp_12trials.xlsx,2,24,80,20,0,,,,,0,2,2,2,0,3,3,6,,,,,,,,4.5,848.8931516,853.3959732,853.3960283,0.3047611,853.8399857,853.8399857,m,0.8243016,855.9581338,855.9581338,20,1.227,,,,,sub-022,30,60,700,bloc_loop.csv,2023-06-12_17h12.38.776,PainUncertainty,2022.2.5,143.2792025
aigu,forte,stimuli/660Hz,stimuli/forte,bloc_3,prob80hthp_12trials.xlsx,2,24,80,20,0,,,,,0,2,2,2,0,4,4,9,,,,,,,,4.3,855.9581338,860.2576393,860.2576779,0.3050456,860.7017775,860.7017775,m,0.9753065,864.6372865,864.6372865,20,2.895,,,,,sub-022,30,60,700,bloc_loop.csv,2023-06-12_17h12.38.776,PainUncertainty,2022.2.5,143.2792025
grave,moderee,stimuli/330Hz,stimuli/moderee,bloc_3,prob80hthp_12trials.xlsx,2,24,80,20,0,,,,,0,2,2,2,0,5,5,3,,,,,,,,4.1,864.6372865,868.7381747,868.7383365,0.3024386,869.1838686,869.1838686,n,0.7963839,872.0863265,872.0863265,2,2.046,,,,,sub-022,30,60,700,bloc_loop.csv,2023-06-12_17h12.38.776,PainUncertainty,2022.2.5,143.2792025
aigu,moderee,stimuli/660Hz,stimuli/moderee,bloc_3,prob80hthp_12trials.xlsx,2,24,80,20,0,,,,,0,2,2,2,0,6,6,11,,,,,,,,3.3,872.0863265,875.3913065,875.3913425,0.305136,875.8354534,875.8354534,n,1.5569902,880.3347949,880.3347949,2,2.874,,,,,sub-022,30,60,700,bloc_loop.csv,2023-06-12_17h12.38.776,PainUncertainty,2022.2.5,143.2792025
grave,moderee,stimuli/330Hz,stimuli/moderee,bloc_3,prob80hthp_12trials.xlsx,2,24,80,20,0,,,,,0,2,2,2,0,7,7,0,,,,,,,,4.2,880.3347949,884.538733,884.5388584,0.3017224,884.9840565,884.9840565,n,0.7664496,890.4842879,890.4842879,0,4.677,,,,,sub-022,30,60,700,bloc_loop.csv,2023-06-12_17h12.38.776,PainUncertainty,2022.2.5,143.2792025
grave,forte,stimuli/330Hz,stimuli/forte,bloc_3,prob80hthp_12trials.xlsx,2,24,80,20,0,,,,,0,2,2,2,0,8,8,5,,,,,,,,3.1,890.4842879,893.5884427,893.5884821,0.3043235,894.032244,894.032244,m,2.0485738,899.6277872,899.6277872,16,3.49,,,,,sub-022,30,60,700,bloc_loop.csv,2023-06-12_17h12.38.776,PainUncertainty,2022.2.5,143.2792025
grave,moderee,stimuli/330Hz,stimuli/moderee,bloc_3,prob80hthp_12trials.xlsx,2,24,80,20,0,,,,,0,2,2,2,0,9,9,4,,,,,,,,4.1,899.6277872,903.7285503,903.7284999,0.3022074,904.1738288,904.1738288,n,0.7970046,908.1015962,908.1015962,2,3.066,,,,,sub-022,30,60,700,bloc_loop.csv,2023-06-12_17h12.38.776,PainUncertainty,2022.2.5,143.2792025
grave,moderee,stimuli/330Hz,stimuli/moderee,bloc_3,prob80hthp_12trials.xlsx,2,24,80,20,0,,,,,0,2,2,2,0,10,10,2,,,,,,,,3,908.1015962,911.1046626,911.1047873,0.3055631,911.5518017,911.5518017,n,0.7716331,915.7583638,915.7583638,0,3.381,,,,,sub-022,30,60,700,bloc_loop.csv,2023-06-12_17h12.38.776,PainUncertainty,2022.2.5,143.2792025
aigu,forte,stimuli/660Hz,stimuli/forte,bloc_3,prob80hthp_12trials.xlsx,2,24,80,20,0,,,,,0,2,2,2,0,11,11,8,,,,,,,,4.3,915.7583638,920.0635646,920.0635019,0.30498,920.5076471,920.5076471,m,0.7284097,922.9350732,922.9350732,20,1.636,,,,,sub-022,30,60,700,bloc_loop.csv,2023-06-12_17h12.38.776,PainUncertainty,2022.2.5,143.2792025
grave,moderee,stimuli/330Hz,stimuli/moderee,bloc_3,prob80hthp_12trials.xlsx,2,24,80,20,0,,,,,0,2,2,2,1,0,12,2,,,,,,,,3,922.9350732,925.9391218,925.9391954,0.3049235,926.3904844,926.3904844,n,0.8607176,930.3194917,930.3194917,3,3.018,,,,,sub-022,30,60,700,bloc_loop.csv,2023-06-12_17h12.38.776,PainUncertainty,2022.2.5,143.2792025
aigu,forte,stimuli/660Hz,stimuli/forte,bloc_3,prob80hthp_12trials.xlsx,2,24,80,20,0,,,,,0,2,2,2,1,1,13,8,,,,,,,,4,930.3194917,934.3220559,934.322067,0.3056395,934.7708458,934.7708458,m,0.7348721,937.3373857,937.3373857,20,1.77,,,,,sub-022,30,60,700,bloc_loop.csv,2023-06-12_17h12.38.776,PainUncertainty,2022.2.5,143.2792025
grave,forte,stimuli/330Hz,stimuli/forte,bloc_3,prob80hthp_12trials.xlsx,2,24,80,20,0,,,,,0,2,2,2,1,2,14,5,,,,,,,,4.3,937.3373857,941.6428775,941.6427533,0.3000526,942.087148,942.087148,m,0.7189258,945.7316548,945.7316548,27,2.866,,,,,sub-022,30,60,700,bloc_loop.csv,2023-06-12_17h12.38.776,PainUncertainty,2022.2.5,143.2792025
aigu,forte,stimuli/660Hz,stimuli/forte,bloc_3,prob80hthp_12trials.xlsx,2,24,80,20,0,,,,,0,2,2,2,1,3,15,9,,,,,,,,4,945.7316548,949.7338506,949.7351841,0.3038108,950.1779513,950.1779513,m,0.88791,952.8458575,952.8458575,27,1.719,,,,,sub-022,30,60,700,bloc_loop.csv,2023-06-12_17h12.38.776,PainUncertainty,2022.2.5,143.2792025
aigu,forte,stimuli/660Hz,stimuli/forte,bloc_3,prob80hthp_12trials.xlsx,2,24,80,20,0,,,,,0,2,2,2,1,4,16,10,,,,,,,,3.3,952.8458575,956.1515054,956.1513361,0.3000275,956.5957506,956.5957506,m,0.897432,959.5408479,959.5408479,27,1.985,,,,,sub-022,30,60,700,bloc_loop.csv,2023-06-12_17h12.38.776,PainUncertainty,2022.2.5,143.2792025
aigu,forte,stimuli/660Hz,stimuli/forte,bloc_3,prob80hthp_12trials.xlsx,2,24,80,20,0,,,,,0,2,2,2,1,5,17,7,,,,,,,,4.6,959.5408479,964.1468158,964.1454543,0.3047252,964.5893729,964.5893729,m,0.8382902,968.3979929,968.3979929,26,2.907,,,,,sub-022,30,60,700,bloc_loop.csv,2023-06-12_17h12.38.776,PainUncertainty,2022.2.5,143.2792025
grave,moderee,stimuli/330Hz,stimuli/moderee,bloc_3,prob80hthp_12trials.xlsx,2,24,80,20,0,,,,,0,2,2,2,1,6,18,3,,,,,,,,4.2,968.3979929,972.5977859,972.5977213,0.306386,973.0491532,973.0491532,n,0.7087685,976.8709959,976.8709959,0,3.054,,,,,sub-022,30,60,700,bloc_loop.csv,2023-06-12_17h12.38.776,PainUncertainty,2022.2.5,143.2792025
aigu,forte,stimuli/660Hz,stimuli/forte,bloc_3,prob80hthp_12trials.xlsx,2,24,80,20,0,,,,,0,2,2,2,1,7,19,6,,,,,,,,4.7,976.8709959,981.5707313,981.57078,0.305183,982.014947,982.014947,m,0.6709831,985.2319119,985.2319119,24,2.434,,,,,sub-022,30,60,700,bloc_loop.csv,2023-06-12_17h12.38.776,PainUncertainty,2022.2.5,143.2792025
grave,moderee,stimuli/330Hz,stimuli/moderee,bloc_3,prob80hthp_12trials.xlsx,2,24,80,20,0,,,,,0,2,2,2,1,8,20,1,,,,,,,,4.6,985.2319119,989.8355839,989.8356349,0.3051827,990.283689,990.283689,n,0.8610571,996.4989795,996.4989795,2,5.297,,,,,sub-022,30,60,700,bloc_loop.csv,2023-06-12_17h12.38.776,PainUncertainty,2022.2.5,143.2792025
aigu,moderee,stimuli/660Hz,stimuli/moderee,bloc_3,prob80hthp_12trials.xlsx,2,24,80,20,0,,,,,0,2,2,2,1,9,21,11,,,,,,,,4.8,996.4989795,1001.302528,1001.302548,0.3046595,1001.746703,1001.746703,n,0.6963582,1004.29968,1004.29968,0,1.795,,,,,sub-022,30,60,700,bloc_loop.csv,2023-06-12_17h12.38.776,PainUncertainty,2022.2.5,143.2792025
grave,moderee,stimuli/330Hz,stimuli/moderee,bloc_3,prob80hthp_12trials.xlsx,2,24,80,20,0,,,,,0,2,2,2,1,10,22,4,,,,,,,,3.2,1004.29968,1007.504281,1007.504311,0.3056589,1007.951082,1007.951082,n,1.1892502,1013.12404,1013.12404,0,3.928,,,,,sub-022,30,60,700,bloc_loop.csv,2023-06-12_17h12.38.776,PainUncertainty,2022.2.5,143.2792025
grave,moderee,stimuli/330Hz,stimuli/moderee,bloc_3,prob80hthp_12trials.xlsx,2,24,80,20,0,,,,,0,2,2,2,1,11,23,0,,,,,,,,3.1,1013.12404,1016.227682,1016.227708,0.2991978,1016.668608,1016.668608,n,1.3600673,1020.90911,1020.90911,10,2.811,,,,,sub-022,30,60,700,bloc_loop.csv,2023-06-12_17h12.38.776,PainUncertainty,2022.2.5,143.2792025
grave,forte,stimuli/330Hz,stimuli/forte,bloc_4,prob50_50_4trials.xlsx,2,8,50,50,1,,,,,0,3,3,3,0,0,0,1,,,,,,,,3.3,1020.90911,1024.214642,1024.214817,0.3051384,1024.659327,1024.659327,m,0.7861481,1028.533551,1028.533551,26,3.026,,,,,sub-022,30,60,700,bloc_loop.csv,2023-06-12_17h12.38.776,PainUncertainty,2022.2.5,143.2792025
aigu,forte,stimuli/660Hz,stimuli/forte,bloc_4,prob50_50_4trials.xlsx,2,8,50,50,1,,,,,0,3,3,3,0,1,1,3,,,,,,,,3.3,1028.533551,1031.833675,1031.833651,0.3053134,1032.280457,1032.280457,m,0.7262805,1034.945663,1034.945663,26,1.885,,,,,sub-022,30,60,700,bloc_loop.csv,2023-06-12_17h12.38.776,PainUncertainty,2022.2.5,143.2792025
grave,moderee,stimuli/330Hz,stimuli/moderee,bloc_4,prob50_50_4trials.xlsx,2,8,50,50,1,,,,,0,3,3,3,0,2,2,0,,,,,,,,4.8,1034.945663,1039.751232,1039.751469,0.304772,1040.195494,1040.195494,n,0.7810246,1044.632281,1044.632281,2,3.596,,,,,sub-022,30,60,700,bloc_loop.csv,2023-06-12_17h12.38.776,PainUncertainty,2022.2.5,143.2792025
aigu,moderee,stimuli/660Hz,stimuli/moderee,bloc_4,prob50_50_4trials.xlsx,2,8,50,50,1,,,,,0,3,3,3,0,3,3,2,,,,,,,,3.3,1044.632281,1047.932758,1047.932973,0.2993995,1048.37523,1048.37523,n,0.6769569,1051.009617,1051.009617,0,1.9,,,,,sub-022,30,60,700,bloc_loop.csv,2023-06-12_17h12.38.776,PainUncertainty,2022.2.5,143.2792025
grave,forte,stimuli/330Hz,stimuli/forte,bloc_4,prob50_50_4trials.xlsx,2,8,50,50,1,,,,,0,3,3,3,1,0,4,1,,,,,,,,4.1,1051.009617,1055.114493,1055.114506,0.3053046,1055.560506,1055.560506,m,0.7613546,1057.962394,1057.962394,23,1.58,,,,,sub-022,30,60,700,bloc_loop.csv,2023-06-12_17h12.38.776,PainUncertainty,2022.2.5,143.2792025
aigu,forte,stimuli/660Hz,stimuli/forte,bloc_4,prob50_50_4trials.xlsx,2,8,50,50,1,,,,,0,3,3,3,1,1,5,3,,,,,,,,4,1057.962394,1061.962132,1061.962201,0.3054032,1062.406643,1062.406643,m,0.7581213,1065.841875,1065.841875,19,2.61,,,,,sub-022,30,60,700,bloc_loop.csv,2023-06-12_17h12.38.776,PainUncertainty,2022.2.5,143.2792025
aigu,moderee,stimuli/660Hz,stimuli/moderee,bloc_4,prob50_50_4trials.xlsx,2,8,50,50,1,,,,,0,3,3,3,1,2,6,2,,,,,,,,4.6,1065.841875,1070.44251,1070.442576,0.3051233,1070.887321,1070.887321,n,0.7000307,1075.609299,1075.609299,1,3.969,,,,,sub-022,30,60,700,bloc_loop.csv,2023-06-12_17h12.38.776,PainUncertainty,2022.2.5,143.2792025
grave,moderee,stimuli/330Hz,stimuli/moderee,bloc_4,prob50_50_4trials.xlsx,2,8,50,50,1,,,,,0,3,3,3,1,3,7,0,,,,,,,,4,1075.609299,1079.611968,1079.610872,0.300696,1080.055039,1080.055039,n,0.7951187,1090.849566,1090.849566,1,7.969,,,,,sub-022,30,60,700,bloc_loop.csv,2023-06-12_17h12.38.776,PainUncertainty,2022.2.5,143.2792025
,,,,bloc_4,prob50_50_4trials.xlsx,2,8,50,50,1,,,,,0,3,3,3,,,,,0,0,0,0,,,,,,,,,,,,,,,,,,,1090.849566,1122.747147,sub-022,30,60,700,bloc_loop.csv,2023-06-12_17h12.38.776,PainUncertainty,2022.2.5,143.2792025
aigu,forte,stimuli/660Hz,stimuli/forte,bloc_5,prob20hthp_12trials.xlsx,2,24,20,80,0,,,,,0,0,0,0,0,0,0,11,,,,,,,,4.2,43.6626176,47.8661177,47.86568527,0.3054181,48.3107091,48.3107091,m,1.1988257,53.3255274,53.3255274,22,3.745,,,,,sub-022,30,60,700,bloc_loopcontinue.csv,2023-06-12_17h35.01.382,PainUncertainty,2022.2.5,143.8586043
grave,forte,stimuli/330Hz,stimuli/forte,bloc_5,prob20hthp_12trials.xlsx,2,24,20,80,0,,,,,0,0,0,0,0,1,1,3,,,,,,,,4.3,53.3255274,57.6309813,57.63088577,0.3050167,58.0752536,58.0752536,m,0.8901645,62.5815557,62.5815557,20,3.553,,,,,sub-022,30,60,700,bloc_loopcontinue.csv,2023-06-12_17h35.01.382,PainUncertainty,2022.2.5,143.8586043
grave,forte,stimuli/330Hz,stimuli/forte,bloc_5,prob20hthp_12trials.xlsx,2,24,20,80,0,,,,,0,0,0,0,0,2,2,0,,,,,,,,4.3,62.5815557,66.8823566,66.88215777,0.3015347,67.3267244,67.3267244,m,0.8586627,70.5578784,70.5578784,22,2.322,,,,,sub-022,30,60,700,bloc_loopcontinue.csv,2023-06-12_17h35.01.382,PainUncertainty,2022.2.5,143.8586043
grave,forte,stimuli/330Hz,stimuli/forte,bloc_5,prob20hthp_12trials.xlsx,2,24,20,80,0,,,,,0,0,0,0,0,3,3,1,,,,,,,,4.2,70.5578784,74.7583335,74.75812057,0.3049571,75.2020825,75.2020825,m,0.8296507,79.7510687,79.7510687,21,3.659,,,,,sub-022,30,60,700,bloc_loopcontinue.csv,2023-06-12_17h35.01.382,PainUncertainty,2022.2.5,143.8586043
aigu,moderee,stimuli/660Hz,stimuli/moderee,bloc_5,prob20hthp_12trials.xlsx,2,24,20,80,0,,,,,0,0,0,0,0,4,4,6,,,,,,,,3.8,79.7510687,83.5514405,83.55161117,0.3011728,83.995437,83.995437,n,0.7502982,88.1261409,88.1261409,0,3.324,,,,,sub-022,30,60,700,bloc_loopcontinue.csv,2023-06-12_17h35.01.382,PainUncertainty,2022.2.5,143.8586043
grave,moderee,stimuli/330Hz,stimuli/moderee,bloc_5,prob20hthp_12trials.xlsx,2,24,20,80,0,,,,,0,0,0,0,0,5,5,5,,,,,,,,4.5,88.1261409,92.6281883,92.62796087,0.3052362,93.0724937,93.0724937,n,0.9712682,96.134389,96.134389,0,2.04,,,,,sub-022,30,60,700,bloc_loopcontinue.csv,2023-06-12_17h35.01.382,PainUncertainty,2022.2.5,143.8586043
grave,forte,stimuli/330Hz,stimuli/forte,bloc_5,prob20hthp_12trials.xlsx,2,24,20,80,0,,,,,0,0,0,0,0,6,6,2,,,,,,,,4.1,96.134389,100.2402436,100.2400309,0.3051121,100.684405,100.684405,m,0.8374556,104.9900633,104.9900633,21,3.415,,,,,sub-022,30,60,700,bloc_loopcontinue.csv,2023-06-12_17h35.01.382,PainUncertainty,2022.2.5,143.8586043
aigu,moderee,stimuli/660Hz,stimuli/moderee,bloc_5,prob20hthp_12trials.xlsx,2,24,20,80,0,,,,,0,0,0,0,0,7,7,10,,,,,,,,4,104.9900633,108.9913188,108.9913212,0.300359,109.4361324,109.4361324,n,0.6267533,117.5891494,117.5891494,2,7.456,,,,,sub-022,30,60,700,bloc_loopcontinue.csv,2023-06-12_17h35.01.382,PainUncertainty,2022.2.5,143.8586043
aigu,moderee,stimuli/660Hz,stimuli/moderee,bloc_5,prob20hthp_12trials.xlsx,2,24,20,80,0,,,,,0,0,0,0,0,8,8,7,,,,,,,,4.1,117.5891494,121.694474,121.6944379,0.305287,122.1427229,122.1427229,n,0.8976938,130.0404261,130.0404261,2,6.941,,,,,sub-022,30,60,700,bloc_loopcontinue.csv,2023-06-12_17h35.01.382,PainUncertainty,2022.2.5,143.8586043
aigu,moderee,stimuli/660Hz,stimuli/moderee,bloc_5,prob20hthp_12trials.xlsx,2,24,20,80,0,,,,,0,0,0,0,0,9,9,8,,,,,,,,3.9,130.0404261,133.9457281,133.9455767,0.3056156,134.3927695,134.3927695,n,0.9470374,137.776094,137.776094,3,2.378,,,,,sub-022,30,60,700,bloc_loopcontinue.csv,2023-06-12_17h35.01.382,PainUncertainty,2022.2.5,143.8586043
grave,forte,stimuli/330Hz,stimuli/forte,bloc_5,prob20hthp_12trials.xlsx,2,24,20,80,0,,,,,0,0,0,0,0,10,10,4,,,,,,,,3.4,137.776094,141.1757662,141.1754941,0.3052574,141.624269,141.624269,m,0.7393752,146.0900763,146.0900763,19,3.664,,,,,sub-022,30,60,700,bloc_loopcontinue.csv,2023-06-12_17h35.01.382,PainUncertainty,2022.2.5,143.8586043
aigu,moderee,stimuli/660Hz,stimuli/moderee,bloc_5,prob20hthp_12trials.xlsx,2,24,20,80,0,,,,,0,0,0,0,0,11,11,9,,,,,,,,4.7,146.0900763,150.7950813,150.7949647,0.3047394,151.2394177,151.2394177,n,0.707072,155.6968618,155.6968618,0,3.688,,,,,sub-022,30,60,700,bloc_loopcontinue.csv,2023-06-12_17h35.01.382,PainUncertainty,2022.2.5,143.8586043
grave,forte,stimuli/330Hz,stimuli/forte,bloc_5,prob20hthp_12trials.xlsx,2,24,20,80,0,,,,,0,0,0,0,1,0,12,4,,,,,,,,4.1,155.6968618,159.7966522,159.7965308,0.3048314,160.2428923,160.2428923,m,0.8715273,163.3841081,163.3841081,14,2.219,,,,,sub-022,30,60,700,bloc_loopcontinue.csv,2023-06-12_17h35.01.382,PainUncertainty,2022.2.5,143.8586043
aigu,moderee,stimuli/660Hz,stimuli/moderee,bloc_5,prob20hthp_12trials.xlsx,2,24,20,80,0,,,,,0,0,0,0,1,1,13,6,,,,,,,,4.6,163.3841081,167.9852015,167.984907,0.3063952,168.4362153,168.4362153,n,1.0337764,171.7762999,171.7762999,1,2.253,,,,,sub-022,30,60,700,bloc_loopcontinue.csv,2023-06-12_17h35.01.382,PainUncertainty,2022.2.5,143.8586043
aigu,moderee,stimuli/660Hz,stimuli/moderee,bloc_5,prob20hthp_12trials.xlsx,2,24,20,80,0,,,,,0,0,0,0,1,2,14,10,,,,,,,,4,171.7762999,175.7778043,175.7774587,0.3049734,176.2252506,176.2252506,n,1.2146992,179.2757389,179.2757389,0,1.762,,,,,sub-022,30,60,700,bloc_loopcontinue.csv,2023-06-12_17h35.01.382,PainUncertainty,2022.2.5,143.8586043
grave,forte,stimuli/330Hz,stimuli/forte,bloc_5,prob20hthp_12trials.xlsx,2,24,20,80,0,,,,,0,0,0,0,1,3,15,1,,,,,,,,5,179.2757389,184.278248,184.27806,0.3050117,184.7224951,184.7224951,m,1.0170177,187.4908828,187.4908828,20,1.69,,,,,sub-022,30,60,700,bloc_loopcontinue.csv,2023-06-12_17h35.01.382,PainUncertainty,2022.2.5,143.8586043
aigu,moderee,stimuli/660Hz,stimuli/moderee,bloc_5,prob20hthp_12trials.xlsx,2,24,20,80,0,,,,,0,0,0,0,1,4,16,7,,,,,,,,4,187.4908828,191.4942711,191.4941841,0.3051304,191.9385077,191.9385077,n,0.9233216,194.9067754,194.9067754,0,1.997,,,,,sub-022,30,60,700,bloc_loopcontinue.csv,2023-06-12_17h35.01.382,PainUncertainty,2022.2.5,143.8586043
grave,forte,stimuli/330Hz,stimuli/forte,bloc_5,prob20hthp_12trials.xlsx,2,24,20,80,0,,,,,0,0,0,0,1,5,17,2,,,,,,,,4.7,194.9067754,199.6063449,199.6062787,0.3051442,200.050684,200.050684,m,0.8151159,204.8980071,204.8980071,21,3.969,,,,,sub-022,30,60,700,bloc_loopcontinue.csv,2023-06-12_17h35.01.382,PainUncertainty,2022.2.5,143.8586043
grave,moderee,stimuli/330Hz,stimuli/moderee,bloc_5,prob20hthp_12trials.xlsx,2,24,20,80,0,,,,,0,0,0,0,1,6,18,5,,,,,,,,3.1,204.8980071,208.003197,208.0030634,0.3050347,208.4516137,208.4516137,n,0.6188544,212.5229502,212.5229502,2,3.4,,,,,sub-022,30,60,700,bloc_loopcontinue.csv,2023-06-12_17h35.01.382,PainUncertainty,2022.2.5,143.8586043
aigu,forte,stimuli/660Hz,stimuli/forte,bloc_5,prob20hthp_12trials.xlsx,2,24,20,80,0,,,,,0,0,0,0,1,7,19,11,,,,,,,,3.3,212.5229502,215.8235578,215.8233515,0.2998123,216.2662292,216.2662292,m,0.7281648,221.1250775,221.1250775,15,4.066,,,,,sub-022,30,60,700,bloc_loopcontinue.csv,2023-06-12_17h35.01.382,PainUncertainty,2022.2.5,143.8586043
aigu,moderee,stimuli/660Hz,stimuli/moderee,bloc_5,prob20hthp_12trials.xlsx,2,24,20,80,0,,,,,0,0,0,0,1,8,20,8,,,,,,,,4.9,221.1250775,226.026245,226.0260482,0.3051093,226.4704495,226.4704495,n,0.7877843,229.3078313,229.3078313,0,1.982,,,,,sub-022,30,60,700,bloc_loopcontinue.csv,2023-06-12_17h35.01.382,PainUncertainty,2022.2.5,143.8586043
aigu,moderee,stimuli/660Hz,stimuli/moderee,bloc_5,prob20hthp_12trials.xlsx,2,24,20,80,0,,,,,0,0,0,0,1,9,21,9,,,,,,,,4.1,229.3078313,233.4091787,233.4089531,0.3049431,233.8535785,233.8535785,n,0.757346,241.8248465,241.8248465,1,7.158,,,,,sub-022,30,60,700,bloc_loopcontinue.csv,2023-06-12_17h35.01.382,PainUncertainty,2022.2.5,143.8586043
grave,forte,stimuli/330Hz,stimuli/forte,bloc_5,prob20hthp_12trials.xlsx,2,24,20,80,0,,,,,0,0,0,0,1,10,22,3,,,,,,,,4.8,241.8248465,246.6259876,246.6258105,0.3049956,247.0701386,247.0701386,m,1.163544,250.7271495,250.7271495,20,2.442,,,,,sub-022,30,60,700,bloc_loopcontinue.csv,2023-06-12_17h35.01.382,PainUncertainty,2022.2.5,143.8586043
grave,forte,stimuli/330Hz,stimuli/forte,bloc_5,prob20hthp_12trials.xlsx,2,24,20,80,0,,,,,0,0,0,0,1,11,23,0,,,,,,,,4.2,250.7271495,254.932588,254.9323453,0.3005358,255.376958,255.376958,m,0.6579567,258.5288851,258.5288851,14,2.428,,,,,sub-022,30,60,700,bloc_loopcontinue.csv,2023-06-12_17h35.01.382,PainUncertainty,2022.2.5,143.8586043
aigu,forte,stimuli/660Hz,stimuli/forte,bloc_6,prob50_50_4trials.xlsx,2,8,50,50,0,,,,,0,1,1,1,0,0,0,3,,,,,,,,4.5,258.5288851,263.0310943,263.0308498,0.3052478,263.4787573,263.4787573,m,1.1838181,267.2094321,267.2094321,16,2.458,,,,,sub-022,30,60,700,bloc_loopcontinue.csv,2023-06-12_17h35.01.382,PainUncertainty,2022.2.5,143.8586043
grave,forte,stimuli/330Hz,stimuli/forte,bloc_6,prob50_50_4trials.xlsx,2,8,50,50,0,,,,,0,1,1,1,0,1,1,1,,,,,,,,3.9,267.2094321,271.1149779,271.1148761,0.3049507,271.5592676,271.5592676,m,1.3117483,275.2655745,275.2655745,15,2.331,,,,,sub-022,30,60,700,bloc_loopcontinue.csv,2023-06-12_17h35.01.382,PainUncertainty,2022.2.5,143.8586043
aigu,moderee,stimuli/660Hz,stimuli/moderee,bloc_6,prob50_50_4trials.xlsx,2,8,50,50,0,,,,,0,1,1,1,0,2,2,2,,,,,,,,4.7,275.2655745,279.970884,279.970721,0.2990307,280.4136668,280.4136668,n,0.6320097,283.7544769,283.7544769,0,2.65,,,,,sub-022,30,60,700,bloc_loopcontinue.csv,2023-06-12_17h35.01.382,PainUncertainty,2022.2.5,143.8586043
grave,moderee,stimuli/330Hz,stimuli/moderee,bloc_6,prob50_50_4trials.xlsx,2,8,50,50,0,,,,,0,1,1,1,0,3,3,0,,,,,,,,3.7,283.7544769,287.4581954,287.4577585,0.3048487,287.9056175,287.9056175,n,0.9078661,293.0412958,293.0412958,2,4.164,,,,,sub-022,30,60,700,bloc_loopcontinue.csv,2023-06-12_17h35.01.382,PainUncertainty,2022.2.5,143.8586043
grave,moderee,stimuli/330Hz,stimuli/moderee,bloc_6,prob50_50_4trials.xlsx,2,8,50,50,0,,,,,0,1,1,1,1,0,4,0,,,,,,,,3.3,293.0412958,296.3474041,296.3471951,0.305139,296.7918864,296.7918864,n,0.754237,302.0392651,302.0392651,0,4.435,,,,,sub-022,30,60,700,bloc_loopcontinue.csv,2023-06-12_17h35.01.382,PainUncertainty,2022.2.5,143.8586043
aigu,moderee,stimuli/660Hz,stimuli/moderee,bloc_6,prob50_50_4trials.xlsx,2,8,50,50,0,,,,,0,1,1,1,1,1,5,2,,,,,,,,4.1,302.0392651,306.1402378,306.1399262,0.3056613,306.5847005,306.5847005,n,0.7649656,310.4970437,310.4970437,1,3.079,,,,,sub-022,30,60,700,bloc_loopcontinue.csv,2023-06-12_17h35.01.382,PainUncertainty,2022.2.5,143.8586043
aigu,forte,stimuli/660Hz,stimuli/forte,bloc_6,prob50_50_4trials.xlsx,2,8,50,50,0,,,,,0,1,1,1,1,2,6,3,,,,,,,,3.3,310.4970437,313.8007718,313.8006526,0.3050687,314.2455243,314.2455243,m,0.8128232,318.1360943,318.1360943,20,3.025,,,,,sub-022,30,60,700,bloc_loopcontinue.csv,2023-06-12_17h35.01.382,PainUncertainty,2022.2.5,143.8586043
grave,forte,stimuli/330Hz,stimuli/forte,bloc_6,prob50_50_4trials.xlsx,2,8,50,50,0,,,,,0,1,1,1,1,3,7,1,,,,,,,,4.9,318.1360943,323.0382719,323.0381338,0.3051905,323.4823072,323.4823072,m,1.2085045,327.1523761,327.1523761,15,2.399,,,,,sub-022,30,60,700,bloc_loopcontinue.csv,2023-06-12_17h35.01.382,PainUncertainty,2022.2.5,143.8586043
grave,moderee,stimuli/330Hz,stimuli/moderee,bloc_7,prob80hthp_12trials.xlsx,2,24,80,20,0,,,,,0,2,2,2,0,0,0,4,,,,,,,,4.8,327.1523761,331.9562033,331.956698,0.3044585,332.4038932,332.4038932,n,0.6561199,340.4518357,340.4518357,2,7.338,,,,,sub-022,30,60,700,bloc_loopcontinue.csv,2023-06-12_17h35.01.382,PainUncertainty,2022.2.5,143.8586043
aigu,forte,stimuli/660Hz,stimuli/forte,bloc_7,prob80hthp_12trials.xlsx,2,24,80,20,0,,,,,0,2,2,2,0,1,1,6,,,,,,,,3.2,340.4518357,343.6517198,343.6515611,0.3048499,344.0961953,344.0961953,m,1.0077112,348.8442916,348.8442916,20,3.677,,,,,sub-022,30,60,700,bloc_loopcontinue.csv,2023-06-12_17h35.01.382,PainUncertainty,2022.2.5,143.8586043
grave,moderee,stimuli/330Hz,stimuli/moderee,bloc_7,prob80hthp_12trials.xlsx,2,24,80,20,0,,,,,0,2,2,2,0,2,2,1,,,,,,,,3,348.8442916,351.8470781,351.8470362,0.3050232,352.2914268,352.2914268,n,0.6288019,354.6957605,354.6957605,1,1.705,,,,,sub-022,30,60,700,bloc_loopcontinue.csv,2023-06-12_17h35.01.382,PainUncertainty,2022.2.5,143.8586043
aigu,forte,stimuli/660Hz,stimuli/forte,bloc_7,prob80hthp_12trials.xlsx,2,24,80,20,0,,,,,0,2,2,2,0,3,3,7,,,,,,,,3,354.6957605,357.6953126,357.6951601,0.3047765,358.1391673,358.1391673,m,0.850359,361.6801807,361.6801807,21,2.626,,,,,sub-022,30,60,700,bloc_loopcontinue.csv,2023-06-12_17h35.01.382,PainUncertainty,2022.2.5,143.8586043
grave,moderee,stimuli/330Hz,stimuli/moderee,bloc_7,prob80hthp_12trials.xlsx,2,24,80,20,0,,,,,0,2,2,2,0,4,4,0,,,,,,,,4.8,361.6801807,366.4808295,366.4806966,0.2992855,366.9217124,366.9217124,n,0.7275387,370.5214659,370.5214659,0,2.804,,,,,sub-022,30,60,700,bloc_loopcontinue.csv,2023-06-12_17h35.01.382,PainUncertainty,2022.2.5,143.8586043
grave,moderee,stimuli/330Hz,stimuli/moderee,bloc_7,prob80hthp_12trials.xlsx,2,24,80,20,0,,,,,0,2,2,2,0,5,5,3,,,,,,,,4.2,370.5214659,374.7252311,374.7249882,0.3050198,375.1692041,375.1692041,n,0.9838988,378.3209692,378.3209692,0,2.108,,,,,sub-022,30,60,700,bloc_loopcontinue.csv,2023-06-12_17h35.01.382,PainUncertainty,2022.2.5,143.8586043
aigu,forte,stimuli/660Hz,stimuli/forte,bloc_7,prob80hthp_12trials.xlsx,2,24,80,20,0,,,,,0,2,2,2,0,6,6,10,,,,,,,,4.2,378.3209692,382.5244523,382.5242657,0.3050446,382.9689832,382.9689832,m,0.8466029,386.0585578,386.0585578,20,2.192,,,,,sub-022,30,60,700,bloc_loopcontinue.csv,2023-06-12_17h35.01.382,PainUncertainty,2022.2.5,143.8586043
grave,forte,stimuli/330Hz,stimuli/forte,bloc_7,prob80hthp_12trials.xlsx,2,24,80,20,0,,,,,0,2,2,2,0,7,7,5,,,,,,,,4.4,386.0585578,390.4628978,390.4628481,0.3053988,390.9092841,390.9092841,m,0.8683064,393.6186931,393.6186931,28,1.775,,,,,sub-022,30,60,700,bloc_loopcontinue.csv,2023-06-12_17h35.01.382,PainUncertainty,2022.2.5,143.8586043
aigu,forte,stimuli/660Hz,stimuli/forte,bloc_7,prob80hthp_12trials.xlsx,2,24,80,20,0,,,,,0,2,2,2,0,8,8,9,,,,,,,,3.7,393.6186931,397.3183222,397.3182668,0.3051993,397.7668934,397.7668934,m,0.8062854,400.7811332,400.7811332,23,2.143,,,,,sub-022,30,60,700,bloc_loopcontinue.csv,2023-06-12_17h35.01.382,PainUncertainty,2022.2.5,143.8586043
aigu,moderee,stimuli/660Hz,stimuli/moderee,bloc_7,prob80hthp_12trials.xlsx,2,24,80,20,0,,,,,0,2,2,2,0,9,9,11,,,,,,,,4.9,400.7811332,405.6871851,405.6868188,0.304928,406.1312787,406.1312787,n,0.8280811,409.3812241,409.3812241,0,2.358,,,,,sub-022,30,60,700,bloc_loopcontinue.csv,2023-06-12_17h35.01.382,PainUncertainty,2022.2.5,143.8586043
aigu,forte,stimuli/660Hz,stimuli/forte,bloc_7,prob80hthp_12trials.xlsx,2,24,80,20,0,,,,,0,2,2,2,0,10,10,8,,,,,,,,3.8,409.3812241,413.1810631,413.1810564,0.3016025,413.6257083,413.6257083,m,0.8697432,418.3004063,418.3004063,23,3.747,,,,,sub-022,30,60,700,bloc_loopcontinue.csv,2023-06-12_17h35.01.382,PainUncertainty,2022.2.5,143.8586043
grave,moderee,stimuli/330Hz,stimuli/moderee,bloc_7,prob80hthp_12trials.xlsx,2,24,80,20,0,,,,,0,2,2,2,0,11,11,2,,,,,,,,3.6,418.3004063,421.9042791,421.9041228,0.3050421,422.3492742,422.3492742,n,0.6653258,425.4939,425.4939,0,2.422,,,,,sub-022,30,60,700,bloc_loopcontinue.csv,2023-06-12_17h35.01.382,PainUncertainty,2022.2.5,143.8586043
grave,moderee,stimuli/330Hz,stimuli/moderee,bloc_7,prob80hthp_12trials.xlsx,2,24,80,20,0,,,,,0,2,2,2,1,0,12,3,,,,,,,,4.9,425.4939,430.3983527,430.398087,0.305205,430.8431027,430.8431027,n,0.8810513,435.2116968,435.2116968,1,3.427,,,,,sub-022,30,60,700,bloc_loopcontinue.csv,2023-06-12_17h35.01.382,PainUncertainty,2022.2.5,143.8586043
aigu,forte,stimuli/660Hz,stimuli/forte,bloc_7,prob80hthp_12trials.xlsx,2,24,80,20,0,,,,,0,2,2,2,1,1,13,9,,,,,,,,4,435.2116968,439.2120725,439.2118178,0.3013176,439.6568003,439.6568003,m,0.9355187,442.7576163,442.7576163,29,2.102,,,,,sub-022,30,60,700,bloc_loopcontinue.csv,2023-06-12_17h35.01.382,PainUncertainty,2022.2.5,143.8586043
grave,moderee,stimuli/330Hz,stimuli/moderee,bloc_7,prob80hthp_12trials.xlsx,2,24,80,20,0,,,,,0,2,2,2,1,2,14,2,,,,,,,,3.1,442.7576163,445.8586475,445.8583658,0.3050835,446.3067991,446.3067991,n,0.9570066,450.8444848,450.8444848,0,3.518,,,,,sub-022,30,60,700,bloc_loopcontinue.csv,2023-06-12_17h35.01.382,PainUncertainty,2022.2.5,143.8586043
aigu,forte,stimuli/660Hz,stimuli/forte,bloc_7,prob80hthp_12trials.xlsx,2,24,80,20,0,,,,,0,2,2,2,1,3,15,10,,,,,,,,3.2,450.8444848,454.0475318,454.0473071,0.3047835,454.4916862,454.4916862,m,0.7305038,459.060841,459.060841,29,3.781,,,,,sub-022,30,60,700,bloc_loopcontinue.csv,2023-06-12_17h35.01.382,PainUncertainty,2022.2.5,143.8586043
grave,forte,stimuli/330Hz,stimuli/forte,bloc_7,prob80hthp_12trials.xlsx,2,24,80,20,0,,,,,0,2,2,2,1,4,16,5,,,,,,,,4.1,459.060841,463.1662073,463.1660884,0.3052994,463.6109075,463.6109075,m,0.989102,468.2525906,468.2525906,29,3.602,,,,,sub-022,30,60,700,bloc_loopcontinue.csv,2023-06-12_17h35.01.382,PainUncertainty,2022.2.5,143.8586043
grave,moderee,stimuli/330Hz,stimuli/moderee,bloc_7,prob80hthp_12trials.xlsx,2,24,80,20,0,,,,,0,2,2,2,1,5,17,4,,,,,,,,3.4,468.2525906,471.6534024,471.6533072,0.3005831,472.0977994,472.0977994,n,0.8326092,474.8539506,474.8539506,0,1.872,,,,,sub-022,30,60,700,bloc_loopcontinue.csv,2023-06-12_17h35.01.382,PainUncertainty,2022.2.5,143.8586043
aigu,forte,stimuli/660Hz,stimuli/forte,bloc_7,prob80hthp_12trials.xlsx,2,24,80,20,0,,,,,0,2,2,2,1,6,18,7,,,,,,,,4.9,474.8539506,479.7589642,479.7586207,0.3052107,480.2030228,480.2030228,m,1.3326454,483.8378023,483.8378023,22,2.244,,,,,sub-022,30,60,700,bloc_loopcontinue.csv,2023-06-12_17h35.01.382,PainUncertainty,2022.2.5,143.8586043
aigu,forte,stimuli/660Hz,stimuli/forte,bloc_7,prob80hthp_12trials.xlsx,2,24,80,20,0,,,,,0,2,2,2,1,7,19,6,,,,,,,,3,483.8378023,486.8430561,486.8427662,0.3000486,487.287474,487.287474,m,0.9598623,490.7434721,490.7434721,22,2.434,,,,,sub-022,30,60,700,bloc_loopcontinue.csv,2023-06-12_17h35.01.382,PainUncertainty,2022.2.5,143.8586043
grave,moderee,stimuli/330Hz,stimuli/moderee,bloc_7,prob80hthp_12trials.xlsx,2,24,80,20,0,,,,,0,2,2,2,1,8,20,1,,,,,,,,4.3,490.7434721,495.0451251,495.0449566,0.3050567,495.4893032,495.4893032,n,0.7164294,497.521186,497.521186,0,1.261,,,,,sub-022,30,60,700,bloc_loopcontinue.csv,2023-06-12_17h35.01.382,PainUncertainty,2022.2.5,143.8586043
grave,moderee,stimuli/330Hz,stimuli/moderee,bloc_7,prob80hthp_12trials.xlsx,2,24,80,20,0,,,,,0,2,2,2,1,9,21,0,,,,,,,,3,497.521186,500.5254969,500.525024,0.3046471,500.9690425,500.9690425,n,0.7318372,504.4598529,504.4598529,0,2.697,,,,,sub-022,30,60,700,bloc_loopcontinue.csv,2023-06-12_17h35.01.382,PainUncertainty,2022.2.5,143.8586043
aigu,forte,stimuli/660Hz,stimuli/forte,bloc_7,prob80hthp_12trials.xlsx,2,24,80,20,0,,,,,0,2,2,2,1,10,22,8,,,,,,,,5,504.4598529,509.4638785,509.4638705,0.3002391,509.9081849,509.9081849,m,1.0308366,512.8846948,512.8846948,15,1.886,,,,,sub-022,30,60,700,bloc_loopcontinue.csv,2023-06-12_17h35.01.382,PainUncertainty,2022.2.5,143.8586043
aigu,moderee,stimuli/660Hz,stimuli/moderee,bloc_7,prob80hthp_12trials.xlsx,2,24,80,20,0,,,,,0,2,2,2,1,11,23,11,,,,,,,,4.6,512.8846948,517.4854429,517.4852983,0.3050717,517.9300383,517.9300383,n,0.7394704,520.6198877,520.6198877,0,1.894,,,,,sub-022,30,60,700,bloc_loopcontinue.csv,2023-06-12_17h35.01.382,PainUncertainty,2022.2.5,143.8586043
grave,forte,stimuli/330Hz,stimuli/forte,bloc_8,prob50_50_4trials.xlsx,3,12,50,50,0,,,,,0,3,3,3,0,0,0,1,,,,,,,,4.9,520.6198877,525.5217478,525.521701,0.3014447,525.9660444,525.9660444,m,0.6779027,529.1569715,529.1569715,25,2.414,,,,,sub-022,30,60,700,bloc_loopcontinue.csv,2023-06-12_17h35.01.382,PainUncertainty,2022.2.5,143.8586043
aigu,forte,stimuli/660Hz,stimuli/forte,bloc_8,prob50_50_4trials.xlsx,3,12,50,50,0,,,,,0,3,3,3,0,1,1,3,,,,,,,,4.4,529.1569715,533.5568108,533.5567778,0.3048127,534.0010555,534.0010555,m,1.1699798,539.0204371,539.0204371,22,3.789,,,,,sub-022,30,60,700,bloc_loopcontinue.csv,2023-06-12_17h35.01.382,PainUncertainty,2022.2.5,143.8586043
grave,moderee,stimuli/330Hz,stimuli/moderee,bloc_8,prob50_50_4trials.xlsx,3,12,50,50,0,,,,,0,3,3,3,0,2,2,0,,,,,,,,4.8,539.0204371,543.8219899,543.8218338,0.3048529,544.2665037,544.2665037,n,0.623715,546.9151474,546.9151474,0,1.976,,,,,sub-022,30,60,700,bloc_loopcontinue.csv,2023-06-12_17h35.01.382,PainUncertainty,2022.2.5,143.8586043
aigu,moderee,stimuli/660Hz,stimuli/moderee,bloc_8,prob50_50_4trials.xlsx,3,12,50,50,0,,,,,0,3,3,3,0,3,3,2,,,,,,,,5,546.9151474,551.9200825,551.9199165,0.3058326,552.3700416,552.3700416,n,0.7154263,555.085699,555.085699,0,1.935,,,,,sub-022,30,60,700,bloc_loopcontinue.csv,2023-06-12_17h35.01.382,PainUncertainty,2022.2.5,143.8586043
aigu,forte,stimuli/660Hz,stimuli/forte,bloc_8,prob50_50_4trials.xlsx,3,12,50,50,0,,,,,0,3,3,3,1,0,4,3,,,,,,,,4.7,555.085699,559.7891635,559.7890595,0.3051987,560.2333354,560.2333354,m,0.9755759,562.7402237,562.7402237,21,1.476,,,,,sub-022,30,60,700,bloc_loopcontinue.csv,2023-06-12_17h35.01.382,PainUncertainty,2022.2.5,143.8586043
grave,forte,stimuli/330Hz,stimuli/forte,bloc_8,prob50_50_4trials.xlsx,3,12,50,50,0,,,,,0,3,3,3,1,1,5,1,,,,,,,,4.7,562.7402237,567.4430076,567.4427098,0.3049032,567.8872869,567.8872869,m,0.7121666,570.8295389,570.8295389,26,2.178,,,,,sub-022,30,60,700,bloc_loopcontinue.csv,2023-06-12_17h35.01.382,PainUncertainty,2022.2.5,143.8586043
grave,moderee,stimuli/330Hz,stimuli/moderee,bloc_8,prob50_50_4trials.xlsx,3,12,50,50,0,,,,,0,3,3,3,1,2,6,0,,,,,,,,3.4,570.8295389,574.2353431,574.2351223,0.3053292,574.6814918,574.6814918,n,0.6475478,577.5431467,577.5431467,0,2.157,,,,,sub-022,30,60,700,bloc_loopcontinue.csv,2023-06-12_17h35.01.382,PainUncertainty,2022.2.5,143.8586043
aigu,moderee,stimuli/660Hz,stimuli/moderee,bloc_8,prob50_50_4trials.xlsx,3,12,50,50,0,,,,,0,3,3,3,1,3,7,2,,,,,,,,3.4,577.5431467,580.9445783,580.9443716,0.3001436,581.389486,581.389486,n,0.8318043,585.0874113,585.0874113,0,2.817,,,,,sub-022,30,60,700,bloc_loopcontinue.csv,2023-06-12_17h35.01.382,PainUncertainty,2022.2.5,143.8586043
aigu,moderee,stimuli/660Hz,stimuli/moderee,bloc_8,prob50_50_4trials.xlsx,3,12,50,50,0,,,,,0,3,3,3,2,0,8,2,,,,,,,,3.5,585.0874113,588.5912642,588.5910649,0.2991477,589.0337819,589.0337819,n,0.9238278,592.9992089,592.9992089,0,2.99,,,,,sub-022,30,60,700,bloc_loopcontinue.csv,2023-06-12_17h35.01.382,PainUncertainty,2022.2.5,143.8586043
aigu,forte,stimuli/660Hz,stimuli/forte,bloc_8,prob50_50_4trials.xlsx,3,12,50,50,0,,,,,0,3,3,3,2,1,9,3,,,,,,,,4.4,592.9992089,597.4053067,597.4051202,0.2996766,597.8496484,597.8496484,m,0.9632843,600.9755695,600.9755695,32,2.107,,,,,sub-022,30,60,700,bloc_loopcontinue.csv,2023-06-12_17h35.01.382,PainUncertainty,2022.2.5,143.8586043
grave,moderee,stimuli/330Hz,stimuli/moderee,bloc_8,prob50_50_4trials.xlsx,3,12,50,50,0,,,,,0,3,3,3,2,2,10,0,,,,,,,,3.6,600.9755695,604.5793942,604.5791769,0.3055395,605.0262855,605.0262855,n,0.8368053,609.7365421,609.7365421,4,3.823,,,,,sub-022,30,60,700,bloc_loopcontinue.csv,2023-06-12_17h35.01.382,PainUncertainty,2022.2.5,143.8586043
grave,forte,stimuli/330Hz,stimuli/forte,bloc_8,prob50_50_4trials.xlsx,3,12,50,50,0,,,,,0,3,3,3,2,3,11,1,,,,,,,,4.9,609.7365421,614.6360777,614.6359328,0.3049957,615.0803598,615.0803598,m,0.883771,617.3127634,617.3127634,40,1.282,,,,,sub-022,30,60,700,bloc_loopcontinue.csv,2023-06-12_17h35.01.382,PainUncertainty,2022.2.5,143.8586043
grave,forte,stimuli/330Hz,stimuli/forte,bloc_9,prob20hthp_12trials.xlsx,3,36,80,20,0,,,,,0,4,4,4,0,0,0,4,,,,,,,,4.8,617.3127634,622.1163583,622.1161051,0.3048733,622.5607447,622.5607447,m,1.2528557,625.4657231,625.4657231,30,1.595,,,,,sub-022,30,60,700,bloc_loopcontinue.csv,2023-06-12_17h35.01.382,PainUncertainty,2022.2.5,143.8586043
grave,moderee,stimuli/330Hz,stimuli/moderee,bloc_9,prob20hthp_12trials.xlsx,3,36,80,20,0,,,,,0,4,4,4,0,1,1,5,,,,,,,,4.5,625.4657231,629.9712705,629.9710458,0.3049962,630.4155117,630.4155117,n,0.7702236,634.0497964,634.0497964,2,2.81,,,,,sub-022,30,60,700,bloc_loopcontinue.csv,2023-06-12_17h35.01.382,PainUncertainty,2022.2.5,143.8586043
grave,forte,stimuli/330Hz,stimuli/forte,bloc_9,prob20hthp_12trials.xlsx,3,36,80,20,0,,,,,0,4,4,4,0,2,2,2,,,,,,,,3.5,634.0497964,637.550053,637.5491407,0.304924,637.9959548,637.9959548,m,0.787507,640.7300829,640.7300829,32,1.892,,,,,sub-022,30,60,700,bloc_loopcontinue.csv,2023-06-12_17h35.01.382,PainUncertainty,2022.2.5,143.8586043
grave,forte,stimuli/330Hz,stimuli/forte,bloc_9,prob20hthp_12trials.xlsx,3,36,80,20,0,,,,,0,4,4,4,0,3,3,0,,,,,,,,4.3,640.7300829,645.0364342,645.0360399,0.3053536,645.4844046,645.4844046,m,1.0671247,648.8669327,648.8669327,35,2.254,,,,,sub-022,30,60,700,bloc_loopcontinue.csv,2023-06-12_17h35.01.382,PainUncertainty,2022.2.5,143.8586043
aigu,moderee,stimuli/660Hz,stimuli/moderee,bloc_9,prob20hthp_12trials.xlsx,3,36,80,20,0,,,,,0,4,4,4,0,4,4,6,,,,,,,,3.2,648.8669327,652.071448,652.071245,0.30477,652.5157436,652.5157436,n,0.9291025,656.1712408,656.1712408,0,2.67,,,,,sub-022,30,60,700,bloc_loopcontinue.csv,2023-06-12_17h35.01.382,PainUncertainty,2022.2.5,143.8586043
aigu,moderee,stimuli/660Hz,stimuli/moderee,bloc_9,prob20hthp_12trials.xlsx,3,36,80,20,0,,,,,0,4,4,4,0,5,5,8,,,,,,,,3.2,656.1712408,659.3709877,659.3706664,0.3051949,659.8186403,659.8186403,n,0.9006824,662.5010006,662.5010006,2,1.72,,,,,sub-022,30,60,700,bloc_loopcontinue.csv,2023-06-12_17h35.01.382,PainUncertainty,2022.2.5,143.8586043
aigu,moderee,stimuli/660Hz,stimuli/moderee,bloc_9,prob20hthp_12trials.xlsx,3,36,80,20,0,,,,,0,4,4,4,0,6,6,9,,,,,,,,3,662.5010006,665.5035663,665.5032952,0.3052222,665.9523462,665.9523462,n,0.9257174,668.8797498,668.8797498,2,1.942,,,,,sub-022,30,60,700,bloc_loopcontinue.csv,2023-06-12_17h35.01.382,PainUncertainty,2022.2.5,143.8586043
grave,forte,stimuli/330Hz,stimuli/forte,bloc_9,prob20hthp_12trials.xlsx,3,36,80,20,0,,,,,0,4,4,4,0,7,7,1,,,,,,,,4.5,668.8797498,673.3798327,673.3794941,0.304853,673.8237243,673.8237243,m,0.7846479,676.3129336,676.3129336,29,1.642,,,,,sub-022,30,60,700,bloc_loopcontinue.csv,2023-06-12_17h35.01.382,PainUncertainty,2022.2.5,143.8586043
grave,forte,stimuli/330Hz,stimuli/forte,bloc_9,prob20hthp_12trials.xlsx,3,36,80,20,0,,,,,0,4,4,4,0,8,8,3,,,,,,,,4.1,676.3129336,680.4149141,680.4147005,0.3050938,680.8591196,680.8591196,m,1.0512718,684.9773305,684.9773305,39,3.003,,,,,sub-022,30,60,700,bloc_loopcontinue.csv,2023-06-12_17h35.01.382,PainUncertainty,2022.2.5,143.8586043
aigu,moderee,stimuli/660Hz,stimuli/moderee,bloc_9,prob20hthp_12trials.xlsx,3,36,80,20,0,,,,,0,4,4,4,0,9,9,7,,,,,,,,4.7,684.9773305,689.680262,689.6798155,0.3009664,690.1248268,690.1248268,n,0.6897274,698.5310776,698.5310776,3,7.651,,,,,sub-022,30,60,700,bloc_loopcontinue.csv,2023-06-12_17h35.01.382,PainUncertainty,2022.2.5,143.8586043
aigu,forte,stimuli/660Hz,stimuli/forte,bloc_9,prob20hthp_12trials.xlsx,3,36,80,20,0,,,,,0,4,4,4,0,10,10,11,,,,,,,,4.3,698.5310776,702.834714,702.8345596,0.3000503,703.2792119,703.2792119,m,1.2989743,708.5864794,708.5864794,20,3.949,,,,,sub-022,30,60,700,bloc_loopcontinue.csv,2023-06-12_17h35.01.382,PainUncertainty,2022.2.5,143.8586043
aigu,moderee,stimuli/660Hz,stimuli/moderee,bloc_9,prob20hthp_12trials.xlsx,3,36,80,20,0,,,,,0,4,4,4,0,11,11,10,,,,,,,,3,708.5864794,711.5924039,711.5922382,0.3049836,712.0369378,712.0369378,n,0.7964211,714.6597311,714.6597311,0,1.774,,,,,sub-022,30,60,700,bloc_loopcontinue.csv,2023-06-12_17h35.01.382,PainUncertainty,2022.2.5,143.8586043
grave,moderee,stimuli/330Hz,stimuli/moderee,bloc_9,prob20hthp_12trials.xlsx,3,36,80,20,0,,,,,0,4,4,4,1,0,12,5,,,,,,,,4.1,714.6597311,718.7604379,718.7604232,0.3050824,719.2090902,719.2090902,n,0.7853048,721.4372548,721.4372548,1,1.386,,,,,sub-022,30,60,700,bloc_loopcontinue.csv,2023-06-12_17h35.01.382,PainUncertainty,2022.2.5,143.8586043
grave,forte,stimuli/330Hz,stimuli/forte,bloc_9,prob20hthp_12trials.xlsx,3,36,80,20,0,,,,,0,4,4,4,1,1,13,0,,,,,,,,3.7,721.4372548,725.1427604,725.1427195,0.300337,725.5871291,725.5871291,m,0.8306373,727.8949066,727.8949066,23,1.428,,,,,sub-022,30,60,700,bloc_loopcontinue.csv,2023-06-12_17h35.01.382,PainUncertainty,2022.2.5,143.8586043
aigu,moderee,stimuli/660Hz,stimuli/moderee,bloc_9,prob20hthp_12trials.xlsx,3,36,80,20,0,,,,,0,4,4,4,1,2,14,7,,,,,,,,4.4,727.8949066,732.2968766,732.2965566,0.3052301,732.7444871,732.7444871,n,0.8159535,735.8073941,735.8073941,0,2.197,,,,,sub-022,30,60,700,bloc_loopcontinue.csv,2023-06-12_17h35.01.382,PainUncertainty,2022.2.5,143.8586043
aigu,forte,stimuli/660Hz,stimuli/forte,bloc_9,prob20hthp_12trials.xlsx,3,36,80,20,0,,,,,0,4,4,4,1,3,15,11,,,,,,,,4.4,735.8073941,740.2075145,740.2073195,0.3050191,740.6554747,740.6554747,m,0.9225136,742.873015,742.873015,28,1.238,,,,,sub-022,30,60,700,bloc_loopcontinue.csv,2023-06-12_17h35.01.382,PainUncertainty,2022.2.5,143.8586043
grave,forte,stimuli/330Hz,stimuli/forte,bloc_9,prob20hthp_12trials.xlsx,3,36,80,20,0,,,,,0,4,4,4,1,4,16,1,,,,,,,,4.6,742.873015,747.4722863,747.472106,0.3007326,747.9162259,747.9162259,m,0.7899793,751.600777,751.600777,21,2.838,,,,,sub-022,30,60,700,bloc_loopcontinue.csv,2023-06-12_17h35.01.382,PainUncertainty,2022.2.5,143.8586043
aigu,moderee,stimuli/660Hz,stimuli/moderee,bloc_9,prob20hthp_12trials.xlsx,3,36,80,20,0,,,,,0,4,4,4,1,5,17,8,,,,,,,,4.6,751.600777,756.2021222,756.2019353,0.3049409,756.6463037,756.6463037,n,0.727465,761.8323854,761.8323854,0,4.408,,,,,sub-022,30,60,700,bloc_loopcontinue.csv,2023-06-12_17h35.01.382,PainUncertainty,2022.2.5,143.8586043
aigu,moderee,stimuli/660Hz,stimuli/moderee,bloc_9,prob20hthp_12trials.xlsx,3,36,80,20,0,,,,,0,4,4,4,1,6,18,10,,,,,,,,3.8,761.8323854,765.6341866,765.6357201,0.3032536,766.0823295,766.0823295,n,0.677407,769.3448556,769.3448556,0,2.525,,,,,sub-022,30,60,700,bloc_loopcontinue.csv,2023-06-12_17h35.01.382,PainUncertainty,2022.2.5,143.8586043
grave,forte,stimuli/330Hz,stimuli/forte,bloc_9,prob20hthp_12trials.xlsx,3,36,80,20,0,,,,,0,4,4,4,1,7,19,2,,,,,,,,3.2,769.3448556,772.5443648,772.5442391,0.3048409,772.9885567,772.9885567,m,0.7513982,776.4585266,776.4585266,29,2.663,,,,,sub-022,30,60,700,bloc_loopcontinue.csv,2023-06-12_17h35.01.382,PainUncertainty,2022.2.5,143.8586043
aigu,moderee,stimuli/660Hz,stimuli/moderee,bloc_9,prob20hthp_12trials.xlsx,3,36,80,20,0,,,,,0,4,4,4,1,8,20,9,,,,,,,,4.4,776.4585266,780.8578622,780.8577807,0.3046998,781.3019802,781.3019802,n,1.0056921,783.7958184,783.7958184,1,1.435,,,,,sub-022,30,60,700,bloc_loopcontinue.csv,2023-06-12_17h35.01.382,PainUncertainty,2022.2.5,143.8586043
grave,forte,stimuli/330Hz,stimuli/forte,bloc_9,prob20hthp_12trials.xlsx,3,36,80,20,0,,,,,0,4,4,4,1,9,21,3,,,,,,,,3.5,783.7958184,787.2963772,787.2961092,0.304967,787.7401948,787.7401948,m,0.7841476,789.5017197,789.5017197,40,0.914,,,,,sub-022,30,60,700,bloc_loopcontinue.csv,2023-06-12_17h35.01.382,PainUncertainty,2022.2.5,143.8586043
aigu,moderee,stimuli/660Hz,stimuli/moderee,bloc_9,prob20hthp_12trials.xlsx,3,36,80,20,0,,,,,0,4,4,4,1,10,22,6,,,,,,,,4.6,789.5017197,794.1024662,794.102314,0.304909,794.5466055,794.5466055,n,0.8472093,797.6071752,797.6071752,1,2.158,,,,,sub-022,30,60,700,bloc_loopcontinue.csv,2023-06-12_17h35.01.382,PainUncertainty,2022.2.5,143.8586043
grave,forte,stimuli/330Hz,stimuli/forte,bloc_9,prob20hthp_12trials.xlsx,3,36,80,20,0,,,,,0,4,4,4,1,11,23,4,,,,,,,,4.5,797.6071752,802.1106662,802.110481,0.3045288,802.5545609,802.5545609,m,0.7981922,806.8131565,806.8131565,28,3.401,,,,,sub-022,30,60,700,bloc_loopcontinue.csv,2023-06-12_17h35.01.382,PainUncertainty,2022.2.5,143.8586043
grave,forte,stimuli/330Hz,stimuli/forte,bloc_9,prob20hthp_12trials.xlsx,3,36,80,20,0,,,,,0,4,4,4,2,0,24,0,,,,,,,,3.2,806.8131565,810.0140757,810.0138793,0.305369,810.4584495,810.4584495,m,1.4602966,814.4706153,814.4706153,30,2.483,,,,,sub-022,30,60,700,bloc_loopcontinue.csv,2023-06-12_17h35.01.382,PainUncertainty,2022.2.5,143.8586043
aigu,moderee,stimuli/660Hz,stimuli/moderee,bloc_9,prob20hthp_12trials.xlsx,3,36,80,20,0,,,,,0,4,4,4,2,1,25,8,,,,,,,,4.3,814.4706153,818.7725374,818.7723189,0.3004179,819.2164241,819.2164241,n,0.7585577,821.9191508,821.9191508,1,1.878,,,,,sub-022,30,60,700,bloc_loopcontinue.csv,2023-06-12_17h35.01.382,PainUncertainty,2022.2.5,143.8586043
grave,forte,stimuli/330Hz,stimuli/forte,bloc_9,prob20hthp_12trials.xlsx,3,36,80,20,0,,,,,0,4,4,4,2,2,26,1,,,,,,,,5,821.9191508,826.9192279,826.9190187,0.3048634,827.3634389,827.3634389,m,0.775613,831.1097008,831.1097008,29,2.921,,,,,sub-022,30,60,700,bloc_loopcontinue.csv,2023-06-12_17h35.01.382,PainUncertainty,2022.2.5,143.8586043
aigu,moderee,stimuli/660Hz,stimuli/moderee,bloc_9,prob20hthp_12trials.xlsx,3,36,80,20,0,,,,,0,4,4,4,2,3,27,9,,,,,,,,3.1,831.1097008,834.2118901,834.2117121,0.3048366,834.6558153,834.6558153,n,0.7456607,837.2804373,837.2804373,0,1.817,,,,,sub-022,30,60,700,bloc_loopcontinue.csv,2023-06-12_17h35.01.382,PainUncertainty,2022.2.5,143.8586043
aigu,moderee,stimuli/660Hz,stimuli/moderee,bloc_9,prob20hthp_12trials.xlsx,3,36,80,20,0,,,,,0,4,4,4,2,4,28,10,,,,,,,,4.4,837.2804373,841.6846893,841.6845427,0.3049597,842.1289571,842.1289571,n,0.7753851,844.5867455,844.5867455,0,1.622,,,,,sub-022,30,60,700,bloc_loopcontinue.csv,2023-06-12_17h35.01.382,PainUncertainty,2022.2.5,143.8586043
grave,forte,stimuli/330Hz,stimuli/forte,bloc_9,prob20hthp_12trials.xlsx,3,36,80,20,0,,,,,0,4,4,4,2,5,29,2,,,,,,,,3.9,844.5867455,848.490984,848.4909956,0.3048834,848.9351232,848.9351232,m,1.5136564,853.1051814,853.1051814,32,2.601,,,,,sub-022,30,60,700,bloc_loopcontinue.csv,2023-06-12_17h35.01.382,PainUncertainty,2022.2.5,143.8586043
aigu,forte,stimuli/660Hz,stimuli/forte,bloc_9,prob20hthp_12trials.xlsx,3,36,80,20,0,,,,,0,4,4,4,2,6,30,11,,,,,,,,4.7,853.1051814,857.8049065,857.8054674,0.3042002,858.2487896,858.2487896,m,1.1005494,861.7701781,861.7701781,31,2.365,,,,,sub-022,30,60,700,bloc_loopcontinue.csv,2023-06-12_17h35.01.382,PainUncertainty,2022.2.5,143.8586043
aigu,moderee,stimuli/660Hz,stimuli/moderee,bloc_9,prob20hthp_12trials.xlsx,3,36,80,20,0,,,,,0,4,4,4,2,7,31,7,,,,,,,,3.7,861.7701781,865.4725136,865.4722623,0.3048619,865.9163429,865.9163429,n,0.8799554,868.8669464,868.8669464,1,2.018,,,,,sub-022,30,60,700,bloc_loopcontinue.csv,2023-06-12_17h35.01.382,PainUncertainty,2022.2.5,143.8586043
aigu,moderee,stimuli/660Hz,stimuli/moderee,bloc_9,prob20hthp_12trials.xlsx,3,36,80,20,0,,,,,0,4,4,4,2,8,32,6,,,,,,,,3.7,868.8669464,872.5706722,872.5704719,0.3049507,873.0148807,873.0148807,n,1.1577172,876.4928059,876.4928059,3,2.262,,,,,sub-022,30,60,700,bloc_loopcontinue.csv,2023-06-12_17h35.01.382,PainUncertainty,2022.2.5,143.8586043
grave,forte,stimuli/330Hz,stimuli/forte,bloc_9,prob20hthp_12trials.xlsx,3,36,80,20,0,,,,,0,4,4,4,2,9,33,3,,,,,,,,3.6,876.4928059,880.0921702,880.0919386,0.3049559,880.5398936,880.5398936,m,0.7883451,884.3400751,884.3400751,28,2.915,,,,,sub-022,30,60,700,bloc_loopcontinue.csv,2023-06-12_17h35.01.382,PainUncertainty,2022.2.5,143.8586043
grave,moderee,stimuli/330Hz,stimuli/moderee,bloc_9,prob20hthp_12trials.xlsx,3,36,80,20,0,,,,,0,4,4,4,2,10,34,5,,,,,,,,3.1,884.3400751,887.4401022,887.439951,0.3052046,887.8843479,887.8843479,n,0.8209473,890.239158,890.239158,0,1.466,,,,,sub-022,30,60,700,bloc_loopcontinue.csv,2023-06-12_17h35.01.382,PainUncertainty,2022.2.5,143.8586043
grave,forte,stimuli/330Hz,stimuli/forte,bloc_9,prob20hthp_12trials.xlsx,3,36,80,20,0,,,,,0,4,4,4,2,11,35,4,,,,,,,,4.6,890.239158,894.8443303,894.8443457,0.3046572,895.2882917,895.2882917,m,1.3604148,899.2522691,899.2522691,26,2.58,,,,,sub-022,30,60,700,bloc_loopcontinue.csv,2023-06-12_17h35.01.382,PainUncertainty,2022.2.5,143.8586043