cue_,stimulus_,cue_fichier,stimulus_fichier,block_name,block_trials_file,block_n_reps,block_ntrials,block_prob_highP_highT,block_prob_highP_lowT,block_pause_after,Bloc_essai.thisRepN,Bloc_essai.thisTrialN,Bloc_essai.thisN,Bloc_essai.thisIndex,blocks.thisRepN,blocks.thisTrialN,blocks.thisN,blocks.thisIndex,trials.thisRepN,trials.thisTrialN,trials.thisN,trials.thisIndex,pause_loop.thisRepN,pause_loop.thisTrialN,pause_loop.thisN,pause_loop.thisIndex,key_resp_5.started,start_calib.started,key_resp_2.started,ISI_duration,pause.started,pause.stopped,cue.started,ISI.started,choice_pain.started,Choice.started,choice_pain.keys,choice_pain.rt,main_text.started,confirm_text.started,ratingScale.response,ratingScale.rt,key_resp_3.started,key_resp_6.started,participant,low_ma,high_ma,failsafe_ma,block_file,date,expName,psychopyVersion,frameRate,
grave,forte,stimuli/330Hz,stimuli/forte,,,,,,,,0,0,0,1,,,,,,,,,,,,,22.94405669999969,33.07926459999999,34.75997319999988,3.7,36.658392999999705,40.35814819999996,40.35795903999974,0.2999621999997544,40.80288789999986,40.80288789999986,m,1.2332999000004747,45.27011649999986,45.27011649999986,71,3.145,,,sub-040,35,100,700,bloc_loop.csv,2023-08-16_12h32.31.700,PainUncertainty,2022.2.5,143.10491880233155,
aigu,moderee,stimuli/660Hz,stimuli/moderee,,,,,,,,0,1,1,2,,,,,,,,,,,,,,,,3.9,45.27011649999986,49.17153089999965,49.172574439999835,0.3040784999998323,49.61592959999962,49.61592959999962,n,0.9941764000000148,53.53530319999982,53.53530319999982,28,2.844,,,sub-040,35,100,700,bloc_loop.csv,2023-08-16_12h32.31.700,PainUncertainty,2022.2.5,143.10491880233155,
aigu,forte,stimuli/660Hz,stimuli/forte,,,,,,,,0,2,2,3,,,,,,,,,,,,,,,,4.7,53.53530319999982,58.23516289999998,58.23512893999964,0.30513059999975667,58.67925409999998,58.67925409999998,m,1.2738376000002063,62.21586129999969,62.21586129999969,71,2.178,,,sub-040,35,100,700,bloc_loop.csv,2023-08-16_12h32.31.700,PainUncertainty,2022.2.5,143.10491880233155,
grave,moderee,stimuli/330Hz,stimuli/moderee,,,,,,,,0,3,3,0,,,,,,,,,,,,,,,,3.3,62.21586129999969,65.52066809999997,65.52075143999969,0.30230200000005425,65.96615649999967,65.96615649999967,n,0.7552783999999519,67.67181399999981,67.67181399999981,20,0.927,,,sub-040,35,100,700,bloc_loop.csv,2023-08-16_12h32.31.700,PainUncertainty,2022.2.5,143.10491880233155,
grave,forte,stimuli/330Hz,stimuli/forte,bloc_1,prob20hthp_12trials.xlsx,4,48,20,80,0,,,,,0,0,0,0,0,0,0,1,,,,,,,,3.9,84.99715719999995,88.89897699999983,88.8990817399997,0.3049836999998661,89.34492229999978,89.34492229999978,m,1.0156729000000269,93.27571339999986,93.27571339999986,77,2.858,,,sub-040,35,100,700,bloc_loop.csv,2023-08-16_12h32.31.700,PainUncertainty,2022.2.5,143.10491880233155,
grave,forte,stimuli/330Hz,stimuli/forte,bloc_1,prob20hthp_12trials.xlsx,4,48,20,80,0,,,,,0,0,0,0,0,1,1,2,,,,,,,,3.8,93.27571339999986,97.08007169999973,97.08028013999979,0.3011714999997821,97.52492969999957,97.52492969999957,m,0.7021503999999368,100.52027529999987,100.52027529999987,74,2.22,,,sub-040,35,100,700,bloc_loop.csv,2023-08-16_12h32.31.700,PainUncertainty,2022.2.5,143.10491880233155,
aigu,moderee,stimuli/660Hz,stimuli/moderee,bloc_1,prob20hthp_12trials.xlsx,4,48,20,80,0,,,,,0,0,0,0,0,2,2,9,,,,,,,,4.2,100.52027529999987,104.71985699999959,104.71998303999976,0.3050723999999718,105.16406259999985,105.16406259999985,n,0.6967678999999407,108.70482569999967,108.70482569999967,13,2.782,,,sub-040,35,100,700,bloc_loop.csv,2023-08-16_12h32.31.700,PainUncertainty,2022.2.5,143.10491880233155,
aigu,moderee,stimuli/660Hz,stimuli/moderee,bloc_1,prob20hthp_12trials.xlsx,4,48,20,80,0,,,,,0,0,0,0,0,3,3,6,,,,,,,,3.4,108.70482569999967,112.10972739999988,112.10972793999986,0.3051875999999538,112.55397369999991,112.55397369999991,n,0.7129497000000811,114.26937109999972,114.26937109999972,10,0.927,,,sub-040,35,100,700,bloc_loop.csv,2023-08-16_12h32.31.700,PainUncertainty,2022.2.5,143.10491880233155,
aigu,forte,stimuli/660Hz,stimuli/forte,bloc_1,prob20hthp_12trials.xlsx,4,48,20,80,0,,,,,0,0,0,0,0,4,4,11,,,,,,,,4.6,114.26937109999972,118.87479189999976,118.87494673999959,0.30517299999974057,119.32238729999972,119.32238729999972,m,0.7121587000001455,123.39726679999967,123.39726679999967,85,3.288,,,sub-040,35,100,700,bloc_loop.csv,2023-08-16_12h32.31.700,PainUncertainty,2022.2.5,143.10491880233155,
aigu,moderee,stimuli/660Hz,stimuli/moderee,bloc_1,prob20hthp_12trials.xlsx,4,48,20,80,0,,,,,0,0,0,0,0,5,5,10,,,,,,,,4.9,123.39726679999967,128.29916649999996,128.29913323999995,0.3051361000002544,128.74330329999975,128.74330329999975,n,0.6505814000001919,130.30119779999995,130.30119779999995,10,0.845,,,sub-040,35,100,700,bloc_loop.csv,2023-08-16_12h32.31.700,PainUncertainty,2022.2.5,143.10491880233155,
aigu,moderee,stimuli/660Hz,stimuli/moderee,bloc_1,prob20hthp_12trials.xlsx,4,48,20,80,0,,,,,0,0,0,0,0,6,6,7,,,,,,,,3,130.30119779999995,133.3067848999999,133.30677153999954,0.3052228000001378,133.75097639999967,133.75097639999967,n,0.7248133000002781,137.92741239999987,137.92741239999987,10,3.393,,,sub-040,35,100,700,bloc_loop.csv,2023-08-16_12h32.31.700,PainUncertainty,2022.2.5,143.10491880233155,
aigu,moderee,stimuli/660Hz,stimuli/moderee,bloc_1,prob20hthp_12trials.xlsx,4,48,20,80,0,,,,,0,0,0,0,0,7,7,8,,,,,,,,4.4,137.92741239999987,142.3287389999996,142.32884943999966,0.30499220000001515,142.77294799999981,142.77294799999981,n,0.7474379999998746,147.10462129999996,147.10462129999996,7,3.511,,,sub-040,35,100,700,bloc_loop.csv,2023-08-16_12h32.31.700,PainUncertainty,2022.2.5,143.10491880233155,
grave,forte,stimuli/330Hz,stimuli/forte,bloc_1,prob20hthp_12trials.xlsx,4,48,20,80,0,,,,,0,0,0,0,0,8,8,0,,,,,,,,4,147.10462129999996,151.10779909999974,151.1077980399998,0.3053838999999243,151.5562361999996,151.5562361999996,m,0.7344186000000263,153.65702839999994,153.65702839999994,80,1.301,,,sub-040,35,100,700,bloc_loop.csv,2023-08-16_12h32.31.700,PainUncertainty,2022.2.5,143.10491880233155,
grave,forte,stimuli/330Hz,stimuli/forte,bloc_1,prob20hthp_12trials.xlsx,4,48,20,80,0,,,,,0,0,0,0,0,9,9,3,,,,,,,,3.3,153.65702839999994,156.9626948,156.96285063999971,0.30464589999974123,157.40678239999988,157.40678239999988,m,0.6353862000005392,159.65381439999965,159.65381439999965,79,1.532,,,sub-040,35,100,700,bloc_loop.csv,2023-08-16_12h32.31.700,PainUncertainty,2022.2.5,143.10491880233155,
grave,moderee,stimuli/330Hz,stimuli/moderee,bloc_1,prob20hthp_12trials.xlsx,4,48,20,80,0,,,,,0,0,0,0,0,10,10,5,,,,,,,,3.6,159.65381439999965,163.2547800999996,163.25486193999973,0.30523300000004383,163.69914889999973,163.69914889999973,n,0.6307209000001421,167.66202449999992,167.66202449999992,15,3.261,,,sub-040,35,100,700,bloc_loop.csv,2023-08-16_12h32.31.700,PainUncertainty,2022.2.5,143.10491880233155,
grave,forte,stimuli/330Hz,stimuli/forte,bloc_1,prob20hthp_12trials.xlsx,4,48,20,80,0,,,,,0,0,0,0,0,11,11,4,,,,,,,,4.6,167.66202449999992,172.2630577,172.26290983999957,0.305125599999883,172.7073387999999,172.7073387999999,m,0.6800407000000632,174.5832102999998,174.5832102999998,80,1.135,,,sub-040,35,100,700,bloc_loop.csv,2023-08-16_12h32.31.700,PainUncertainty,2022.2.5,143.10491880233155,
aigu,forte,stimuli/660Hz,stimuli/forte,bloc_1,prob20hthp_12trials.xlsx,4,48,20,80,0,,,,,0,0,0,0,1,0,12,11,,,,,,,,4.9,174.5832102999998,179.48589719999973,179.48600043999954,0.30516690000013114,179.93389979999984,179.93389979999984,m,0.5989917000001697,182.41648609999993,182.41648609999993,85,1.818,,,sub-040,35,100,700,bloc_loop.csv,2023-08-16_12h32.31.700,PainUncertainty,2022.2.5,143.10491880233155,
grave,forte,stimuli/330Hz,stimuli/forte,bloc_1,prob20hthp_12trials.xlsx,4,48,20,80,0,,,,,0,0,0,0,1,1,13,3,,,,,,,,4.9,182.41648609999993,187.32023839999965,187.32032253999955,0.30506570000034117,187.76894749999974,187.76894749999974,m,0.8264871000001222,191.6582295999997,191.6582295999997,81,2.984,,,sub-040,35,100,700,bloc_loop.csv,2023-08-16_12h32.31.700,PainUncertainty,2022.2.5,143.10491880233155,
grave,moderee,stimuli/330Hz,stimuli/moderee,bloc_1,prob20hthp_12trials.xlsx,4,48,20,80,0,,,,,0,0,0,0,1,2,14,5,,,,,,,,4,191.6582295999997,195.66193829999975,195.66193804,0.3052428000000873,196.10838539999986,196.10838539999986,n,0.580711699999938,199.2017152999997,199.2017152999997,13,2.462,,,sub-040,35,100,700,bloc_loop.csv,2023-08-16_12h32.31.700,PainUncertainty,2022.2.5,143.10491880233155,
aigu,moderee,stimuli/660Hz,stimuli/moderee,bloc_1,prob20hthp_12trials.xlsx,4,48,20,80,0,,,,,0,0,0,0,1,3,15,7,,,,,,,,4.6,199.2017152999997,203.80137999999988,203.80144993999988,0.30065719999993235,204.2460159999996,204.2460159999996,n,0.7468789000004108,208.09142249999968,208.09142249999968,13,3.022,,,sub-040,35,100,700,bloc_loop.csv,2023-08-16_12h32.31.700,PainUncertainty,2022.2.5,143.10491880233155,
grave,forte,stimuli/330Hz,stimuli/forte,bloc_1,prob20hthp_12trials.xlsx,4,48,20,80,0,,,,,0,0,0,0,1,4,16,4,,,,,,,,3.2,208.09142249999968,211.29533709999987,211.2954261399998,0.3049894000000677,211.73986269999978,211.73986269999978,m,0.7003166000004057,213.80015549999962,213.80015549999962,86,1.282,,,sub-040,35,100,700,bloc_loop.csv,2023-08-16_12h32.31.700,PainUncertainty,2022.2.5,143.10491880233155,
aigu,moderee,stimuli/660Hz,stimuli/moderee,bloc_1,prob20hthp_12trials.xlsx,4,48,20,80,0,,,,,0,0,0,0,1,5,17,10,,,,,,,,4.9,213.80015549999962,218.69938449999972,218.69948143999977,0.30490880000024845,219.14680629999975,219.14680629999975,n,0.7210791000002246,222.65537399999994,222.65537399999994,11,2.706,,,sub-040,35,100,700,bloc_loop.csv,2023-08-16_12h32.31.700,PainUncertainty,2022.2.5,143.10491880233155,
grave,forte,stimuli/330Hz,stimuli/forte,bloc_1,prob20hthp_12trials.xlsx,4,48,20,80,0,,,,,0,0,0,0,1,6,18,2,,,,,,,,4.9,222.65537399999994,227.55456999999979,227.55557383999962,0.304084999999759,228.00551759999962,228.00551759999962,m,0.6231215000002521,232.16607799999974,232.16607799999974,91,3.482,,,sub-040,35,100,700,bloc_loop.csv,2023-08-16_12h32.31.700,PainUncertainty,2022.2.5,143.10491880233155,
grave,forte,stimuli/330Hz,stimuli/forte,bloc_1,prob20hthp_12trials.xlsx,4,48,20,80,0,,,,,0,0,0,0,1,7,19,1,,,,,,,,3.9,232.16607799999974,236.06932129999996,236.0692854399997,0.30484290000003966,236.51352749999978,236.51352749999978,m,0.513393200000337,240.06558129999985,240.06558129999985,91,2.961,,,sub-040,35,100,700,bloc_loop.csv,2023-08-16_12h32.31.700,PainUncertainty,2022.2.5,143.10491880233155,
aigu,moderee,stimuli/660Hz,stimuli/moderee,bloc_1,prob20hthp_12trials.xlsx,4,48,20,80,0,,,,,0,0,0,0,1,8,20,9,,,,,,,,3.3,240.06558129999985,243.36863949999997,243.3687330399996,0.3051218999999037,243.81287949999978,243.81287949999978,n,0.4227686999997786,246.21841619999987,246.21841619999987,10,1.92,,,sub-040,35,100,700,bloc_loop.csv,2023-08-16_12h32.31.700,PainUncertainty,2022.2.5,143.10491880233155,
aigu,moderee,stimuli/660Hz,stimuli/moderee,bloc_1,prob20hthp_12trials.xlsx,4,48,20,80,0,,,,,0,0,0,0,1,9,21,6,,,,,,,,4,246.21841619999987,250.2243338999997,250.2241223399999,0.30537920000006125,250.67209269999967,250.67209269999967,n,0.6118504000005487,252.06949489999988,252.06949489999988,10,0.719,,,sub-040,35,100,700,bloc_loop.csv,2023-08-16_12h32.31.700,PainUncertainty,2022.2.5,143.10491880233155,
grave,forte,stimuli/330Hz,stimuli/forte,bloc_1,prob20hthp_12trials.xlsx,4,48,20,80,0,,,,,0,0,0,0,1,10,22,0,,,,,,,,5,252.06949489999988,257.0725708,257.0722379399997,0.30472599999984595,257.5164585999996,257.5164585999996,m,0.5921379000001252,260.54216399999996,260.54216399999996,90,2.365,,,sub-040,35,100,700,bloc_loop.csv,2023-08-16_12h32.31.700,PainUncertainty,2022.2.5,143.10491880233155,
aigu,moderee,stimuli/660Hz,stimuli/moderee,bloc_1,prob20hthp_12trials.xlsx,4,48,20,80,0,,,,,0,0,0,0,1,11,23,8,,,,,,,,3.5,260.54216399999996,264.0452481999996,264.04533463999974,0.30517290000034336,264.49184739999964,264.49184739999964,n,0.6503711000000294,267.32273849999956,267.32273849999956,14,2.101,,,sub-040,35,100,700,bloc_loop.csv,2023-08-16_12h32.31.700,PainUncertainty,2022.2.5,143.10491880233155,
grave,forte,stimuli/330Hz,stimuli/forte,bloc_1,prob20hthp_12trials.xlsx,4,48,20,80,0,,,,,0,0,0,0,2,0,24,4,,,,,,,,3.2,267.32273849999956,270.5252551999997,270.52532543999973,0.3054102999999486,270.97188879999976,270.97188879999976,m,0.5923957999998493,274.8358457999998,274.8358457999998,90,3.2,,,sub-040,35,100,700,bloc_loop.csv,2023-08-16_12h32.31.700,PainUncertainty,2022.2.5,143.10491880233155,
grave,moderee,stimuli/330Hz,stimuli/moderee,bloc_1,prob20hthp_12trials.xlsx,4,48,20,80,0,,,,,0,0,0,0,2,1,25,5,,,,,,,,3,274.8358457999998,277.83828829999993,277.8383065399996,0.30508440000039627,278.2860879,278.2860879,n,0.710957000000235,279.7257841999999,279.7257841999999,10,0.672,,,sub-040,35,100,700,bloc_loop.csv,2023-08-16_12h32.31.700,PainUncertainty,2022.2.5,143.10491880233155,
aigu,moderee,stimuli/660Hz,stimuli/moderee,bloc_1,prob20hthp_12trials.xlsx,4,48,20,80,0,,,,,0,0,0,0,2,2,26,7,,,,,,,,3.9,279.7257841999999,283.6304780999999,283.6306987399996,0.30491940000001705,284.07473059999984,284.07473059999984,n,1.1024660000002768,288.3910729999998,288.3910729999998,14,3.148,,,sub-040,35,100,700,bloc_loop.csv,2023-08-16_12h32.31.700,PainUncertainty,2022.2.5,143.10491880233155,
aigu,moderee,stimuli/660Hz,stimuli/moderee,bloc_1,prob20hthp_12trials.xlsx,4,48,20,80,0,,,,,0,0,0,0,2,3,27,6,,,,,,,,3.5,288.3910729999998,291.8958597999999,291.8959062399997,0.3049668000003294,292.3401394999996,292.3401394999996,n,1.14116950000016,294.19477019999977,294.19477019999977,10,0.643,,,sub-040,35,100,700,bloc_loop.csv,2023-08-16_12h32.31.700,PainUncertainty,2022.2.5,143.10491880233155,
grave,forte,stimuli/330Hz,stimuli/forte,bloc_1,prob20hthp_12trials.xlsx,4,48,20,80,0,,,,,0,0,0,0,2,4,28,2,,,,,,,,3.8,294.19477019999977,298.0003436999996,298.00037903999987,0.3050950000001649,298.44447519999994,298.44447519999994,m,0.5927605000001677,301.8531515999998,301.8531515999998,89,2.741,,,sub-040,35,100,700,bloc_loop.csv,2023-08-16_12h32.31.700,PainUncertainty,2022.2.5,143.10491880233155,
aigu,moderee,stimuli/660Hz,stimuli/moderee,bloc_1,prob20hthp_12trials.xlsx,4,48,20,80,0,,,,,0,0,0,0,2,5,29,10,,,,,,,,4.3,301.8531515999998,306.15453049999996,306.15458313999966,0.3051043000000391,306.6022269,306.6022269,n,0.6412871000002269,308.5990204,308.5990204,13,1.289,,,sub-040,35,100,700,bloc_loop.csv,2023-08-16_12h32.31.700,PainUncertainty,2022.2.5,143.10491880233155,
grave,forte,stimuli/330Hz,stimuli/forte,bloc_1,prob20hthp_12trials.xlsx,4,48,20,80,0,,,,,0,0,0,0,2,6,30,0,,,,,,,,3,308.5990204,311.5991385999996,311.59920253999985,0.30514640000001236,312.0433171999998,312.0433171999998,m,0.8844859000005272,313.98481479999964,313.98481479999964,90,0.997,,,sub-040,35,100,700,bloc_loop.csv,2023-08-16_12h32.31.700,PainUncertainty,2022.2.5,143.10491880233155,
aigu,forte,stimuli/660Hz,stimuli/forte,bloc_1,prob20hthp_12trials.xlsx,4,48,20,80,0,,,,,0,0,0,0,2,7,31,11,,,,,,,,3.7,313.98481479999964,317.69016269999975,317.69034283999986,0.30499820000022737,318.1346402999998,318.1346402999998,m,0.5961954999997943,320.94041549999974,320.94041549999974,88,2.143,,,sub-040,35,100,700,bloc_loop.csv,2023-08-16_12h32.31.700,PainUncertainty,2022.2.5,143.10491880233155,
aigu,moderee,stimuli/660Hz,stimuli/moderee,bloc_1,prob20hthp_12trials.xlsx,4,48,20,80,0,,,,,0,0,0,0,2,8,32,9,,,,,,,,3.1,320.94041549999974,324.04516269999976,324.0452749399999,0.30497890000015104,324.48932609999974,324.48932609999974,n,0.5766272999999273,325.7533878999998,325.7533878999998,10,0.608,,,sub-040,35,100,700,bloc_loop.csv,2023-08-16_12h32.31.700,PainUncertainty,2022.2.5,143.10491880233155,
grave,forte,stimuli/330Hz,stimuli/forte,bloc_1,prob20hthp_12trials.xlsx,4,48,20,80,0,,,,,0,0,0,0,2,9,33,1,,,,,,,,4.4,325.7533878999998,330.1575054,330.15755183999977,0.30499680000002627,330.6035017999998,330.6035017999998,m,0.556108100000074,335.8574243999997,335.8574243999997,90,4.623,,,sub-040,35,100,700,bloc_loop.csv,2023-08-16_12h32.31.700,PainUncertainty,2022.2.5,143.10491880233155,
aigu,moderee,stimuli/660Hz,stimuli/moderee,bloc_1,prob20hthp_12trials.xlsx,4,48,20,80,0,,,,,0,0,0,0,2,10,34,8,,,,,,,,3.2,335.8574243999997,339.0612550999999,339.0612507399999,0.3031097999996746,339.50742519999994,339.50742519999994,n,0.5297867000003862,342.12287979999974,342.12287979999974,11,2.003,,,sub-040,35,100,700,bloc_loop.csv,2023-08-16_12h32.31.700,PainUncertainty,2022.2.5,143.10491880233155,
grave,forte,stimuli/330Hz,stimuli/forte,bloc_1,prob20hthp_12trials.xlsx,4,48,20,80,0,,,,,0,0,0,0,2,11,35,3,,,,,,,,3.5,342.12287979999974,345.62411269999984,345.6241450399996,0.30571310000004814,346.07260659999974,346.07260659999974,m,0.5892235999999684,349.04596619999984,349.04596619999984,92,2.31,,,sub-040,35,100,700,bloc_loop.csv,2023-08-16_12h32.31.700,PainUncertainty,2022.2.5,143.10491880233155,
aigu,moderee,stimuli/660Hz,stimuli/moderee,bloc_1,prob20hthp_12trials.xlsx,4,48,20,80,0,,,,,0,0,0,0,3,0,36,10,,,,,,,,4.6,349.04596619999984,353.64599069999986,353.6459893399999,0.3052453999998761,354.0900941,354.0900941,n,0.5398144000000684,357.2619963999996,357.2619963999996,12,2.558,,,sub-040,35,100,700,bloc_loop.csv,2023-08-16_12h32.31.700,PainUncertainty,2022.2.5,143.10491880233155,
aigu,forte,stimuli/660Hz,stimuli/forte,bloc_1,prob20hthp_12trials.xlsx,4,48,20,80,0,,,,,0,0,0,0,3,1,37,11,,,,,,,,3.7,357.2619963999996,360.96670399999994,360.9667273399998,0.3050167000001238,361.4110093999998,361.4110093999998,m,0.48730470000054993,363.8635916999997,363.8635916999997,89,1.886,,,sub-040,35,100,700,bloc_loop.csv,2023-08-16_12h32.31.700,PainUncertainty,2022.2.5,143.10491880233155,
aigu,moderee,stimuli/660Hz,stimuli/moderee,bloc_1,prob20hthp_12trials.xlsx,4,48,20,80,0,,,,,0,0,0,0,3,2,38,6,,,,,,,,4.2,363.8635916999997,368.0647233999998,368.06471013999976,0.3044806999996581,368.5088369,368.5088369,n,0.6916160000000673,371.9683882999998,371.9683882999998,11,2.685,,,sub-040,35,100,700,bloc_loop.csv,2023-08-16_12h32.31.700,PainUncertainty,2022.2.5,143.10491880233155,
grave,forte,stimuli/330Hz,stimuli/forte,bloc_1,prob20hthp_12trials.xlsx,4,48,20,80,0,,,,,0,0,0,0,3,3,39,0,,,,,,,,4.4,371.9683882999998,376.3712909999999,376.3713043399996,0.30140480000000025,376.81565809999984,376.81565809999984,m,0.5685859000000164,380.1530481,380.1530481,91,2.705,,,sub-040,35,100,700,bloc_loop.csv,2023-08-16_12h32.31.700,PainUncertainty,2022.2.5,143.10491880233155,
grave,forte,stimuli/330Hz,stimuli/forte,bloc_1,prob20hthp_12trials.xlsx,4,48,20,80,0,,,,,0,0,0,0,3,4,40,2,,,,,,,,3.4,380.1530481,383.5522440999998,383.55235033999975,0.3059301000002961,384.00169319999986,384.00169319999986,m,0.5700722000001406,386.7250420999999,386.7250420999999,89,2.088,,,sub-040,35,100,700,bloc_loop.csv,2023-08-16_12h32.31.700,PainUncertainty,2022.2.5,143.10491880233155,
grave,forte,stimuli/330Hz,stimuli/forte,bloc_1,prob20hthp_12trials.xlsx,4,48,20,80,0,,,,,0,0,0,0,3,5,41,4,,,,,,,,3.7,386.7250420999999,390.4282025999996,390.4285863399998,0.30503920000001017,390.87255689999984,390.87255689999984,m,0.4396391999998741,394.14263219999975,394.14263219999975,91,2.757,,,sub-040,35,100,700,bloc_loop.csv,2023-08-16_12h32.31.700,PainUncertainty,2022.2.5,143.10491880233155,
aigu,moderee,stimuli/660Hz,stimuli/moderee,bloc_1,prob20hthp_12trials.xlsx,4,48,20,80,0,,,,,0,0,0,0,3,6,42,9,,,,,,,,4,394.14263219999975,398.14447199999995,398.14461104,0.3047982999996748,398.5885979999998,398.5885979999998,n,0.7304862000005414,402.2942948,402.2942948,19,2.907,,,sub-040,35,100,700,bloc_loop.csv,2023-08-16_12h32.31.700,PainUncertainty,2022.2.5,143.10491880233155,
grave,moderee,stimuli/330Hz,stimuli/moderee,bloc_1,prob20hthp_12trials.xlsx,4,48,20,80,0,,,,,0,0,0,0,3,7,43,5,,,,,,,,3.2,402.2942948,405.4998682999999,405.4998782399996,0.3048242999998365,405.9437730999998,405.9437730999998,n,0.6031330000005255,409.31278329999986,409.31278329999986,11,2.705,,,sub-040,35,100,700,bloc_loop.csv,2023-08-16_12h32.31.700,PainUncertainty,2022.2.5,143.10491880233155,
aigu,moderee,stimuli/660Hz,stimuli/moderee,bloc_1,prob20hthp_12trials.xlsx,4,48,20,80,0,,,,,0,0,0,0,3,8,44,7,,,,,,,,4.5,409.31278329999986,413.8131658999996,413.81308723999996,0.30508000000008906,414.25716869999997,414.25716869999997,n,0.7635944000003292,418.3438965999999,418.3438965999999,10,3.268,,,sub-040,35,100,700,bloc_loop.csv,2023-08-16_12h32.31.700,PainUncertainty,2022.2.5,143.10491880233155,
aigu,moderee,stimuli/660Hz,stimuli/moderee,bloc_1,prob20hthp_12trials.xlsx,4,48,20,80,0,,,,,0,0,0,0,3,9,45,8,,,,,,,,3.2,418.3438965999999,421.54317549999996,421.5430625399997,0.30088999999998123,421.9874077999998,421.9874077999998,n,0.7627518000003874,424.9154860999997,424.9154860999997,14,2.094,,,sub-040,35,100,700,bloc_loop.csv,2023-08-16_12h32.31.700,PainUncertainty,2022.2.5,143.10491880233155,
grave,forte,stimuli/330Hz,stimuli/forte,bloc_1,prob20hthp_12trials.xlsx,4,48,20,80,0,,,,,0,0,0,0,3,10,46,3,,,,,,,,3.4,424.9154860999997,428.3149610999999,428.3149624399996,0.3050582000000759,428.75906499999974,428.75906499999974,m,0.560117800000171,430.8131649999996,430.8131649999996,90,1.436,,,sub-040,35,100,700,bloc_loop.csv,2023-08-16_12h32.31.700,PainUncertainty,2022.2.5,143.10491880233155,
grave,forte,stimuli/330Hz,stimuli/forte,bloc_1,prob20hthp_12trials.xlsx,4,48,20,80,0,,,,,0,0,0,0,3,11,47,1,,,,,,,,3.1,430.8131649999996,433.91279729999997,433.91292373999954,0.3046623999998701,434.3569110999997,434.3569110999997,m,0.4813053000002583,438.1024559999996,438.1024559999996,91,3.205,,,sub-040,35,100,700,bloc_loop.csv,2023-08-16_12h32.31.700,PainUncertainty,2022.2.5,143.10491880233155,
grave,forte,stimuli/330Hz,stimuli/forte,bloc_2,prob50_50_4trials.xlsx,2,8,50,50,1,,,,,0,1,1,1,0,0,0,1,,,,,,,,4.6,438.1024559999996,442.7054820999997,442.70556643999976,0.3050522999997156,443.1502354999998,443.1502354999998,m,0.549011099999916,446.29093589999957,446.29093589999957,92,2.511,,,sub-040,35,100,700,bloc_loop.csv,2023-08-16_12h32.31.700,PainUncertainty,2022.2.5,143.10491880233155,
aigu,moderee,stimuli/660Hz,stimuli/moderee,bloc_2,prob50_50_4trials.xlsx,2,8,50,50,1,,,,,0,1,1,1,0,1,1,2,,,,,,,,3.7,446.29093589999957,449.9914945999999,449.99148193999986,0.30078739999999016,450.4359179999997,450.4359179999997,n,0.7497352000000319,454.2843638999998,454.2843638999998,14,3.018,,,sub-040,35,100,700,bloc_loop.csv,2023-08-16_12h32.31.700,PainUncertainty,2022.2.5,143.10491880233155,
aigu,forte,stimuli/660Hz,stimuli/forte,bloc_2,prob50_50_4trials.xlsx,2,8,50,50,1,,,,,0,1,1,1,0,2,2,3,,,,,,,,3.5,454.2843638999998,457.78393819999974,457.78407533999984,0.305078500000036,458.2320934999998,458.2320934999998,m,0.4864443999999821,460.9492766999997,460.9492766999997,93,2.15,,,sub-040,35,100,700,bloc_loop.csv,2023-08-16_12h32.31.700,PainUncertainty,2022.2.5,143.10491880233155,
grave,moderee,stimuli/330Hz,stimuli/moderee,bloc_2,prob50_50_4trials.xlsx,2,8,50,50,1,,,,,0,1,1,1,0,3,3,0,,,,,,,,3.6,460.9492766999997,464.55045949999976,464.54883333999965,0.30496409999977914,464.9927189,464.9927189,n,0.5035484999998516,468.76496169999973,468.76496169999973,10,3.205,,,sub-040,35,100,700,bloc_loop.csv,2023-08-16_12h32.31.700,PainUncertainty,2022.2.5,143.10491880233155,
aigu,moderee,stimuli/660Hz,stimuli/moderee,bloc_2,prob50_50_4trials.xlsx,2,8,50,50,1,,,,,0,1,1,1,1,0,4,2,,,,,,,,3.2,468.76496169999973,471.9658755999999,471.9659834399997,0.3050930999997945,472.41008969999984,472.41008969999984,n,0.5839561000002504,475.46292649999987,475.46292649999987,11,2.404,,,sub-040,35,100,700,bloc_loop.csv,2023-08-16_12h32.31.700,PainUncertainty,2022.2.5,143.10491880233155,
grave,moderee,stimuli/330Hz,stimuli/moderee,bloc_2,prob50_50_4trials.xlsx,2,8,50,50,1,,,,,0,1,1,1,1,1,5,0,,,,,,,,4.8,475.46292649999987,480.26561139999967,480.26564933999975,0.3049597999997786,480.7101336999999,480.7101336999999,n,0.7978589000003922,483.9701219999997,483.9701219999997,12,2.386,,,sub-040,35,100,700,bloc_loop.csv,2023-08-16_12h32.31.700,PainUncertainty,2022.2.5,143.10491880233155,
grave,forte,stimuli/330Hz,stimuli/forte,bloc_2,prob50_50_4trials.xlsx,2,8,50,50,1,,,,,0,1,1,1,1,2,6,1,,,,,,,,3.1,483.9701219999997,487.07216329999983,487.07230713999957,0.30096659999981057,487.5163657999997,487.5163657999997,m,0.4844493999999031,489.53022329999976,489.53022329999976,93,1.475,,,sub-040,35,100,700,bloc_loop.csv,2023-08-16_12h32.31.700,PainUncertainty,2022.2.5,143.10491880233155,
aigu,forte,stimuli/660Hz,stimuli/forte,bloc_2,prob50_50_4trials.xlsx,2,8,50,50,1,,,,,0,1,1,1,1,3,7,3,,,,,,,,3,489.53022329999976,492.53096449999975,492.5311533399997,0.30454210000016246,492.97515639999983,492.97515639999983,m,0.5550832000003538,496.9192530999999,496.9192530999999,94,1.359,,,sub-040,35,100,700,bloc_loop.csv,2023-08-16_12h32.31.700,PainUncertainty,2022.2.5,143.10491880233155,
,,,,bloc_2,prob50_50_4trials.xlsx,2,8,50,50,1,,,,,0,1,1,1,,,,,0,0,0,0,,,,,,,,,,,,,,,,,496.9192530999999,522.2636299999999,sub-040,35,100,700,bloc_loop.csv,2023-08-16_12h32.31.700,PainUncertainty,2022.2.5,143.10491880233155,
grave,moderee,stimuli/330Hz,stimuli/moderee,bloc_3,prob80hthp_12trials.xlsx,2,24,80,20,0,,,,,0,2,2,2,0,0,0,3,,,,,,,,4.6,523.6945582999997,528.2989917,528.2991175399995,0.3051924000001236,528.7432971999997,528.7432971999997,n,0.74538849999999,530.1851377999997,530.1851377999997,10,0.643,,,sub-040,35,100,700,bloc_loop.csv,2023-08-16_12h32.31.700,PainUncertainty,2022.2.5,143.10491880233155,
grave,moderee,stimuli/330Hz,stimuli/moderee,bloc_3,prob80hthp_12trials.xlsx,2,24,80,20,0,,,,,0,2,2,2,0,1,1,4,,,,,,,,3.5,530.1851377999997,533.6891609999998,533.68906464,0.3063000999995893,534.1390167999998,534.1390167999998,n,1.1180529000002934,538.7723078999998,538.7723078999998,10,3.455,,,sub-040,35,100,700,bloc_loop.csv,2023-08-16_12h32.31.700,PainUncertainty,2022.2.5,143.10491880233155,
grave,moderee,stimuli/330Hz,stimuli/moderee,bloc_3,prob80hthp_12trials.xlsx,2,24,80,20,0,,,,,0,2,2,2,0,2,2,1,,,,,,,,3.7,538.7723078999998,542.4744339999997,542.47454834,0.3055159000000458,542.9226411,542.9226411,n,0.6151677000002564,544.8594337,544.8594337,11,1.26,,,sub-040,35,100,700,bloc_loop.csv,2023-08-16_12h32.31.700,PainUncertainty,2022.2.5,143.10491880233155,
grave,moderee,stimuli/330Hz,stimuli/moderee,bloc_3,prob80hthp_12trials.xlsx,2,24,80,20,0,,,,,0,2,2,2,0,3,3,2,,,,,,,,3,544.8594337,547.8640080999999,547.8639132399996,0.30528800000001866,548.3085741,548.3085741,n,0.6146032999999989,550.3771806,550.3771806,12,1.372,,,sub-040,35,100,700,bloc_loop.csv,2023-08-16_12h32.31.700,PainUncertainty,2022.2.5,143.10491880233155,
aigu,forte,stimuli/660Hz,stimuli/forte,bloc_3,prob80hthp_12trials.xlsx,2,24,80,20,0,,,,,0,2,2,2,0,4,4,9,,,,,,,,3.7,550.3771806,554.0799499,554.0799525399996,0.3052275999998528,554.5241747999999,554.5241747999999,m,0.6000002000000677,558.0978344999999,558.0978344999999,90,2.914,,,sub-040,35,100,700,bloc_loop.csv,2023-08-16_12h32.31.700,PainUncertainty,2022.2.5,143.10491880233155,
grave,forte,stimuli/330Hz,stimuli/forte,bloc_3,prob80hthp_12trials.xlsx,2,24,80,20,0,,,,,0,2,2,2,0,5,5,5,,,,,,,,3.5,558.0978344999999,561.6021355999997,561.60199184,0.3005315000000337,562.0462841999997,562.0462841999997,m,0.6118289999999433,565.0035749999997,565.0035749999997,93,2.268,,,sub-040,35,100,700,bloc_loop.csv,2023-08-16_12h32.31.700,PainUncertainty,2022.2.5,143.10491880233155,
grave,moderee,stimuli/330Hz,stimuli/moderee,bloc_3,prob80hthp_12trials.xlsx,2,24,80,20,0,,,,,0,2,2,2,0,6,6,0,,,,,,,,3.4,565.0035749999997,568.4089612999996,568.4085185399997,0.30478649999986374,568.8521981999997,568.8521981999997,n,1.8180560000000696,572.1506192999996,572.1506192999996,13,1.398,,,sub-040,35,100,700,bloc_loop.csv,2023-08-16_12h32.31.700,PainUncertainty,2022.2.5,143.10491880233155,
aigu,forte,stimuli/660Hz,stimuli/forte,bloc_3,prob80hthp_12trials.xlsx,2,24,80,20,0,,,,,0,2,2,2,0,7,7,10,,,,,,,,4.5,572.1506192999996,576.6522086999998,576.6522523399997,0.3047980000001189,577.0962622999996,577.0962622999996,m,0.652744000000439,579.8386186999996,579.8386186999996,90,2.031,,,sub-040,35,100,700,bloc_loop.csv,2023-08-16_12h32.31.700,PainUncertainty,2022.2.5,143.10491880233155,
aigu,forte,stimuli/660Hz,stimuli/forte,bloc_3,prob80hthp_12trials.xlsx,2,24,80,20,0,,,,,0,2,2,2,0,8,8,7,,,,,,,,4,579.8386186999996,583.8410322,583.8409874399997,0.29977050000024974,584.2833133999998,584.2833133999998,m,0.7033421999999518,587.2103597999999,587.2103597999999,91,2.144,,,sub-040,35,100,700,bloc_loop.csv,2023-08-16_12h32.31.700,PainUncertainty,2022.2.5,143.10491880233155,
aigu,moderee,stimuli/660Hz,stimuli/moderee,bloc_3,prob80hthp_12trials.xlsx,2,24,80,20,0,,,,,0,2,2,2,0,9,9,11,,,,,,,,4.8,587.2103597999999,592.0150003999997,592.0151053399998,0.30509970000002795,592.4592066999999,592.4592066999999,n,0.6874094000004334,593.9067286999998,593.9067286999998,10,0.643,,,sub-040,35,100,700,bloc_loop.csv,2023-08-16_12h32.31.700,PainUncertainty,2022.2.5,143.10491880233155,
aigu,forte,stimuli/660Hz,stimuli/forte,bloc_3,prob80hthp_12trials.xlsx,2,24,80,20,0,,,,,0,2,2,2,0,10,10,6,,,,,,,,4.8,593.9067286999998,598.7107163999999,598.7106361399999,0.2990497000000687,599.1521697999997,599.1521697999997,m,0.6349185000003672,601.5641178999999,601.5641178999999,90,1.726,,,sub-040,35,100,700,bloc_loop.csv,2023-08-16_12h32.31.700,PainUncertainty,2022.2.5,143.10491880233155,
aigu,forte,stimuli/660Hz,stimuli/forte,bloc_3,prob80hthp_12trials.xlsx,2,24,80,20,0,,,,,0,2,2,2,0,11,11,8,,,,,,,,3.7,601.5641178999999,605.2669237,605.2669545399997,0.3052541000001838,605.7112155,605.7112155,m,0.5600119000005179,607.7814642999997,607.7814642999997,94,1.434,,,sub-040,35,100,700,bloc_loop.csv,2023-08-16_12h32.31.700,PainUncertainty,2022.2.5,143.10491880233155,
grave,moderee,stimuli/330Hz,stimuli/moderee,bloc_3,prob80hthp_12trials.xlsx,2,24,80,20,0,,,,,0,2,2,2,1,0,12,2,,,,,,,,4.2,607.7814642999997,611.9828829999997,611.9828837399998,0.30499009999994087,612.4309996999996,612.4309996999996,n,0.7166721000003236,616.0308523999997,616.0308523999997,20,2.831,,,sub-040,35,100,700,bloc_loop.csv,2023-08-16_12h32.31.700,PainUncertainty,2022.2.5,143.10491880233155,
aigu,moderee,stimuli/660Hz,stimuli/moderee,bloc_3,prob80hthp_12trials.xlsx,2,24,80,20,0,,,,,0,2,2,2,1,1,13,11,,,,,,,,4.1,616.0308523999997,620.1365551999997,620.1365818399997,0.3057201999999961,620.5856377,620.5856377,n,0.6994963000001917,623.4819082999998,623.4819082999998,10,2.129,,,sub-040,35,100,700,bloc_loop.csv,2023-08-16_12h32.31.700,PainUncertainty,2022.2.5,143.10491880233155,
grave,moderee,stimuli/330Hz,stimuli/moderee,bloc_3,prob80hthp_12trials.xlsx,2,24,80,20,0,,,,,0,2,2,2,1,2,14,4,,,,,,,,3.1,623.4819082999998,626.5824160999996,626.58328474,0.3036302999998952,627.0259016,627.0259016,n,0.7418373000000429,632.5613659999999,632.5613659999999,13,4.712,,,sub-040,35,100,700,bloc_loop.csv,2023-08-16_12h32.31.700,PainUncertainty,2022.2.5,143.10491880233155,
aigu,forte,stimuli/660Hz,stimuli/forte,bloc_3,prob80hthp_12trials.xlsx,2,24,80,20,0,,,,,0,2,2,2,1,3,15,6,,,,,,,,4.4,632.5613659999999,636.9648946999996,636.9649360399997,0.3052392999998119,637.4090265,637.4090265,m,0.5118940000002112,641.4983611999996,641.4983611999996,92,3.51,,,sub-040,35,100,700,bloc_loop.csv,2023-08-16_12h32.31.700,PainUncertainty,2022.2.5,143.10491880233155,
aigu,forte,stimuli/660Hz,stimuli/forte,bloc_3,prob80hthp_12trials.xlsx,2,24,80,20,0,,,,,0,2,2,2,1,4,16,8,,,,,,,,4.3,641.4983611999996,645.7995567999997,645.7997014399996,0.30508430000008957,646.2469747999999,646.2469747999999,m,0.5454360000003362,649.9689933,649.9689933,90,3.128,,,sub-040,35,100,700,bloc_loop.csv,2023-08-16_12h32.31.700,PainUncertainty,2022.2.5,143.10491880233155,
aigu,forte,stimuli/660Hz,stimuli/forte,bloc_3,prob80hthp_12trials.xlsx,2,24,80,20,0,,,,,0,2,2,2,1,5,17,7,,,,,,,,4.9,649.9689933,654.8698163999998,654.8697016399999,0.30585589999964213,655.3179627,655.3179627,m,0.49731000000019776,657.5951599,657.5951599,92,1.719,,,sub-040,35,100,700,bloc_loop.csv,2023-08-16_12h32.31.700,PainUncertainty,2022.2.5,143.10491880233155,
grave,forte,stimuli/330Hz,stimuli/forte,bloc_3,prob80hthp_12trials.xlsx,2,24,80,20,0,,,,,0,2,2,2,1,6,18,5,,,,,,,,3.7,657.5951599,661.2942010999996,661.2941774399999,0.3052219999999579,661.7385445999998,661.7385445999998,m,0.529527500000313,665.1236212999997,665.1236212999997,93,2.788,,,sub-040,35,100,700,bloc_loop.csv,2023-08-16_12h32.31.700,PainUncertainty,2022.2.5,143.10491880233155,
aigu,forte,stimuli/660Hz,stimuli/forte,bloc_3,prob80hthp_12trials.xlsx,2,24,80,20,0,,,,,0,2,2,2,1,7,19,10,,,,,,,,3.5,665.1236212999997,668.6283325999998,668.6282520399998,0.30549629999995886,669.0727548999998,669.0727548999998,m,0.562554099999943,671.5045639999998,671.5045639999998,93,1.795,,,sub-040,35,100,700,bloc_loop.csv,2023-08-16_12h32.31.700,PainUncertainty,2022.2.5,143.10491880233155,
grave,moderee,stimuli/330Hz,stimuli/moderee,bloc_3,prob80hthp_12trials.xlsx,2,24,80,20,0,,,,,0,2,2,2,1,8,20,1,,,,,,,,3.9,671.5045639999998,675.4072792999996,675.40867994,0.30387119999977585,675.8547578999996,675.8547578999996,n,0.633473800000047,677.3234076999997,677.3234076999997,10,0.753,,,sub-040,35,100,700,bloc_loop.csv,2023-08-16_12h32.31.700,PainUncertainty,2022.2.5,143.10491880233155,
aigu,forte,stimuli/660Hz,stimuli/forte,bloc_3,prob80hthp_12trials.xlsx,2,24,80,20,0,,,,,0,2,2,2,1,9,21,9,,,,,,,,5,677.3234076999997,682.3243819999998,682.3245445399996,0.3052020000000084,682.7710701999999,682.7710701999999,m,0.6222038000000794,686.1157524999999,686.1157524999999,93,2.656,,,sub-040,35,100,700,bloc_loop.csv,2023-08-16_12h32.31.700,PainUncertainty,2022.2.5,143.10491880233155,
grave,moderee,stimuli/330Hz,stimuli/moderee,bloc_3,prob80hthp_12trials.xlsx,2,24,80,20,0,,,,,0,2,2,2,1,10,22,0,,,,,,,,3.8,686.1157524999999,689.9156571999997,689.9156419399999,0.3052061999997022,690.3633768999998,690.3633768999998,n,0.6073316000001796,693.8995000999998,693.8995000999998,12,2.872,,,sub-040,35,100,700,bloc_loop.csv,2023-08-16_12h32.31.700,PainUncertainty,2022.2.5,143.10491880233155,
grave,moderee,stimuli/330Hz,stimuli/moderee,bloc_3,prob80hthp_12trials.xlsx,2,24,80,20,0,,,,,0,2,2,2,1,11,23,3,,,,,,,,3.9,693.8995000999998,697.7989144999997,697.7989215399996,0.3051463000001604,698.2467646999999,698.2467646999999,n,0.6740676999997959,702.2144214,702.2144214,10,3.22,,,sub-040,35,100,700,bloc_loop.csv,2023-08-16_12h32.31.700,PainUncertainty,2022.2.5,143.10491880233155,
aigu,forte,stimuli/660Hz,stimuli/forte,bloc_4,prob50_50_4trials.xlsx,2,8,50,50,1,,,,,0,3,3,3,0,0,0,3,,,,,,,,3.3,702.2144214,705.5148878999998,705.5148627399997,0.3049756999998863,705.9632568999996,705.9632568999996,m,0.5755365999998503,708.9606298999997,708.9606298999997,93,2.368,,,sub-040,35,100,700,bloc_loop.csv,2023-08-16_12h32.31.700,PainUncertainty,2022.2.5,143.10491880233155,
grave,forte,stimuli/330Hz,stimuli/forte,bloc_4,prob50_50_4trials.xlsx,2,8,50,50,1,,,,,0,3,3,3,0,1,1,1,,,,,,,,3.7,708.9606298999997,712.6613804999997,712.6615658399999,0.3050582000000759,713.1056731999997,713.1056731999997,m,0.5544157000003906,714.5865574,714.5865574,93,0.857,,,sub-040,35,100,700,bloc_loop.csv,2023-08-16_12h32.31.700,PainUncertainty,2022.2.5,143.10491880233155,
aigu,moderee,stimuli/660Hz,stimuli/moderee,bloc_4,prob50_50_4trials.xlsx,2,8,50,50,1,,,,,0,3,3,3,0,2,2,2,,,,,,,,4.3,714.5865574,718.8912321999996,718.8913939399997,0.3010839000003216,719.3358914999999,719.3358914999999,n,0.6165478000002622,720.6123107999997,720.6123107999997,10,0.608,,,sub-040,35,100,700,bloc_loop.csv,2023-08-16_12h32.31.700,PainUncertainty,2022.2.5,143.10491880233155,
grave,moderee,stimuli/330Hz,stimuli/moderee,bloc_4,prob50_50_4trials.xlsx,2,8,50,50,1,,,,,0,3,3,3,0,3,3,0,,,,,,,,3.3,720.6123107999997,723.9126180999997,723.9128559399999,0.30494850000013685,724.3569651999996,724.3569651999996,n,0.6542694000004303,725.5215893999998,725.5215893999998,10,0.456,,,sub-040,35,100,700,bloc_loop.csv,2023-08-16_12h32.31.700,PainUncertainty,2022.2.5,143.10491880233155,
grave,moderee,stimuli/330Hz,stimuli/moderee,bloc_4,prob50_50_4trials.xlsx,2,8,50,50,1,,,,,0,3,3,3,1,0,4,0,,,,,,,,4.1,725.5215893999998,729.6217201999998,729.6217834399997,0.30509349999965707,730.0660306,730.0660306,n,0.5653964000002816,732.2999199999999,732.2999199999999,12,1.592,,,sub-040,35,100,700,bloc_loop.csv,2023-08-16_12h32.31.700,PainUncertainty,2022.2.5,143.10491880233155,
grave,forte,stimuli/330Hz,stimuli/forte,bloc_4,prob50_50_4trials.xlsx,2,8,50,50,1,,,,,0,3,3,3,1,1,5,1,,,,,,,,3.5,732.2999199999999,735.8031030999996,735.8032165399998,0.3051210000003266,736.2522184,736.2522184,m,0.6022544000002199,739.9402963999996,739.9402963999996,92,3.025,,,sub-040,35,100,700,bloc_loop.csv,2023-08-16_12h32.31.700,PainUncertainty,2022.2.5,143.10491880233155,
aigu,forte,stimuli/660Hz,stimuli/forte,bloc_4,prob50_50_4trials.xlsx,2,8,50,50,1,,,,,0,3,3,3,1,2,6,3,,,,,,,,4.9,739.9402963999996,744.8456541999999,744.8457806399999,0.3049994000002698,745.2899177999998,745.2899177999998,m,0.682326600000124,748.9582117999998,748.9582117999998,92,2.912,,,sub-040,35,100,700,bloc_loop.csv,2023-08-16_12h32.31.700,PainUncertainty,2022.2.5,143.10491880233155,
aigu,moderee,stimuli/660Hz,stimuli/moderee,bloc_4,prob50_50_4trials.xlsx,2,8,50,50,1,,,,,0,3,3,3,1,3,7,2,,,,,,,,5,748.9582117999998,753.9579280999997,753.9580750399998,0.3048245999998471,754.4021979999998,754.4021979999998,n,0.7478547999999137,759.4212082999998,759.4212082999998,11,2.239,,,sub-040,35,100,700,bloc_loop.csv,2023-08-16_12h32.31.700,PainUncertainty,2022.2.5,143.10491880233155,
,,,,bloc_4,prob50_50_4trials.xlsx,2,8,50,50,1,,,,,0,3,3,3,,,,,0,0,0,0,,,,,,,,,,,,,,,,,759.4212082999998,771.8419037999997,sub-040,35,100,700,bloc_loop.csv,2023-08-16_12h32.31.700,PainUncertainty,2022.2.5,143.10491880233155,
aigu,moderee,stimuli/660Hz,stimuli/moderee,bloc_5,prob20hthp_12trials.xlsx,2,24,20,80,0,,,,,0,4,4,4,0,0,0,10,,,,,,,,5,773.4190635999998,778.4191916999998,778.4193081399997,0.3048084000001836,778.8632710999996,778.8632710999996,n,0.5030139000000418,782.3231529999998,782.3231529999998,11,2.88,,,sub-040,35,100,700,bloc_loop.csv,2023-08-16_12h32.31.700,PainUncertainty,2022.2.5,143.10491880233155,
grave,forte,stimuli/330Hz,stimuli/forte,bloc_5,prob20hthp_12trials.xlsx,2,24,20,80,0,,,,,0,4,4,4,0,1,1,2,,,,,,,,4.1,782.3231529999998,786.4270767999997,786.4272202399995,0.30547040000010384,786.8719336999998,786.8719336999998,m,0.5885195000000749,790.8413819999996,790.8413819999996,90,3.303,,,sub-040,35,100,700,bloc_loop.csv,2023-08-16_12h32.31.700,PainUncertainty,2022.2.5,143.10491880233155,
aigu,moderee,stimuli/660Hz,stimuli/moderee,bloc_5,prob20hthp_12trials.xlsx,2,24,20,80,0,,,,,0,4,4,4,0,2,2,6,,,,,,,,4.3,790.8413819999996,795.1438186999999,795.14383084,0.29924419999997554,795.5863437999997,795.5863437999997,n,0.7129122999999709,799.6190754999998,799.6190754999998,9,3.24,,,sub-040,35,100,700,bloc_loop.csv,2023-08-16_12h32.31.700,PainUncertainty,2022.2.5,143.10491880233155,
aigu,forte,stimuli/660Hz,stimuli/forte,bloc_5,prob20hthp_12trials.xlsx,2,24,20,80,0,,,,,0,4,4,4,0,3,3,11,,,,,,,,4.6,799.6190754999998,804.2209832999997,804.2209332399996,0.3015019999998003,804.6655606999998,804.6655606999998,m,0.7077290000001994,809.0015921999998,809.0015921999998,94,3.573,,,sub-040,35,100,700,bloc_loop.csv,2023-08-16_12h32.31.700,PainUncertainty,2022.2.5,143.10491880233155,
grave,forte,stimuli/330Hz,stimuli/forte,bloc_5,prob20hthp_12trials.xlsx,2,24,20,80,0,,,,,0,4,4,4,0,4,4,0,,,,,,,,3.2,809.0015921999998,812.2009476999997,812.2009614399997,0.3023238999999194,812.6468436999999,812.6468436999999,m,0.6650603000002775,815.5576406999999,815.5576406999999,93,2.192,,,sub-040,35,100,700,bloc_loop.csv,2023-08-16_12h32.31.700,PainUncertainty,2022.2.5,143.10491880233155,
grave,forte,stimuli/330Hz,stimuli/forte,bloc_5,prob20hthp_12trials.xlsx,2,24,20,80,0,,,,,0,4,4,4,0,5,5,1,,,,,,,,4.9,815.5576406999999,820.4590847,820.4607369399998,0.3002891000001,820.9038947999998,820.9038947999998,m,0.9264542999999321,825.2597794999997,825.2597794999997,89,3.361,,,sub-040,35,100,700,bloc_loop.csv,2023-08-16_12h32.31.700,PainUncertainty,2022.2.5,143.10491880233155,
grave,forte,stimuli/330Hz,stimuli/forte,bloc_5,prob20hthp_12trials.xlsx,2,24,20,80,0,,,,,0,4,4,4,0,6,6,3,,,,,,,,3.2,825.2597794999997,828.4601086999996,828.4604374399999,0.3044489000003523,828.9040289999998,828.9040289999998,m,0.5888737999998739,832.1690612999996,832.1690612999996,93,2.601,,,sub-040,35,100,700,bloc_loop.csv,2023-08-16_12h32.31.700,PainUncertainty,2022.2.5,143.10491880233155,
grave,moderee,stimuli/330Hz,stimuli/moderee,bloc_5,prob20hthp_12trials.xlsx,2,24,20,80,0,,,,,0,4,4,4,0,7,7,5,,,,,,,,3.3,832.1690612999996,835.4752316999998,835.4744437399997,0.3053893000001153,835.9229803999997,835.9229803999997,n,0.716854400000102,839.456968,839.456968,9,2.74,,,sub-040,35,100,700,bloc_loop.csv,2023-08-16_12h32.31.700,PainUncertainty,2022.2.5,143.10491880233155,
grave,forte,stimuli/330Hz,stimuli/forte,bloc_5,prob20hthp_12trials.xlsx,2,24,20,80,0,,,,,0,4,4,4,0,8,8,4,,,,,,,,4,839.456968,843.4615429999999,843.4615888399996,0.30485090000001946,843.9057312,843.9057312,m,0.5930790000002162,845.9949748999998,845.9949748999998,93,1.417,,,sub-040,35,100,700,bloc_loop.csv,2023-08-16_12h32.31.700,PainUncertainty,2022.2.5,143.10491880233155,
aigu,moderee,stimuli/660Hz,stimuli/moderee,bloc_5,prob20hthp_12trials.xlsx,2,24,20,80,0,,,,,0,4,4,4,0,9,9,8,,,,,,,,3.4,845.9949748999998,849.3997411999999,849.3997776399999,0.3053215999998429,849.8439513999997,849.8439513999997,n,0.8177493000002869,853.3156819999999,853.3156819999999,10,2.601,,,sub-040,35,100,700,bloc_loop.csv,2023-08-16_12h32.31.700,PainUncertainty,2022.2.5,143.10491880233155,
aigu,moderee,stimuli/660Hz,stimuli/moderee,bloc_5,prob20hthp_12trials.xlsx,2,24,20,80,0,,,,,0,4,4,4,0,10,10,9,,,,,,,,3.3,853.3156819999999,856.6159767999998,856.6160189399995,0.30491669999992155,857.0600304,857.0600304,n,1.817591900000025,861.2940504999997,861.2940504999997,8,2.358,,,sub-040,35,100,700,bloc_loop.csv,2023-08-16_12h32.31.700,PainUncertainty,2022.2.5,143.10491880233155,
aigu,moderee,stimuli/660Hz,stimuli/moderee,bloc_5,prob20hthp_12trials.xlsx,2,24,20,80,0,,,,,0,4,4,4,0,11,11,7,,,,,,,,3.9,861.2940504999997,865.1938256999997,865.19370994,0.30476520000001983,865.6378169,865.6378169,n,0.7382142999999814,867.8171709999997,867.8171709999997,10,1.372,,,sub-040,35,100,700,bloc_loop.csv,2023-08-16_12h32.31.700,PainUncertainty,2022.2.5,143.10491880233155,
aigu,moderee,stimuli/660Hz,stimuli/moderee,bloc_5,prob20hthp_12trials.xlsx,2,24,20,80,0,,,,,0,4,4,4,1,0,12,6,,,,,,,,3.4,867.8171709999997,871.2222883,871.2223702399999,0.30462500000021464,871.6659793999997,871.6659793999997,n,0.6241300000001502,874.5453488999997,874.5453488999997,13,2.204,,,sub-040,35,100,700,bloc_loop.csv,2023-08-16_12h32.31.700,PainUncertainty,2022.2.5,143.10491880233155,
grave,moderee,stimuli/330Hz,stimuli/moderee,bloc_5,prob20hthp_12trials.xlsx,2,24,20,80,0,,,,,0,4,4,4,1,1,13,5,,,,,,,,4.2,874.5453488999997,878.7513470999997,878.75115394,0.3013703000001442,879.1958701999997,879.1958701999997,n,1.4862271000001783,882.0935258,882.0935258,26,1.337,,,sub-040,35,100,700,bloc_loop.csv,2023-08-16_12h32.31.700,PainUncertainty,2022.2.5,143.10491880233155,
grave,forte,stimuli/330Hz,stimuli/forte,bloc_5,prob20hthp_12trials.xlsx,2,24,20,80,0,,,,,0,4,4,4,1,2,14,4,,,,,,,,3.5,882.0935258,885.5989931999998,885.5990025399999,0.305203999999776,886.0453207999999,886.0453207999999,m,0.6424277000000984,888.1492420999998,888.1492420999998,92,1.414,,,sub-040,35,100,700,bloc_loop.csv,2023-08-16_12h32.31.700,PainUncertainty,2022.2.5,143.10491880233155,
grave,forte,stimuli/330Hz,stimuli/forte,bloc_5,prob20hthp_12trials.xlsx,2,24,20,80,0,,,,,0,4,4,4,1,3,15,0,,,,,,,,3.9,888.1492420999998,892.0506251999996,892.0506898399997,0.30509170000004815,892.4985475999997,892.4985475999997,m,1.126227100000051,896.7534638999996,896.7534638999996,96,3.045,,,sub-040,35,100,700,bloc_loop.csv,2023-08-16_12h32.31.700,PainUncertainty,2022.2.5,143.10491880233155,
aigu,moderee,stimuli/660Hz,stimuli/moderee,bloc_5,prob20hthp_12trials.xlsx,2,24,20,80,0,,,,,0,4,4,4,1,4,16,10,,,,,,,,5,896.7534638999996,901.7531468999996,901.7532535399998,0.30504179999979897,902.1975337999997,902.1975337999997,n,0.8060137000002214,904.7912373999998,904.7912373999998,11,1.74,,,sub-040,35,100,700,bloc_loop.csv,2023-08-16_12h32.31.700,PainUncertainty,2022.2.5,143.10491880233155,
aigu,moderee,stimuli/660Hz,stimuli/moderee,bloc_5,prob20hthp_12trials.xlsx,2,24,20,80,0,,,,,0,4,4,4,1,5,17,7,,,,,,,,3.2,904.7912373999998,907.9903159999999,907.9903811399997,0.302589700000226,908.4365794999999,908.4365794999999,n,0.7570838000001459,911.7470679999997,911.7470679999997,18,2.484,,,sub-040,35,100,700,bloc_loop.csv,2023-08-16_12h32.31.700,PainUncertainty,2022.2.5,143.10491880233155,
aigu,forte,stimuli/660Hz,stimuli/forte,bloc_5,prob20hthp_12trials.xlsx,2,24,20,80,0,,,,,0,4,4,4,1,6,18,11,,,,,,,,4.1,911.7470679999997,915.8526284999998,915.8520334399998,0.30084759999999733,916.2965074999997,916.2965074999997,m,0.5882589000002554,919.5162168999996,919.5162168999996,96,2.582,,,sub-040,35,100,700,bloc_loop.csv,2023-08-16_12h32.31.700,PainUncertainty,2022.2.5,143.10491880233155,
grave,forte,stimuli/330Hz,stimuli/forte,bloc_5,prob20hthp_12trials.xlsx,2,24,20,80,0,,,,,0,4,4,4,1,7,19,1,,,,,,,,3.9,919.5162168999996,923.4157954999996,923.4161792399998,0.30483719999983805,923.8635500999999,923.8635500999999,m,0.6787767000000713,926.5030855999998,926.5030855999998,99,1.891,,,sub-040,35,100,700,bloc_loop.csv,2023-08-16_12h32.31.700,PainUncertainty,2022.2.5,143.10491880233155,
grave,forte,stimuli/330Hz,stimuli/forte,bloc_5,prob20hthp_12trials.xlsx,2,24,20,80,0,,,,,0,4,4,4,1,8,20,3,,,,,,,,3,926.5030855999998,929.5068808999999,929.50695204,0.30460809999976846,929.9507062999996,929.9507062999996,m,0.6030619000002844,931.9364618,931.9364618,100,1.314,,,sub-040,35,100,700,bloc_loop.csv,2023-08-16_12h32.31.700,PainUncertainty,2022.2.5,143.10491880233155,
aigu,moderee,stimuli/660Hz,stimuli/moderee,bloc_5,prob20hthp_12trials.xlsx,2,24,20,80,0,,,,,0,4,4,4,1,9,21,9,,,,,,,,3.2,931.9364618,935.1391165999999,935.1390318399997,0.30474370000001727,935.5832324999997,935.5832324999997,n,0.6957324000004519,937.6937395,937.6937395,18,1.331,,,sub-040,35,100,700,bloc_loop.csv,2023-08-16_12h32.31.700,PainUncertainty,2022.2.5,143.10491880233155,
grave,forte,stimuli/330Hz,stimuli/forte,bloc_5,prob20hthp_12trials.xlsx,2,24,20,80,0,,,,,0,4,4,4,1,10,22,2,,,,,,,,3.7,937.6937395,941.3968298999998,941.3968020399996,0.30511840000008306,941.8409284999998,941.8409284999998,m,0.48606780000045546,943.4483188999998,943.4483188999998,100,1.044,,,sub-040,35,100,700,bloc_loop.csv,2023-08-16_12h32.31.700,PainUncertainty,2022.2.5,143.10491880233155,
aigu,moderee,stimuli/660Hz,stimuli/moderee,bloc_5,prob20hthp_12trials.xlsx,2,24,20,80,0,,,,,0,4,4,4,1,11,23,8,,,,,,,,3.6,943.4483188999998,947.0501006999998,947.0501744399996,0.3055985999999393,947.4949925999999,947.4949925999999,n,0.6650376000002325,951.4718713999996,951.4718713999996,13,3.255,,,sub-040,35,100,700,bloc_loop.csv,2023-08-16_12h32.31.700,PainUncertainty,2022.2.5,143.10491880233155,
aigu,moderee,stimuli/660Hz,stimuli/moderee,bloc_6,prob50_50_4trials.xlsx,2,8,50,50,0,,,,,0,5,5,5,0,0,0,2,,,,,,,,3.1,951.4718713999996,954.5719412999997,954.5720158399997,0.30495010000004186,955.0165530999998,955.0165530999998,n,0.6764002999998411,957.7226734999999,957.7226734999999,16,1.969,,,sub-040,35,100,700,bloc_loop.csv,2023-08-16_12h32.31.700,PainUncertainty,2022.2.5,143.10491880233155,
grave,moderee,stimuli/330Hz,stimuli/moderee,bloc_6,prob50_50_4trials.xlsx,2,8,50,50,0,,,,,0,5,5,5,0,1,1,0,,,,,,,,4.5,957.7226734999999,962.2261586,962.2260661399998,0.3050159000003987,962.6741142999999,962.6741142999999,n,0.8554582000001574,965.2703610999997,965.2703610999997,18,1.665,,,sub-040,35,100,700,bloc_loop.csv,2023-08-16_12h32.31.700,PainUncertainty,2022.2.5,143.10491880233155,
grave,forte,stimuli/330Hz,stimuli/forte,bloc_6,prob50_50_4trials.xlsx,2,8,50,50,0,,,,,0,5,5,5,0,2,2,1,,,,,,,,3.9,965.2703610999997,969.170858,969.1709945399996,0.30519509999976435,969.6158612999998,969.6158612999998,m,0.5142678000001979,972.6534832999996,972.6534832999996,100,2.47,,,sub-040,35,100,700,bloc_loop.csv,2023-08-16_12h32.31.700,PainUncertainty,2022.2.5,143.10491880233155,
aigu,forte,stimuli/660Hz,stimuli/forte,bloc_6,prob50_50_4trials.xlsx,2,8,50,50,0,,,,,0,5,5,5,0,3,3,3,,,,,,,,3,972.6534832999996,975.6578812999996,975.6577962399999,0.3051319000001058,976.1062846,976.1062846,m,0.551088499999878,979.7998583999997,979.7998583999997,100,3.094,,,sub-040,35,100,700,bloc_loop.csv,2023-08-16_12h32.31.700,PainUncertainty,2022.2.5,143.10491880233155,
grave,forte,stimuli/330Hz,stimuli/forte,bloc_6,prob50_50_4trials.xlsx,2,8,50,50,0,,,,,0,5,5,5,1,0,4,1,,,,,,,,3.5,979.7998583999997,983.3046343999999,983.3046946399998,0.3051034999998592,983.7527796999998,983.7527796999998,m,0.5211968000003253,986.7228019999998,986.7228019999998,100,2.379,,,sub-040,35,100,700,bloc_loop.csv,2023-08-16_12h32.31.700,PainUncertainty,2022.2.5,143.10491880233155,
aigu,moderee,stimuli/660Hz,stimuli/moderee,bloc_6,prob50_50_4trials.xlsx,2,8,50,50,0,,,,,0,5,5,5,1,1,5,2,,,,,,,,4.7,986.7228019999998,991.4239439999997,991.4241029399998,0.3048419000001559,991.8676750999998,991.8676750999998,n,0.6007853999999497,994.0439978999998,994.0439978999998,11,1.496,,,sub-040,35,100,700,bloc_loop.csv,2023-08-16_12h32.31.700,PainUncertainty,2022.2.5,143.10491880233155,
aigu,forte,stimuli/660Hz,stimuli/forte,bloc_6,prob50_50_4trials.xlsx,2,8,50,50,0,,,,,0,5,5,5,1,2,6,3,,,,,,,,4.8,994.0439978999998,998.8484209999997,998.8483510399999,0.30540789999986373,999.2952612999998,999.2952612999998,m,0.40011180000010427,1001.0125969999999,1001.0125969999999,100,1.253,,,sub-040,35,100,700,bloc_loop.csv,2023-08-16_12h32.31.700,PainUncertainty,2022.2.5,143.10491880233155,
grave,moderee,stimuli/330Hz,stimuli/moderee,bloc_6,prob50_50_4trials.xlsx,2,8,50,50,0,,,,,0,5,5,5,1,3,7,0,,,,,,,,3.2,1001.0125969999999,1004.2167382999996,1004.2167772399996,0.30505270000003293,1004.6608754999997,1004.6608754999997,n,0.5847650999999132,1006.1604573,1006.1604573,17,0.837,,,sub-040,35,100,700,bloc_loop.csv,2023-08-16_12h32.31.700,PainUncertainty,2022.2.5,143.10491880233155,
grave,forte,stimuli/330Hz,stimuli/forte,bloc_7,prob80hthp_12trials.xlsx,2,24,80,20,1,,,,,0,6,6,6,0,0,0,5,,,,,,,,3.8,1006.1604573,1009.9604040999998,1009.9604355399999,0.30510469999990164,1010.4045821,1010.4045821,m,0.3726854000001367,1013.6762079999999,1013.6762079999999,100,2.837,,,sub-040,35,100,700,bloc_loop.csv,2023-08-16_12h32.31.700,PainUncertainty,2022.2.5,143.10491880233155,
aigu,forte,stimuli/660Hz,stimuli/forte,bloc_7,prob80hthp_12trials.xlsx,2,24,80,20,1,,,,,0,6,6,6,0,1,1,9,,,,,,,,4.2,1013.6762079999999,1017.8781043999998,1017.8779781399996,0.3052735000001121,1018.3221629,1018.3221629,m,0.42070930000045337,1022.1466114,1022.1466114,100,3.346,,,sub-040,35,100,700,bloc_loop.csv,2023-08-16_12h32.31.700,PainUncertainty,2022.2.5,143.10491880233155,
aigu,forte,stimuli/660Hz,stimuli/forte,bloc_7,prob80hthp_12trials.xlsx,2,24,80,20,1,,,,,0,6,6,6,0,2,2,10,,,,,,,,4.8,1022.1466114,1026.948532,1026.9485431399996,0.3057158999999956,1027.3971457999996,1027.3971457999996,m,0.3981595999998717,1029.9331201999998,1029.9331201999998,100,2.067,,,sub-040,35,100,700,bloc_loop.csv,2023-08-16_12h32.31.700,PainUncertainty,2022.2.5,143.10491880233155,
grave,moderee,stimuli/330Hz,stimuli/moderee,bloc_7,prob80hthp_12trials.xlsx,2,24,80,20,1,,,,,0,6,6,6,0,3,3,3,,,,,,,,4.4,1029.9331201999998,1034.3382525999996,1034.3385319399997,0.3048171000000366,1034.7862916,1034.7862916,n,0.7666029000001799,1037.9113722999996,1037.9113722999996,9,2.288,,,sub-040,35,100,700,bloc_loop.csv,2023-08-16_12h32.31.700,PainUncertainty,2022.2.5,143.10491880233155,
aigu,forte,stimuli/660Hz,stimuli/forte,bloc_7,prob80hthp_12trials.xlsx,2,24,80,20,1,,,,,0,6,6,6,0,4,4,7,,,,,,,,4.5,1037.9113722999996,1042.416221,1042.41598774,0.30536690000008093,1042.8632967999997,1042.8632967999997,m,0.4018301999999494,1044.7215437999998,1044.7215437999998,100,1.373,,,sub-040,35,100,700,bloc_loop.csv,2023-08-16_12h32.31.700,PainUncertainty,2022.2.5,143.10491880233155,
grave,moderee,stimuli/330Hz,stimuli/moderee,bloc_7,prob80hthp_12trials.xlsx,2,24,80,20,1,,,,,0,6,6,6,0,5,5,2,,,,,,,,3.8,1044.7215437999998,1048.5210693999998,1048.5210468399998,0.30041609999989305,1048.9654329,1048.9654329,n,0.5067507000003388,1051.9152872,1051.9152872,12,2.387,,,sub-040,35,100,700,bloc_loop.csv,2023-08-16_12h32.31.700,PainUncertainty,2022.2.5,143.10491880233155,
grave,moderee,stimuli/330Hz,stimuli/moderee,bloc_7,prob80hthp_12trials.xlsx,2,24,80,20,1,,,,,0,6,6,6,0,6,6,4,,,,,,,,3.3,1051.9152872,1055.2157711,1055.21581684,0.3052855000000818,1055.6644474,1055.6644474,n,0.5213461000003008,1059.0130645,1059.0130645,13,2.754,,,sub-040,35,100,700,bloc_loop.csv,2023-08-16_12h32.31.700,PainUncertainty,2022.2.5,143.10491880233155,
aigu,forte,stimuli/660Hz,stimuli/forte,bloc_7,prob80hthp_12trials.xlsx,2,24,80,20,1,,,,,0,6,6,6,0,7,7,6,,,,,,,,3.7,1059.0130645,1062.7169718999999,1062.71706174,0.3051732999997512,1063.1611682999996,1063.1611682999996,m,0.4992282000002888,1066.8620662999997,1066.8620662999997,100,3.13,,,sub-040,35,100,700,bloc_loop.csv,2023-08-16_12h32.31.700,PainUncertainty,2022.2.5,143.10491880233155,
grave,moderee,stimuli/330Hz,stimuli/moderee,bloc_7,prob80hthp_12trials.xlsx,2,24,80,20,1,,,,,0,6,6,6,0,8,8,0,,,,,,,,3.5,1066.8620662999997,1070.3633790999997,1070.3635852399996,0.3047744000000421,1070.8075654999998,1070.8075654999998,n,0.4859750000000531,1074.2473710999998,1074.2473710999998,10,2.886,,,sub-040,35,100,700,bloc_loop.csv,2023-08-16_12h32.31.700,PainUncertainty,2022.2.5,143.10491880233155,
aigu,forte,stimuli/660Hz,stimuli/forte,bloc_7,prob80hthp_12trials.xlsx,2,24,80,20,1,,,,,0,6,6,6,0,9,9,8,,,,,,,,4.3,1074.2473710999998,1078.552295,1078.5523279399997,0.30080009999983304,1078.9965705,1078.9965705,m,0.5544331000000966,1080.8494492999998,1080.8494492999998,100,1.226,,,sub-040,35,100,700,bloc_loop.csv,2023-08-16_12h32.31.700,PainUncertainty,2022.2.5,143.10491880233155,
grave,moderee,stimuli/330Hz,stimuli/moderee,bloc_7,prob80hthp_12trials.xlsx,2,24,80,20,1,,,,,0,6,6,6,0,10,10,1,,,,,,,,3.3,1080.8494492999998,1084.1498465999998,1084.14992134,0.3049639999999272,1084.5976846999997,1084.5976846999997,n,0.6430779000002076,1086.4597325999998,1086.4597325999998,13,1.17,,,sub-040,35,100,700,bloc_loop.csv,2023-08-16_12h32.31.700,PainUncertainty,2022.2.5,143.10491880233155,
aigu,moderee,stimuli/660Hz,stimuli/moderee,bloc_7,prob80hthp_12trials.xlsx,2,24,80,20,1,,,,,0,6,6,6,0,11,11,11,,,,,,,,4.1,1086.4597325999998,1090.5602372999997,1090.5602563399996,0.30519219999996494,1091.0046725999996,1091.0046725999996,n,1.3409520000000157,1093.8626320999997,1093.8626320999997,16,1.455,,,sub-040,35,100,700,bloc_loop.csv,2023-08-16_12h32.31.700,PainUncertainty,2022.2.5,143.10491880233155,
grave,moderee,stimuli/330Hz,stimuli/moderee,bloc_7,prob80hthp_12trials.xlsx,2,24,80,20,1,,,,,0,6,6,6,1,0,12,2,,,,,,,,4.3,1093.8626320999997,1098.1653735999998,1098.16555714,0.305448399999932,1098.6127217999997,1098.6127217999997,n,0.7003346999999849,1101.5669076999998,1101.5669076999998,16,2.185,,,sub-040,35,100,700,bloc_loop.csv,2023-08-16_12h32.31.700,PainUncertainty,2022.2.5,143.10491880233155,
aigu,forte,stimuli/660Hz,stimuli/forte,bloc_7,prob80hthp_12trials.xlsx,2,24,80,20,1,,,,,0,6,6,6,1,1,13,9,,,,,,,,3.8,1101.5669076999998,1105.3681963,1105.3682807399998,0.304393799999616,1105.8120070999998,1105.8120070999998,m,0.6259503999999652,1110.1356216,1110.1356216,100,3.628,,,sub-040,35,100,700,bloc_loop.csv,2023-08-16_12h32.31.700,PainUncertainty,2022.2.5,143.10491880233155,
aigu,forte,stimuli/660Hz,stimuli/forte,bloc_7,prob80hthp_12trials.xlsx,2,24,80,20,1,,,,,0,6,6,6,1,2,14,8,,,,,,,,4.3,1110.1356216,1114.4384828999996,1114.4385316399996,0.3050290999999561,1114.8849315999996,1114.8849315999996,m,0.6019642000001113,1118.8476847999996,1118.8476847999996,100,3.309,,,sub-040,35,100,700,bloc_loop.csv,2023-08-16_12h32.31.700,PainUncertainty,2022.2.5,143.10491880233155,
grave,forte,stimuli/330Hz,stimuli/forte,bloc_7,prob80hthp_12trials.xlsx,2,24,80,20,1,,,,,0,6,6,6,1,3,15,5,,,,,,,,4.8,1118.8476847999996,1123.6474823999997,1123.6476441399998,0.29924430000028224,1124.0857465999998,1124.0857465999998,m,0.6252683000002435,1126.8423536999999,1126.8423536999999,100,2.053,,,sub-040,35,100,700,bloc_loop.csv,2023-08-16_12h32.31.700,PainUncertainty,2022.2.5,143.10491880233155,
grave,moderee,stimuli/330Hz,stimuli/moderee,bloc_7,prob80hthp_12trials.xlsx,2,24,80,20,1,,,,,0,6,6,6,1,4,16,3,,,,,,,,4.7,1126.8423536999999,1131.5442854999997,1131.54441334,0.30512940000016897,1131.9887165999999,1131.9887165999999,n,0.6822918000002574,1133.5872418999998,1133.5872418999998,16,0.859,,,sub-040,35,100,700,bloc_loop.csv,2023-08-16_12h32.31.700,PainUncertainty,2022.2.5,143.10491880233155,
grave,moderee,stimuli/330Hz,stimuli/moderee,bloc_7,prob80hthp_12trials.xlsx,2,24,80,20,1,,,,,0,6,6,6,1,5,17,1,,,,,,,,4.1,1133.5872418999998,1137.6913495999997,1137.6914227399996,0.30461979999972755,1138.1350540999997,1138.1350540999997,n,0.6857414999999492,1141.3405113999997,1141.3405113999997,10,2.441,,,sub-040,35,100,700,bloc_loop.csv,2023-08-16_12h32.31.700,PainUncertainty,2022.2.5,143.10491880233155,
aigu,forte,stimuli/660Hz,stimuli/forte,bloc_7,prob80hthp_12trials.xlsx,2,24,80,20,1,,,,,0,6,6,6,1,6,18,6,,,,,,,,3.3,1141.3405113999997,1144.6430028999998,1144.6430923399996,0.30495879999989484,1145.0873124999998,1145.0873124999998,m,0.499342400000387,1149.2057822999996,1149.2057822999996,100,3.566,,,sub-040,35,100,700,bloc_loop.csv,2023-08-16_12h32.31.700,PainUncertainty,2022.2.5,143.10491880233155,
aigu,forte,stimuli/660Hz,stimuli/forte,bloc_7,prob80hthp_12trials.xlsx,2,24,80,20,1,,,,,0,6,6,6,1,7,19,10,,,,,,,,3.4,1149.2057822999996,1152.6092262999996,1152.6091990399998,0.3051311000003807,1153.0534073999997,1153.0534073999997,m,0.5023241000003509,1155.0763285999997,1155.0763285999997,100,1.44,,,sub-040,35,100,700,bloc_loop.csv,2023-08-16_12h32.31.700,PainUncertainty,2022.2.5,143.10491880233155,
grave,moderee,stimuli/330Hz,stimuli/moderee,bloc_7,prob80hthp_12trials.xlsx,2,24,80,20,1,,,,,0,6,6,6,1,8,20,0,,,,,,,,4,1155.0763285999997,1159.0757007999996,1159.0757483399996,0.3062590999998065,1159.5253868,1159.5253868,n,0.6805975000002036,1163.1138345,1163.1138345,9,2.858,,,sub-040,35,100,700,bloc_loop.csv,2023-08-16_12h32.31.700,PainUncertainty,2022.2.5,143.10491880233155,
grave,moderee,stimuli/330Hz,stimuli/moderee,bloc_7,prob80hthp_12trials.xlsx,2,24,80,20,1,,,,,0,6,6,6,1,9,21,4,,,,,,,,3.4,1163.1138345,1166.5136287999999,1166.51360534,0.3050178000003143,1166.9577526999997,1166.9577526999997,n,0.5389497000001029,1170.2456086999996,1170.2456086999996,12,2.692,,,sub-040,35,100,700,bloc_loop.csv,2023-08-16_12h32.31.700,PainUncertainty,2022.2.5,143.10491880233155,
aigu,moderee,stimuli/660Hz,stimuli/moderee,bloc_7,prob80hthp_12trials.xlsx,2,24,80,20,1,,,,,0,6,6,6,1,10,22,11,,,,,,,,4.3,1170.2456086999996,1174.5498051,1174.5497624399998,0.304996299999857,1174.9958093999999,1174.9958093999999,n,0.6335254999999052,1178.4303308999997,1178.4303308999997,20,2.725,,,sub-040,35,100,700,bloc_loop.csv,2023-08-16_12h32.31.700,PainUncertainty,2022.2.5,143.10491880233155,
aigu,forte,stimuli/660Hz,stimuli/forte,bloc_7,prob80hthp_12trials.xlsx,2,24,80,20,1,,,,,0,6,6,6,1,11,23,7,,,,,,,,4.7,1178.4303308999997,1183.1337768999997,1183.1337157399996,0.305323000000044,1183.5849991999999,1183.5849991999999,m,0.4290990000004058,1187.7427721,1187.7427721,100,1.699,,,sub-040,35,100,700,bloc_loop.csv,2023-08-16_12h32.31.700,PainUncertainty,2022.2.5,143.10491880233155,
,,,,bloc_7,prob80hthp_12trials.xlsx,2,24,80,20,1,,,,,0,6,6,6,,,,,0,0,0,0,,,,,,,,,,,,,,,,,1187.7427721,1228.5348488999998,sub-040,35,100,700,bloc_loop.csv,2023-08-16_12h32.31.700,PainUncertainty,2022.2.5,143.10491880233155,
aigu,forte,stimuli/660Hz,stimuli/forte,bloc_8,prob50_50_4trials.xlsx,3,12,50,50,0,,,,,0,7,7,7,0,0,0,3,,,,,,,,3.3,1229.587008,1232.8902187999997,1232.89025974,0.30454329999975016,1233.3341831999996,1233.3341831999996,m,0.5536973000002945,1236.3663563,1236.3663563,100,2.401,,,sub-040,35,100,700,bloc_loop.csv,2023-08-16_12h32.31.700,PainUncertainty,2022.2.5,143.10491880233155,
grave,moderee,stimuli/330Hz,stimuli/moderee,bloc_8,prob50_50_4trials.xlsx,3,12,50,50,0,,,,,0,7,7,7,0,1,1,0,,,,,,,,3.8,1236.3663563,1240.1682383999996,1240.1684554399997,0.2992656999999781,1240.6131189999996,1240.6131189999996,n,0.5698600000005172,1243.4158979999997,1243.4158979999997,9,2.163,,,sub-040,35,100,700,bloc_loop.csv,2023-08-16_12h32.31.700,PainUncertainty,2022.2.5,143.10491880233155,
grave,forte,stimuli/330Hz,stimuli/forte,bloc_8,prob50_50_4trials.xlsx,3,12,50,50,0,,,,,0,7,7,7,0,2,2,1,,,,,,,,3.4,1243.4158979999997,1246.8154529999997,1246.8155230399996,0.3047028999999384,1247.2597247999997,1247.2597247999997,m,0.479601300000013,1249.8103632999996,1249.8103632999996,100,1.984,,,sub-040,35,100,700,bloc_loop.csv,2023-08-16_12h32.31.700,PainUncertainty,2022.2.5,143.10491880233155,
aigu,moderee,stimuli/660Hz,stimuli/moderee,bloc_8,prob50_50_4trials.xlsx,3,12,50,50,0,,,,,0,7,7,7,0,3,3,2,,,,,,,,3.3,1249.8103632999996,1253.1141132999996,1253.1143281399998,0.3051665999996658,1253.5609384999998,1253.5609384999998,n,0.6057250000003478,1255.3893810999998,1255.3893810999998,13,1.143,,,sub-040,35,100,700,bloc_loop.csv,2023-08-16_12h32.31.700,PainUncertainty,2022.2.5,143.10491880233155,
aigu,forte,stimuli/660Hz,stimuli/forte,bloc_8,prob50_50_4trials.xlsx,3,12,50,50,0,,,,,0,7,7,7,1,0,4,3,,,,,,,,3,1255.3893810999998,1258.3928753999999,1258.3929492399996,0.29998529999966195,1258.8372688,1258.8372688,m,0.42032670000025973,1261.5750423999998,1261.5750423999998,100,2.239,,,sub-040,35,100,700,bloc_loop.csv,2023-08-16_12h32.31.700,PainUncertainty,2022.2.5,143.10491880233155,
grave,moderee,stimuli/330Hz,stimuli/moderee,bloc_8,prob50_50_4trials.xlsx,3,12,50,50,0,,,,,0,7,7,7,1,1,5,0,,,,,,,,3.3,1261.5750423999998,1264.8797416999996,1264.8799205399998,0.30510099999992235,1265.327718,1265.327718,n,0.5461492000004,1269.1670846999996,1269.1670846999996,10,3.239,,,sub-040,35,100,700,bloc_loop.csv,2023-08-16_12h32.31.700,PainUncertainty,2022.2.5,143.10491880233155,
aigu,moderee,stimuli/660Hz,stimuli/moderee,bloc_8,prob50_50_4trials.xlsx,3,12,50,50,0,,,,,0,7,7,7,1,2,6,2,,,,,,,,5,1269.1670846999996,1274.1726348999996,1274.1726894399997,0.3050885000002381,1274.6203194999998,1274.6203194999998,n,0.6466186000002381,1276.1222783999997,1276.1222783999997,10,0.788,,,sub-040,35,100,700,bloc_loop.csv,2023-08-16_12h32.31.700,PainUncertainty,2022.2.5,143.10491880233155,
grave,forte,stimuli/330Hz,stimuli/forte,bloc_8,prob50_50_4trials.xlsx,3,12,50,50,0,,,,,0,7,7,7,1,3,7,1,,,,,,,,5,1276.1222783999997,1281.1248754999997,1281.12492624,0.3047225000000253,1281.5689082,1281.5689082,m,0.4331501000001481,1285.1076518,1285.1076518,94,3.026,,,sub-040,35,100,700,bloc_loop.csv,2023-08-16_12h32.31.700,PainUncertainty,2022.2.5,143.10491880233155,
aigu,moderee,stimuli/660Hz,stimuli/moderee,bloc_8,prob50_50_4trials.xlsx,3,12,50,50,0,,,,,0,7,7,7,2,0,8,2,,,,,,,,4.1,1285.1076518,1289.208639,1289.2087856399996,0.30547059999980775,1289.6536683999998,1289.6536683999998,n,0.675615800000287,1291.8208938999996,1291.8208938999996,12,1.42,,,sub-040,35,100,700,bloc_loop.csv,2023-08-16_12h32.31.700,PainUncertainty,2022.2.5,143.10491880233155,
aigu,forte,stimuli/660Hz,stimuli/forte,bloc_8,prob50_50_4trials.xlsx,3,12,50,50,0,,,,,0,7,7,7,2,1,9,3,,,,,,,,4.6,1291.8208938999996,1296.4248851999996,1296.4249378399998,0.3048300000000381,1296.8692197999999,1296.8692197999999,m,0.40626060000022335,1300.7889777999999,1300.7889777999999,100,3.447,,,sub-040,35,100,700,bloc_loop.csv,2023-08-16_12h32.31.700,PainUncertainty,2022.2.5,143.10491880233155,
grave,forte,stimuli/330Hz,stimuli/forte,bloc_8,prob50_50_4trials.xlsx,3,12,50,50,0,,,,,0,7,7,7,2,2,10,1,,,,,,,,3.1,1300.7889777999999,1303.8909850999999,1303.8909956399996,0.30491950000032375,1304.3352014999996,1304.3352014999996,m,0.5001166000001831,1308.0316976999998,1308.0316976999998,100,3.122,,,sub-040,35,100,700,bloc_loop.csv,2023-08-16_12h32.31.700,PainUncertainty,2022.2.5,143.10491880233155,
grave,moderee,stimuli/330Hz,stimuli/moderee,bloc_8,prob50_50_4trials.xlsx,3,12,50,50,0,,,,,0,7,7,7,2,3,11,0,,,,,,,,3.9,1308.0316976999998,1311.9336427999997,1311.9336009399997,0.3051771999998891,1312.3780278,1312.3780278,n,0.7146898000000874,1316.0094574999998,1316.0094574999998,10,2.796,,,sub-040,35,100,700,bloc_loop.csv,2023-08-16_12h32.31.700,PainUncertainty,2022.2.5,143.10491880233155,
grave,forte,stimuli/330Hz,stimuli/forte,bloc_9,prob20hthp_12trials.xlsx,3,36,80,20,0,,,,,0,8,8,8,0,0,0,0,,,,,,,,4.9,1316.0094574999998,1320.9142266999997,1320.9142869399996,0.3051015999999436,1321.3602299999998,1321.3602299999998,m,0.48177990000021964,1324.5935009,1324.5935009,100,2.684,,,sub-040,35,100,700,bloc_loop.csv,2023-08-16_12h32.31.700,PainUncertainty,2022.2.5,143.10491880233155,
aigu,moderee,stimuli/660Hz,stimuli/moderee,bloc_9,prob20hthp_12trials.xlsx,3,36,80,20,0,,,,,0,8,8,8,0,1,1,6,,,,,,,,4,1324.5935009,1328.5952017,1328.5952843399998,0.30511459999979706,1329.0434945999996,1329.0434945999996,n,0.6313768000004529,1330.9231705999996,1330.9231705999996,12,1.185,,,sub-040,35,100,700,bloc_loop.csv,2023-08-16_12h32.31.700,PainUncertainty,2022.2.5,143.10491880233155,
aigu,moderee,stimuli/660Hz,stimuli/moderee,bloc_9,prob20hthp_12trials.xlsx,3,36,80,20,0,,,,,0,8,8,8,0,2,2,8,,,,,,,,3.7,1330.9231705999996,1334.6237655999998,1334.6238272399999,0.3049505999997564,1335.0679174999996,1335.0679174999996,n,0.48461200000019744,1337.6714383999997,1337.6714383999997,11,2.048,,,sub-040,35,100,700,bloc_loop.csv,2023-08-16_12h32.31.700,PainUncertainty,2022.2.5,143.10491880233155,
grave,forte,stimuli/330Hz,stimuli/forte,bloc_9,prob20hthp_12trials.xlsx,3,36,80,20,0,,,,,0,8,8,8,0,3,3,2,,,,,,,,4.1,1337.6714383999997,1341.7710920999998,1341.7711086399997,0.3016413000000284,1342.2156049999999,1342.2156049999999,m,0.4864095000002635,1346.6550401999998,1346.6550401999998,91,3.887,,,sub-040,35,100,700,bloc_loop.csv,2023-08-16_12h32.31.700,PainUncertainty,2022.2.5,143.10491880233155,
aigu,forte,stimuli/660Hz,stimuli/forte,bloc_9,prob20hthp_12trials.xlsx,3,36,80,20,0,,,,,0,8,8,8,0,4,4,11,,,,,,,,3.9,1346.6550401999998,1350.5577513999997,1350.5568317399996,0.3049289000000499,1351.0047311999997,1351.0047311999997,m,0.7521388000004663,1356.2774173999996,1356.2774173999996,92,4.455,,,sub-040,35,100,700,bloc_loop.csv,2023-08-16_12h32.31.700,PainUncertainty,2022.2.5,143.10491880233155,
grave,moderee,stimuli/330Hz,stimuli/moderee,bloc_9,prob20hthp_12trials.xlsx,3,36,80,20,0,,,,,0,8,8,8,0,5,5,5,,,,,,,,3.6,1356.2774173999996,1359.8769499,1359.8769487399998,0.3051451999999699,1360.3211322999996,1360.3211322999996,n,0.6397610999997596,1362.5125145999996,1362.5125145999996,11,1.476,,,sub-040,35,100,700,bloc_loop.csv,2023-08-16_12h32.31.700,PainUncertainty,2022.2.5,143.10491880233155,
grave,forte,stimuli/330Hz,stimuli/forte,bloc_9,prob20hthp_12trials.xlsx,3,36,80,20,0,,,,,0,8,8,8,0,6,6,3,,,,,,,,3.9,1362.5125145999996,1366.4132894,1366.4128489399998,0.299969499999861,1366.8570209,1366.8570209,m,0.5671234999999797,1369.2610379999996,1369.2610379999996,93,1.753,,,sub-040,35,100,700,bloc_loop.csv,2023-08-16_12h32.31.700,PainUncertainty,2022.2.5,143.10491880233155,
aigu,moderee,stimuli/660Hz,stimuli/moderee,bloc_9,prob20hthp_12trials.xlsx,3,36,80,20,0,,,,,0,8,8,8,0,7,7,10,,,,,,,,4.7,1369.2610379999996,1373.9621315,1373.9620209399998,0.2996227999997245,1374.4033155999996,1374.4033155999996,n,0.6747802000004413,1376.4360500999996,1376.4360500999996,17,1.282,,,sub-040,35,100,700,bloc_loop.csv,2023-08-16_12h32.31.700,PainUncertainty,2022.2.5,143.10491880233155,
grave,forte,stimuli/330Hz,stimuli/forte,bloc_9,prob20hthp_12trials.xlsx,3,36,80,20,0,,,,,0,8,8,8,0,8,8,1,,,,,,,,4.6,1376.4360500999996,1381.038983,1381.0391336399996,0.30540849999988495,1381.485964,1381.485964,m,0.5798738000003141,1385.8065250999998,1385.8065250999998,99,3.67,,,sub-040,35,100,700,bloc_loop.csv,2023-08-16_12h32.31.700,PainUncertainty,2022.2.5,143.10491880233155,
aigu,moderee,stimuli/660Hz,stimuli/moderee,bloc_9,prob20hthp_12trials.xlsx,3,36,80,20,0,,,,,0,8,8,8,0,9,9,9,,,,,,,,3.4,1385.8065250999998,1389.2066427999998,1389.2066132399998,0.3053327000002355,1389.6507531999996,1389.6507531999996,n,1.1136298000001261,1393.6696693999997,1393.6696693999997,20,2.844,,,sub-040,35,100,700,bloc_loop.csv,2023-08-16_12h32.31.700,PainUncertainty,2022.2.5,143.10491880233155,
aigu,moderee,stimuli/660Hz,stimuli/moderee,bloc_9,prob20hthp_12trials.xlsx,3,36,80,20,0,,,,,0,8,8,8,0,10,10,7,,,,,,,,3.4,1393.6696693999997,1397.0687825999998,1397.0687814399996,0.3051173999997445,1397.5165552999997,1397.5165552999997,n,0.7557926000004045,1399.5056562,1399.5056562,22,1.165,,,sub-040,35,100,700,bloc_loop.csv,2023-08-16_12h32.31.700,PainUncertainty,2022.2.5,143.10491880233155,
grave,forte,stimuli/330Hz,stimuli/forte,bloc_9,prob20hthp_12trials.xlsx,3,36,80,20,0,,,,,0,8,8,8,0,11,11,4,,,,,,,,5,1399.5056562,1404.5075275999998,1404.50775934,0.3046078000002126,1404.9514410999996,1404.9514410999996,m,0.4530149000001984,1408.6018344999998,1408.6018344999998,100,3.143,,,sub-040,35,100,700,bloc_loop.csv,2023-08-16_12h32.31.700,PainUncertainty,2022.2.5,143.10491880233155,
grave,forte,stimuli/330Hz,stimuli/forte,bloc_9,prob20hthp_12trials.xlsx,3,36,80,20,0,,,,,0,8,8,8,1,0,12,2,,,,,,,,5,1408.6018344999998,1413.6053287999998,1413.6053393399995,0.30542160000004515,1414.0495016999998,1414.0495016999998,m,1.0572481999997763,1417.1869527999997,1417.1869527999997,95,2.018,,,sub-040,35,100,700,bloc_loop.csv,2023-08-16_12h32.31.700,PainUncertainty,2022.2.5,143.10491880233155,
grave,forte,stimuli/330Hz,stimuli/forte,bloc_9,prob20hthp_12trials.xlsx,3,36,80,20,0,,,,,0,8,8,8,1,1,13,3,,,,,,,,3.2,1417.1869527999997,1420.3909313999998,1420.39097884,0.3051199000001361,1420.8354061999999,1420.8354061999999,m,0.46588690000044153,1423.7889222,1423.7889222,100,2.428,,,sub-040,35,100,700,bloc_loop.csv,2023-08-16_12h32.31.700,PainUncertainty,2022.2.5,143.10491880233155,
grave,forte,stimuli/330Hz,stimuli/forte,bloc_9,prob20hthp_12trials.xlsx,3,36,80,20,0,,,,,0,8,8,8,1,2,14,4,,,,,,,,4.1,1423.7889222,1427.8928512999996,1427.8922768399996,0.2998285999997279,1428.3365382999996,1428.3365382999996,m,0.522725900000296,1430.2142046,1430.2142046,100,1.289,,,sub-040,35,100,700,bloc_loop.csv,2023-08-16_12h32.31.700,PainUncertainty,2022.2.5,143.10491880233155,
aigu,forte,stimuli/660Hz,stimuli/forte,bloc_9,prob20hthp_12trials.xlsx,3,36,80,20,0,,,,,0,8,8,8,1,3,15,11,,,,,,,,3.3,1430.2142046,1433.5174177999997,1433.51757824,0.3050831000000471,1433.9616785999997,1433.9616785999997,m,0.8369384000002356,1436.5140167999998,1436.5140167999998,100,1.636,,,sub-040,35,100,700,bloc_loop.csv,2023-08-16_12h32.31.700,PainUncertainty,2022.2.5,143.10491880233155,
aigu,moderee,stimuli/660Hz,stimuli/moderee,bloc_9,prob20hthp_12trials.xlsx,3,36,80,20,0,,,,,0,8,8,8,1,4,16,8,,,,,,,,4.1,1436.5140167999998,1440.6159794999999,1440.6160145399997,0.3051162000001568,1441.0623598999996,1441.0623598999996,n,0.6554497000001902,1444.0265645,1444.0265645,16,2.254,,,sub-040,35,100,700,bloc_loop.csv,2023-08-16_12h32.31.700,PainUncertainty,2022.2.5,143.10491880233155,
grave,moderee,stimuli/330Hz,stimuli/moderee,bloc_9,prob20hthp_12trials.xlsx,3,36,80,20,0,,,,,0,8,8,8,1,5,17,5,,,,,,,,3.3,1444.0265645,1447.3315291,1447.3316926399996,0.30513139999993655,1447.7759259,1447.7759259,n,0.7133467000003293,1450.1169428999997,1450.1169428999997,10,1.559,,,sub-040,35,100,700,bloc_loop.csv,2023-08-16_12h32.31.700,PainUncertainty,2022.2.5,143.10491880233155,
grave,forte,stimuli/330Hz,stimuli/forte,bloc_9,prob20hthp_12trials.xlsx,3,36,80,20,0,,,,,0,8,8,8,1,6,18,1,,,,,,,,3.9,1450.1169428999997,1454.0198888999998,1454.01999474,0.3047310000001744,1454.4664773,1454.4664773,m,0.4965549000003193,1458.3184841999996,1458.3184841999996,100,3.288,,,sub-040,35,100,700,bloc_loop.csv,2023-08-16_12h32.31.700,PainUncertainty,2022.2.5,143.10491880233155,
aigu,moderee,stimuli/660Hz,stimuli/moderee,bloc_9,prob20hthp_12trials.xlsx,3,36,80,20,0,,,,,0,8,8,8,1,7,19,10,,,,,,,,3.4,1458.3184841999996,1461.7221614,1461.7222204399998,0.3050960999999006,1462.1663574,1462.1663574,n,0.6126440000002731,1464.8898144,1464.8898144,21,2.046,,,sub-040,35,100,700,bloc_loop.csv,2023-08-16_12h32.31.700,PainUncertainty,2022.2.5,143.10491880233155,
aigu,moderee,stimuli/660Hz,stimuli/moderee,bloc_9,prob20hthp_12trials.xlsx,3,36,80,20,0,,,,,0,8,8,8,1,8,20,6,,,,,,,,4.5,1464.8898144,1469.3900448,1469.39006194,0.30512259999977687,1469.8340085999998,1469.8340085999998,n,0.5957907000001796,1472.5948193,1472.5948193,22,2.093,,,sub-040,35,100,700,bloc_loop.csv,2023-08-16_12h32.31.700,PainUncertainty,2022.2.5,143.10491880233155,
grave,forte,stimuli/330Hz,stimuli/forte,bloc_9,prob20hthp_12trials.xlsx,3,36,80,20,0,,,,,0,8,8,8,1,9,21,0,,,,,,,,3.8,1472.5948193,1476.3979972999996,1476.3977955399998,0.30481600000030085,1476.8417470999998,1476.8417470999998,m,0.42719820000002073,1478.6058728999997,1478.6058728999997,100,1.253,,,sub-040,35,100,700,bloc_loop.csv,2023-08-16_12h32.31.700,PainUncertainty,2022.2.5,143.10491880233155,
aigu,moderee,stimuli/660Hz,stimuli/moderee,bloc_9,prob20hthp_12trials.xlsx,3,36,80,20,0,,,,,0,8,8,8,1,10,22,7,,,,,,,,4.3,1478.6058728999997,1482.9055157999996,1482.9056100399996,0.30518750000010186,1483.3519085999997,1483.3519085999997,n,0.5648732999998174,1485.4637777999997,1485.4637777999997,20,1.483,,,sub-040,35,100,700,bloc_loop.csv,2023-08-16_12h32.31.700,PainUncertainty,2022.2.5,143.10491880233155,
aigu,moderee,stimuli/660Hz,stimuli/moderee,bloc_9,prob20hthp_12trials.xlsx,3,36,80,20,0,,,,,0,8,8,8,1,11,23,9,,,,,,,,4.2,1485.4637777999997,1489.6628953999998,1489.66303404,0.2991418999999951,1490.1058605999997,1490.1058605999997,n,0.7378491000004033,1492.0807556,1492.0807556,21,1.184,,,sub-040,35,100,700,bloc_loop.csv,2023-08-16_12h32.31.700,PainUncertainty,2022.2.5,143.10491880233155,
aigu,moderee,stimuli/660Hz,stimuli/moderee,bloc_9,prob20hthp_12trials.xlsx,3,36,80,20,0,,,,,0,8,8,8,2,0,24,6,,,,,,,,3.6,1492.0807556,1495.6849229999998,1495.6849659399998,0.30479369999966366,1496.1290089999998,1496.1290089999998,n,0.5675347000001238,1499.0509500999997,1499.0509500999997,18,2.288,,,sub-040,35,100,700,bloc_loop.csv,2023-08-16_12h32.31.700,PainUncertainty,2022.2.5,143.10491880233155,
aigu,forte,stimuli/660Hz,stimuli/forte,bloc_9,prob20hthp_12trials.xlsx,3,36,80,20,0,,,,,0,8,8,8,2,1,25,11,,,,,,,,4,1499.0509500999997,1503.0551609,1503.0533250399997,0.30558700000028693,1503.5016250999997,1503.5016250999997,m,0.3879646000004868,1504.9974779999998,1504.9974779999998,100,1.046,,,sub-040,35,100,700,bloc_loop.csv,2023-08-16_12h32.31.700,PainUncertainty,2022.2.5,143.10491880233155,
grave,forte,stimuli/330Hz,stimuli/forte,bloc_9,prob20hthp_12trials.xlsx,3,36,80,20,0,,,,,0,8,8,8,2,2,26,3,,,,,,,,4.6,1504.9974779999998,1509.6027808,1509.6027872399998,0.29989160000013726,1510.0478048999998,1510.0478048999998,m,0.41351029999987077,1512.7696842999999,1512.7696842999999,100,2.227,,,sub-040,35,100,700,bloc_loop.csv,2023-08-16_12h32.31.700,PainUncertainty,2022.2.5,143.10491880233155,
aigu,moderee,stimuli/660Hz,stimuli/moderee,bloc_9,prob20hthp_12trials.xlsx,3,36,80,20,0,,,,,0,8,8,8,2,3,27,10,,,,,,,,3.6,1512.7696842999999,1516.3744521999997,1516.3746507399999,0.30499989999998434,1516.818656,1516.818656,n,0.5479036000001543,1520.2004402999996,1520.2004402999996,14,2.781,,,sub-040,35,100,700,bloc_loop.csv,2023-08-16_12h32.31.700,PainUncertainty,2022.2.5,143.10491880233155,
aigu,moderee,stimuli/660Hz,stimuli/moderee,bloc_9,prob20hthp_12trials.xlsx,3,36,80,20,0,,,,,0,8,8,8,2,4,28,8,,,,,,,,4.1,1520.2004402999996,1524.3062787999997,1524.3085457399995,0.3030565999997634,1524.7554634999997,1524.7554634999997,n,0.465625799999998,1527.3953385,1527.3953385,20,2.067,,,sub-040,35,100,700,bloc_loop.csv,2023-08-16_12h32.31.700,PainUncertainty,2022.2.5,143.10491880233155,
grave,moderee,stimuli/330Hz,stimuli/moderee,bloc_9,prob20hthp_12trials.xlsx,3,36,80,20,0,,,,,0,8,8,8,2,5,29,5,,,,,,,,3.3,1527.3953385,1530.6958938999996,1530.6959001399998,0.30482249999977284,1531.1402225999996,1531.1402225999996,n,0.5953127000002496,1534.6679142999997,1534.6679142999997,15,2.866,,,sub-040,35,100,700,bloc_loop.csv,2023-08-16_12h32.31.700,PainUncertainty,2022.2.5,143.10491880233155,
grave,forte,stimuli/330Hz,stimuli/forte,bloc_9,prob20hthp_12trials.xlsx,3,36,80,20,0,,,,,0,8,8,8,2,6,30,2,,,,,,,,3.2,1534.6679142999997,1537.8699791,1537.8699618399999,0.3051759999998467,1538.3215022999998,1538.3215022999998,m,0.429223500000262,1541.7510334999997,1541.7510334999997,100,2.923,,,sub-040,35,100,700,bloc_loop.csv,2023-08-16_12h32.31.700,PainUncertainty,2022.2.5,143.10491880233155,
aigu,moderee,stimuli/660Hz,stimuli/moderee,bloc_9,prob20hthp_12trials.xlsx,3,36,80,20,0,,,,,0,8,8,8,2,7,31,7,,,,,,,,4.3,1541.7510334999997,1546.0514368,1546.05143114,0.30542330000025686,1546.4956402999996,1546.4956402999996,n,0.5060969000005571,1549.4868555999997,1549.4868555999997,18,2.422,,,sub-040,35,100,700,bloc_loop.csv,2023-08-16_12h32.31.700,PainUncertainty,2022.2.5,143.10491880233155,
grave,forte,stimuli/330Hz,stimuli/forte,bloc_9,prob20hthp_12trials.xlsx,3,36,80,20,0,,,,,0,8,8,8,2,8,32,4,,,,,,,,4.2,1549.4868555999997,1553.6912284,1553.6912276399996,0.30161679999991975,1554.1358510999999,1554.1358510999999,m,0.47394640000038635,1556.1533012999998,1556.1533012999998,100,1.478,,,sub-040,35,100,700,bloc_loop.csv,2023-08-16_12h32.31.700,PainUncertainty,2022.2.5,143.10491880233155,
grave,forte,stimuli/330Hz,stimuli/forte,bloc_9,prob20hthp_12trials.xlsx,3,36,80,20,0,,,,,0,8,8,8,2,9,33,0,,,,,,,,4.9,1556.1533012999998,1561.0535326,1561.05576404,0.30274469999994835,1561.4974235999998,1561.4974235999998,m,0.38678939999999784,1562.9158945999998,1562.9158945999998,100,0.97,,,sub-040,35,100,700,bloc_loop.csv,2023-08-16_12h32.31.700,PainUncertainty,2022.2.5,143.10491880233155,
grave,forte,stimuli/330Hz,stimuli/forte,bloc_9,prob20hthp_12trials.xlsx,3,36,80,20,0,,,,,0,8,8,8,2,10,34,1,,,,,,,,3.3,1562.9158945999998,1566.2204729,1566.2205227399998,0.305373199999849,1566.6692027999998,1566.6692027999998,m,0.38947000000052867,1570.0455356999996,1570.0455356999996,100,2.915,,,sub-040,35,100,700,bloc_loop.csv,2023-08-16_12h32.31.700,PainUncertainty,2022.2.5,143.10491880233155,
aigu,moderee,stimuli/660Hz,stimuli/moderee,bloc_9,prob20hthp_12trials.xlsx,3,36,80,20,0,,,,,0,8,8,8,2,11,35,9,,,,,,,,3.4,1570.0455356999996,1573.4507369999997,1573.4506265399998,0.30527929999971093,1573.8948535,1573.8948535,n,0.6362997999999607,1577.3518614,1577.3518614,20,2.797,,,sub-040,35,100,700,bloc_loop.csv,2023-08-16_12h32.31.700,PainUncertainty,2022.2.5,143.10491880233155,
