cue_,stimulus_,cue_fichier,stimulus_fichier,block_name,block_trials_file,block_n_reps,block_ntrials,block_prob_highP_highT,block_prob_highP_lowT,block_pause_after,Bloc_essai.thisRepN,Bloc_essai.thisTrialN,Bloc_essai.thisN,Bloc_essai.thisIndex,blocks.thisRepN,blocks.thisTrialN,blocks.thisN,blocks.thisIndex,trials.thisRepN,trials.thisTrialN,trials.thisN,trials.thisIndex,pause_loop.thisRepN,pause_loop.thisTrialN,pause_loop.thisN,pause_loop.thisIndex,key_resp_5.started,start_calib.started,key_resp_2.started,ISI_duration,pause.started,pause.stopped,cue.started,ISI.started,choice_pain.started,Choice.started,choice_pain.keys,choice_pain.rt,main_text.started,confirm_text.started,ratingScale.response,ratingScale.rt,key_resp_3.started,key_resp_6.started,participant,low_ma,high_ma,failsafe_ma,block_file,date,expName,psychopyVersion,frameRate,
grave,moderee,stimuli/330Hz,stimuli/moderee,,,,,,,,0,0,0,0,,,,,,,,,,,,,49.53384449999976,52.817499800001315,60.811431000000084,4.1,62.0933100000002,66.19581339999968,66.19452308000018,0.30202420000023267,66.63965269999971,66.63965269999971,n,1.3062964999990072,70.97047790000033,70.97047790000033,21,2.961,,,sub-031,35,85,700,bloc_loop.csv,2023-06-28_10h40.01.516,PainUncertainty,2022.2.5,143.90787593294348,
grave,forte,stimuli/330Hz,stimuli/forte,,,,,,,,0,1,1,1,,,,,,,,,,,,,,,,4.2,70.97047790000033,75.17440840000017,75.17443838000054,0.3051428999988275,75.61855819999982,75.61855819999982,m,0.7104319999980362,79.20363329999964,79.20363329999964,72,2.816,,,sub-031,35,85,700,bloc_loop.csv,2023-06-28_10h40.01.516,PainUncertainty,2022.2.5,143.90787593294348,
aigu,forte,stimuli/660Hz,stimuli/forte,,,,,,,,0,2,2,3,,,,,,,,,,,,,,,,4.9,79.20363329999964,84.10612180000135,84.10619597999994,0.3050712000003841,84.55041750000055,84.55041750000055,m,0.7483572999990429,88.56922670000131,88.56922670000131,77,3.206,,,sub-031,35,85,700,bloc_loop.csv,2023-06-28_10h40.01.516,PainUncertainty,2022.2.5,143.90787593294348,
aigu,moderee,stimuli/660Hz,stimuli/moderee,,,,,,,,0,3,3,2,,,,,,,,,,,,,,,,3.5,88.56922670000131,92.07251770000039,92.07247718000053,0.3050075999999535,92.51650680000057,92.51650680000057,n,0.8650036999988515,96.32801050000126,96.32801050000126,29,2.921,,,sub-031,35,85,700,bloc_loop.csv,2023-06-28_10h40.01.516,PainUncertainty,2022.2.5,143.90787593294348,
grave,forte,stimuli/330Hz,stimuli/forte,bloc_1,prob20hthp_12trials.xlsx,4,48,20,80,0,,,,,0,0,0,0,0,0,0,3,,,,,,,,4.9,146.4655352000009,151.3711604,151.37151517999973,0.3047129999995377,151.81538660000115,151.81538660000115,m,0.8002576999988378,155.0962309000006,155.0962309000006,74,2.407,,,sub-031,35,85,700,bloc_loop.csv,2023-06-28_10h40.01.516,PainUncertainty,2022.2.5,143.90787593294348,
aigu,moderee,stimuli/660Hz,stimuli/moderee,bloc_1,prob20hthp_12trials.xlsx,4,48,20,80,0,,,,,0,0,0,0,0,1,1,10,,,,,,,,4.4,155.0962309000006,159.49714310000127,159.49734528000135,0.3050171000013506,159.9414987,159.9414987,n,0.7929264999984298,162.86328230000072,162.86328230000072,23,2.073,,,sub-031,35,85,700,bloc_loop.csv,2023-06-28_10h40.01.516,PainUncertainty,2022.2.5,143.90787593294348,
grave,forte,stimuli/330Hz,stimuli/forte,bloc_1,prob20hthp_12trials.xlsx,4,48,20,80,0,,,,,0,0,0,0,0,2,2,1,,,,,,,,4.4,162.86328230000072,167.26902230000087,167.26907658000073,0.3053236999985529,167.71354190000056,167.71354190000056,m,0.7193615999985923,170.93632919999982,170.93632919999982,74,2.441,,,sub-031,35,85,700,bloc_loop.csv,2023-06-28_10h40.01.516,PainUncertainty,2022.2.5,143.90787593294348,
grave,forte,stimuli/330Hz,stimuli/forte,bloc_1,prob20hthp_12trials.xlsx,4,48,20,80,0,,,,,0,0,0,0,0,3,3,0,,,,,,,,4.9,170.93632919999982,175.83987900000102,175.83982308000031,0.3000838999996631,176.28433940000104,176.28433940000104,m,0.6524131999976817,179.9498080000012,179.9498080000012,80,2.962,,,sub-031,35,85,700,bloc_loop.csv,2023-06-28_10h40.01.516,PainUncertainty,2022.2.5,143.90787593294348,
grave,forte,stimuli/330Hz,stimuli/forte,bloc_1,prob20hthp_12trials.xlsx,4,48,20,80,0,,,,,0,0,0,0,0,4,4,4,,,,,,,,4.3,179.9498080000012,184.25023280000096,184.25040488000104,0.30499649999910616,184.69454890000088,184.69454890000088,m,0.8835524999976769,188.69302700000117,188.69302700000117,77,3.06,,,sub-031,35,85,700,bloc_loop.csv,2023-06-28_10h40.01.516,PainUncertainty,2022.2.5,143.90787593294348,
aigu,moderee,stimuli/660Hz,stimuli/moderee,bloc_1,prob20hthp_12trials.xlsx,4,48,20,80,0,,,,,0,0,0,0,0,5,5,8,,,,,,,,3.4,188.69302700000117,192.0983952000006,192.09854858000017,0.30484939999951166,192.54311360000065,192.54311360000065,n,0.6596366999983729,195.9827008000011,195.9827008000011,24,2.719,,,sub-031,35,85,700,bloc_loop.csv,2023-06-28_10h40.01.516,PainUncertainty,2022.2.5,143.90787593294348,
grave,forte,stimuli/330Hz,stimuli/forte,bloc_1,prob20hthp_12trials.xlsx,4,48,20,80,0,,,,,0,0,0,0,0,6,6,2,,,,,,,,3.6,195.9827008000011,199.58547410000028,199.5854271800008,0.305182899999636,200.0338425000009,200.0338425000009,m,0.6141282999979012,204.08649669999977,204.08649669999977,75,3.387,,,sub-031,35,85,700,bloc_loop.csv,2023-06-28_10h40.01.516,PainUncertainty,2022.2.5,143.90787593294348,
aigu,moderee,stimuli/660Hz,stimuli/moderee,bloc_1,prob20hthp_12trials.xlsx,4,48,20,80,0,,,,,0,0,0,0,0,7,7,6,,,,,,,,4.8,204.08649669999977,208.89210579999963,208.89207588000045,0.3051042999995843,209.33630970000013,209.33630970000013,n,0.6438734999992448,213.7088588000006,213.7088588000006,19,3.671,,,sub-031,35,85,700,bloc_loop.csv,2023-06-28_10h40.01.516,PainUncertainty,2022.2.5,143.90787593294348,
aigu,moderee,stimuli/660Hz,stimuli/moderee,bloc_1,prob20hthp_12trials.xlsx,4,48,20,80,0,,,,,0,0,0,0,0,8,8,9,,,,,,,,3.9,213.7088588000006,217.60850720000053,217.60862827999972,0.30500840000058815,218.05490989999998,218.05490989999998,n,0.6956765999984782,220.98293209999974,220.98293209999974,14,2.17,,,sub-031,35,85,700,bloc_loop.csv,2023-06-28_10h40.01.516,PainUncertainty,2022.2.5,143.90787593294348,
aigu,moderee,stimuli/660Hz,stimuli/moderee,bloc_1,prob20hthp_12trials.xlsx,4,48,20,80,0,,,,,0,0,0,0,0,9,9,7,,,,,,,,3.4,220.98293209999974,224.38737860000037,224.38740958000108,0.3053333999996539,224.83492769999975,224.83492769999975,n,0.6336812999998074,229.58289660000082,229.58289660000082,8,4.053,,,sub-031,35,85,700,bloc_loop.csv,2023-06-28_10h40.01.516,PainUncertainty,2022.2.5,143.90787593294348,
aigu,forte,stimuli/660Hz,stimuli/forte,bloc_1,prob20hthp_12trials.xlsx,4,48,20,80,0,,,,,0,0,0,0,0,10,10,11,,,,,,,,3.1,229.58289660000082,232.6884869000005,232.68705257999954,0.3051206000000093,233.13116740000078,233.13116740000078,m,0.8578806999994413,237.7008396000001,237.7008396000001,68,3.651,,,sub-031,35,85,700,bloc_loop.csv,2023-06-28_10h40.01.516,PainUncertainty,2022.2.5,143.90787593294348,
grave,moderee,stimuli/330Hz,stimuli/moderee,bloc_1,prob20hthp_12trials.xlsx,4,48,20,80,0,,,,,0,0,0,0,0,11,11,5,,,,,,,,4.4,237.7008396000001,242.10467020000033,242.10462348000055,0.3051517000003514,242.55087530000128,242.55087530000128,n,0.7637635999981285,246.4759137000001,246.4759137000001,15,3.109,,,sub-031,35,85,700,bloc_loop.csv,2023-06-28_10h40.01.516,PainUncertainty,2022.2.5,143.90787593294348,
aigu,moderee,stimuli/660Hz,stimuli/moderee,bloc_1,prob20hthp_12trials.xlsx,4,48,20,80,0,,,,,0,0,0,0,1,0,12,6,,,,,,,,3.9,246.4759137000001,250.37720919999992,250.376723280001,0.3053261000004568,250.8262493000002,250.8262493000002,n,0.9122715999983484,256.60992670000087,256.60992670000087,13,4.816,,,sub-031,35,85,700,bloc_loop.csv,2023-06-28_10h40.01.516,PainUncertainty,2022.2.5,143.90787593294348,
aigu,moderee,stimuli/660Hz,stimuli/moderee,bloc_1,prob20hthp_12trials.xlsx,4,48,20,80,0,,,,,0,0,0,0,1,1,13,7,,,,,,,,4.1,256.60992670000087,260.7109500000006,260.7110144799999,0.30510209999920335,261.1554272000012,261.1554272000012,n,0.7076798999987659,265.2095050000007,265.2095050000007,9,3.296,,,sub-031,35,85,700,bloc_loop.csv,2023-06-28_10h40.01.516,PainUncertainty,2022.2.5,143.90787593294348,
aigu,moderee,stimuli/660Hz,stimuli/moderee,bloc_1,prob20hthp_12trials.xlsx,4,48,20,80,0,,,,,0,0,0,0,1,2,14,9,,,,,,,,3.5,265.2095050000007,268.7118335000014,268.7118889800013,0.30544540000119014,269.15633640000124,269.15633640000124,n,1.8563512999971863,274.70433030000095,274.70433030000095,13,3.626,,,sub-031,35,85,700,bloc_loop.csv,2023-06-28_10h40.01.516,PainUncertainty,2022.2.5,143.90787593294348,
aigu,forte,stimuli/660Hz,stimuli/forte,bloc_1,prob20hthp_12trials.xlsx,4,48,20,80,0,,,,,0,0,0,0,1,3,15,11,,,,,,,,4,274.70433030000095,278.70658060000096,278.7066060799998,0.30508089999966614,279.15449330000047,279.15449330000047,m,0.8129203999978927,282.09103460000006,282.09103460000006,80,2.06,,,sub-031,35,85,700,bloc_loop.csv,2023-06-28_10h40.01.516,PainUncertainty,2022.2.5,143.90787593294348,
grave,moderee,stimuli/330Hz,stimuli/moderee,bloc_1,prob20hthp_12trials.xlsx,4,48,20,80,0,,,,,0,0,0,0,1,4,16,5,,,,,,,,3.1,282.09103460000006,285.19356420000076,285.19345028000043,0.30515850000119826,285.6410496999997,285.6410496999997,n,0.7065062999990914,289.10642390000066,289.10642390000066,16,2.697,,,sub-031,35,85,700,bloc_loop.csv,2023-06-28_10h40.01.516,PainUncertainty,2022.2.5,143.90787593294348,
grave,forte,stimuli/330Hz,stimuli/forte,bloc_1,prob20hthp_12trials.xlsx,4,48,20,80,0,,,,,0,0,0,0,1,5,17,4,,,,,,,,3.4,289.10642390000066,292.50649840000005,292.50655577999987,0.3050872999992862,292.95286169999963,292.95286169999963,m,0.6316062999976566,295.86866270000064,295.86866270000064,80,2.22,,,sub-031,35,85,700,bloc_loop.csv,2023-06-28_10h40.01.516,PainUncertainty,2022.2.5,143.90787593294348,
grave,forte,stimuli/330Hz,stimuli/forte,bloc_1,prob20hthp_12trials.xlsx,4,48,20,80,0,,,,,0,0,0,0,1,6,18,1,,,,,,,,4,295.86866270000064,299.8685177999996,299.86853468000027,0.30209739999918384,300.3136873000003,300.3136873000003,m,0.8905894999988959,304.70815250000123,304.70815250000123,83,3.442,,,sub-031,35,85,700,bloc_loop.csv,2023-06-28_10h40.01.516,PainUncertainty,2022.2.5,143.90787593294348,
grave,forte,stimuli/330Hz,stimuli/forte,bloc_1,prob20hthp_12trials.xlsx,4,48,20,80,0,,,,,0,0,0,0,1,7,19,3,,,,,,,,4.7,304.70815250000123,309.411724900001,309.41167078000126,0.3048542999986239,309.8557372000014,309.8557372000014,m,1.0271246999982395,315.8156916000007,315.8156916000007,82,4.871,,,sub-031,35,85,700,bloc_loop.csv,2023-06-28_10h40.01.516,PainUncertainty,2022.2.5,143.90787593294348,
aigu,moderee,stimuli/660Hz,stimuli/moderee,bloc_1,prob20hthp_12trials.xlsx,4,48,20,80,0,,,,,0,0,0,0,1,8,20,10,,,,,,,,4.2,315.8156916000007,320.016921800001,320.0169845800001,0.30477240000072925,320.46144170000116,320.46144170000116,n,0.6807825999985653,324.11289600000055,324.11289600000055,17,2.907,,,sub-031,35,85,700,bloc_loop.csv,2023-06-28_10h40.01.516,PainUncertainty,2022.2.5,143.90787593294348,
aigu,moderee,stimuli/660Hz,stimuli/moderee,bloc_1,prob20hthp_12trials.xlsx,4,48,20,80,0,,,,,0,0,0,0,1,9,21,8,,,,,,,,3.2,324.11289600000055,327.31631650000054,327.3164001800005,0.30562450000070385,327.76538919999985,327.76538919999985,n,1.1796902999994927,332.34285160000036,332.34285160000036,13,3.345,,,sub-031,35,85,700,bloc_loop.csv,2023-06-28_10h40.01.516,PainUncertainty,2022.2.5,143.90787593294348,
grave,forte,stimuli/330Hz,stimuli/forte,bloc_1,prob20hthp_12trials.xlsx,4,48,20,80,0,,,,,0,0,0,0,1,10,22,0,,,,,,,,4.7,332.34285160000036,337.04703119999976,337.04679357999976,0.30488360000163084,337.49098310000045,337.49098310000045,m,0.8592726999995648,340.159265100001,340.159265100001,80,1.747,,,sub-031,35,85,700,bloc_loop.csv,2023-06-28_10h40.01.516,PainUncertainty,2022.2.5,143.90787593294348,
grave,forte,stimuli/330Hz,stimuli/forte,bloc_1,prob20hthp_12trials.xlsx,4,48,20,80,0,,,,,0,0,0,0,1,11,23,2,,,,,,,,4.2,340.159265100001,344.35993840000083,344.3601007799998,0.3051316000000952,344.81147390000115,344.81147390000115,m,0.7443477999986499,349.4158582,349.4158582,81,3.797,,,sub-031,35,85,700,bloc_loop.csv,2023-06-28_10h40.01.516,PainUncertainty,2022.2.5,143.90787593294348,
aigu,moderee,stimuli/660Hz,stimuli/moderee,bloc_1,prob20hthp_12trials.xlsx,4,48,20,80,0,,,,,0,0,0,0,2,0,24,6,,,,,,,,3,349.4158582,352.41685940000025,352.4170009800009,0.30526540000028035,352.8651815000012,352.8651815000012,n,0.6067017999994277,358.5893651000006,358.5893651000006,14,5.058,,,sub-031,35,85,700,bloc_loop.csv,2023-06-28_10h40.01.516,PainUncertainty,2022.2.5,143.90787593294348,
grave,forte,stimuli/330Hz,stimuli/forte,bloc_1,prob20hthp_12trials.xlsx,4,48,20,80,0,,,,,0,0,0,0,2,1,25,0,,,,,,,,4.3,358.5893651000006,362.8904911999998,362.89283198000066,0.30254389999936393,363.3341865000002,363.3341865000002,m,0.657751400000052,365.7013586000012,365.7013586000012,81,1.657,,,sub-031,35,85,700,bloc_loop.csv,2023-06-28_10h40.01.516,PainUncertainty,2022.2.5,143.90787593294348,
grave,forte,stimuli/330Hz,stimuli/forte,bloc_1,prob20hthp_12trials.xlsx,4,48,20,80,0,,,,,0,0,0,0,2,2,26,4,,,,,,,,3.5,365.7013586000012,369.2033542999998,369.2033152800004,0.3053641000005882,369.6522298,369.6522298,m,0.7767553999983647,372.51229109999986,372.51229109999986,83,2.025,,,sub-031,35,85,700,bloc_loop.csv,2023-06-28_10h40.01.516,PainUncertainty,2022.2.5,143.90787593294348,
aigu,moderee,stimuli/660Hz,stimuli/moderee,bloc_1,prob20hthp_12trials.xlsx,4,48,20,80,0,,,,,0,0,0,0,2,3,27,9,,,,,,,,5,372.51229109999986,377.5167571000002,377.5169226799999,0.3050215000002936,377.9682649000006,377.9682649000006,n,0.8019602999975177,381.3820149000003,381.3820149000003,10,2.553,,,sub-031,35,85,700,bloc_loop.csv,2023-06-28_10h40.01.516,PainUncertainty,2022.2.5,143.90787593294348,
grave,forte,stimuli/330Hz,stimuli/forte,bloc_1,prob20hthp_12trials.xlsx,4,48,20,80,0,,,,,0,0,0,0,2,4,28,1,,,,,,,,4.3,381.3820149000003,385.6850396000009,385.68535387999964,0.30439619999924616,386.12915520000024,386.12915520000024,m,1.7064105999979802,391.98078689999966,391.98078689999966,82,4.081,,,sub-031,35,85,700,bloc_loop.csv,2023-06-28_10h40.01.516,PainUncertainty,2022.2.5,143.90787593294348,
grave,moderee,stimuli/330Hz,stimuli/moderee,bloc_1,prob20hthp_12trials.xlsx,4,48,20,80,0,,,,,0,0,0,0,2,5,29,5,,,,,,,,3.1,391.98078689999966,395.0818608999998,395.0822097800001,0.2991521999992983,395.52445369999987,395.52445369999987,n,1.0160975999988295,400.5811642999997,400.5811642999997,11,3.977,,,sub-031,35,85,700,bloc_loop.csv,2023-06-28_10h40.01.516,PainUncertainty,2022.2.5,143.90787593294348,
grave,forte,stimuli/330Hz,stimuli/forte,bloc_1,prob20hthp_12trials.xlsx,4,48,20,80,0,,,,,0,0,0,0,2,6,30,2,,,,,,,,4,400.5811642999997,404.58257950000007,404.58275288000095,0.30487539999921864,405.0267332000003,405.0267332000003,m,0.6733029999977589,409.4203438000004,409.4203438000004,84,3.656,,,sub-031,35,85,700,bloc_loop.csv,2023-06-28_10h40.01.516,PainUncertainty,2022.2.5,143.90787593294348,
aigu,moderee,stimuli/660Hz,stimuli/moderee,bloc_1,prob20hthp_12trials.xlsx,4,48,20,80,0,,,,,0,0,0,0,2,7,31,8,,,,,,,,3.9,409.4203438000004,413.3201946999998,413.32029538000006,0.3046176000007108,413.76421800000026,413.76421800000026,n,0.6106074999988778,418.33827589999964,418.33827589999964,9,3.899,,,sub-031,35,85,700,bloc_loop.csv,2023-06-28_10h40.01.516,PainUncertainty,2022.2.5,143.90787593294348,
aigu,moderee,stimuli/660Hz,stimuli/moderee,bloc_1,prob20hthp_12trials.xlsx,4,48,20,80,0,,,,,0,0,0,0,2,8,32,7,,,,,,,,4.6,418.33827589999964,422.93896190000123,422.93904548000046,0.29943749999983993,423.3837443000011,423.3837443000011,n,0.6031225999995513,427.3058555000007,427.3058555000007,8,3.269,,,sub-031,35,85,700,bloc_loop.csv,2023-06-28_10h40.01.516,PainUncertainty,2022.2.5,143.90787593294348,
grave,forte,stimuli/330Hz,stimuli/forte,bloc_1,prob20hthp_12trials.xlsx,4,48,20,80,0,,,,,0,0,0,0,2,9,33,3,,,,,,,,3.3,427.3058555000007,430.6067254999998,430.6066605799997,0.305002200000672,431.05068440000105,431.05068440000105,m,0.8018064999978378,434.4526414000011,434.4526414000011,85,2.531,,,sub-031,35,85,700,bloc_loop.csv,2023-06-28_10h40.01.516,PainUncertainty,2022.2.5,143.90787593294348,
aigu,forte,stimuli/660Hz,stimuli/forte,bloc_1,prob20hthp_12trials.xlsx,4,48,20,80,0,,,,,0,0,0,0,2,10,34,11,,,,,,,,5,434.4526414000011,439.45528110000123,439.45549198000026,0.30514880000009725,439.9042614000009,439.9042614000009,m,1.1509041999979672,444.7131846000011,444.7131846000011,80,3.594,,,sub-031,35,85,700,bloc_loop.csv,2023-06-28_10h40.01.516,PainUncertainty,2022.2.5,143.90787593294348,
aigu,moderee,stimuli/660Hz,stimuli/moderee,bloc_1,prob20hthp_12trials.xlsx,4,48,20,80,0,,,,,0,0,0,0,2,11,35,10,,,,,,,,4.9,444.7131846000011,449.6158209000005,449.61609658,0.30487929999981134,450.0627947000012,450.0627947000012,n,0.6763592999996035,452.41626350000115,452.41626350000115,13,1.622,,,sub-031,35,85,700,bloc_loop.csv,2023-06-28_10h40.01.516,PainUncertainty,2022.2.5,143.90787593294348,
grave,forte,stimuli/330Hz,stimuli/forte,bloc_1,prob20hthp_12trials.xlsx,4,48,20,80,0,,,,,0,0,0,0,3,0,36,2,,,,,,,,3.3,452.41626350000115,455.72077210000134,455.7208527800003,0.299758600000132,456.16521210000064,456.16521210000064,m,0.5897417999985919,458.3457319000008,458.3457319000008,80,1.539,,,sub-031,35,85,700,bloc_loop.csv,2023-06-28_10h40.01.516,PainUncertainty,2022.2.5,143.90787593294348,
grave,moderee,stimuli/330Hz,stimuli/moderee,bloc_1,prob20hthp_12trials.xlsx,4,48,20,80,0,,,,,0,0,0,0,3,1,37,5,,,,,,,,3.6,458.3457319000008,461.9506390000006,461.9506593800006,0.30508949999966717,462.39472560000104,462.39472560000104,n,0.5309764999983599,464.80307360000006,464.80307360000006,6,1.822,,,sub-031,35,85,700,bloc_loop.csv,2023-06-28_10h40.01.516,PainUncertainty,2022.2.5,143.90787593294348,
aigu,moderee,stimuli/660Hz,stimuli/moderee,bloc_1,prob20hthp_12trials.xlsx,4,48,20,80,0,,,,,0,0,0,0,3,2,38,7,,,,,,,,3.1,464.80307360000006,467.90302150000025,467.90293618000123,0.3054281999993691,468.3503062,468.3503062,n,0.6095968999979959,471.4840863999998,471.4840863999998,13,2.469,,,sub-031,35,85,700,bloc_loop.csv,2023-06-28_10h40.01.516,PainUncertainty,2022.2.5,143.90787593294348,
aigu,moderee,stimuli/660Hz,stimuli/moderee,bloc_1,prob20hthp_12trials.xlsx,4,48,20,80,0,,,,,0,0,0,0,3,3,39,6,,,,,,,,4.1,471.4840863999998,475.5841177000002,475.5842400800002,0.30546160000085365,476.0312036000014,476.0312036000014,n,0.6332150999987789,479.9237900999997,479.9237900999997,9,3.205,,,sub-031,35,85,700,bloc_loop.csv,2023-06-28_10h40.01.516,PainUncertainty,2022.2.5,143.90787593294348,
grave,forte,stimuli/330Hz,stimuli/forte,bloc_1,prob20hthp_12trials.xlsx,4,48,20,80,0,,,,,0,0,0,0,3,4,40,4,,,,,,,,4.9,479.9237900999997,484.8283979000007,484.828520080001,0.30494720000024245,485.2729786,485.2729786,m,0.5743647999988752,488.827098400001,488.827098400001,79,2.928,,,sub-031,35,85,700,bloc_loop.csv,2023-06-28_10h40.01.516,PainUncertainty,2022.2.5,143.90787593294348,
grave,forte,stimuli/330Hz,stimuli/forte,bloc_1,prob20hthp_12trials.xlsx,4,48,20,80,0,,,,,0,0,0,0,3,5,41,3,,,,,,,,3.5,488.827098400001,492.3292278000008,492.3292450800009,0.3056205000011687,492.77644900000087,492.77644900000087,m,1.1562520999978005,497.44297689999985,497.44297689999985,83,3.456,,,sub-031,35,85,700,bloc_loop.csv,2023-06-28_10h40.01.516,PainUncertainty,2022.2.5,143.90787593294348,
aigu,moderee,stimuli/660Hz,stimuli/moderee,bloc_1,prob20hthp_12trials.xlsx,4,48,20,80,0,,,,,0,0,0,0,3,6,42,10,,,,,,,,3.7,497.44297689999985,501.1430768000009,501.14321248000033,0.30480680000073335,501.58692450000126,501.58692450000126,n,0.6164094999985537,504.5242515000009,504.5242515000009,5,2.261,,,sub-031,35,85,700,bloc_loop.csv,2023-06-28_10h40.01.516,PainUncertainty,2022.2.5,143.90787593294348,
aigu,forte,stimuli/660Hz,stimuli/forte,bloc_1,prob20hthp_12trials.xlsx,4,48,20,80,0,,,,,0,0,0,0,3,7,43,11,,,,,,,,3.9,504.5242515000009,508.4283768000005,508.4283951799998,0.3050058999997418,508.87246290000076,508.87246290000076,m,0.6184259000001475,511.9728903000014,511.9728903000014,77,2.427,,,sub-031,35,85,700,bloc_loop.csv,2023-06-28_10h40.01.516,PainUncertainty,2022.2.5,143.90787593294348,
grave,forte,stimuli/330Hz,stimuli/forte,bloc_1,prob20hthp_12trials.xlsx,4,48,20,80,0,,,,,0,0,0,0,3,8,44,1,,,,,,,,4.1,511.9728903000014,516.0750375000007,516.0750870800011,0.30513500000051863,516.5192285000012,516.5192285000012,m,0.6435443999980635,520.8755505999998,520.8755505999998,85,3.65,,,sub-031,35,85,700,bloc_loop.csv,2023-06-28_10h40.01.516,PainUncertainty,2022.2.5,143.90787593294348,
aigu,moderee,stimuli/660Hz,stimuli/moderee,bloc_1,prob20hthp_12trials.xlsx,4,48,20,80,0,,,,,0,0,0,0,3,9,45,8,,,,,,,,3.4,520.8755505999998,524.2774848000008,524.2776095800009,0.3000324999993609,524.7224407000012,524.7224407000012,n,0.6799875999986398,529.9547487,529.9547487,10,4.498,,,sub-031,35,85,700,bloc_loop.csv,2023-06-28_10h40.01.516,PainUncertainty,2022.2.5,143.90787593294348,
aigu,moderee,stimuli/660Hz,stimuli/moderee,bloc_1,prob20hthp_12trials.xlsx,4,48,20,80,0,,,,,0,0,0,0,3,10,46,9,,,,,,,,3,529.9547487,532.9590755000008,532.9592408800008,0.3048287000001437,533.4032523000005,533.4032523000005,n,0.5844084000000294,537.4523143000006,537.4523143000006,10,3.4,,,sub-031,35,85,700,bloc_loop.csv,2023-06-28_10h40.01.516,PainUncertainty,2022.2.5,143.90787593294348,
grave,forte,stimuli/330Hz,stimuli/forte,bloc_1,prob20hthp_12trials.xlsx,4,48,20,80,0,,,,,0,0,0,0,3,11,47,0,,,,,,,,4.6,537.4523143000006,542.0574534000007,542.0573288799997,0.3054431000000477,542.5014779000012,542.5014779000012,m,1.728092800000013,548.1760984000011,548.1760984000011,82,3.887,,,sub-031,35,85,700,bloc_loop.csv,2023-06-28_10h40.01.516,PainUncertainty,2022.2.5,143.90787593294348,
aigu,moderee,stimuli/660Hz,stimuli/moderee,bloc_2,prob50_50_4trials.xlsx,2,8,50,50,1,,,,,0,1,1,1,0,0,0,2,,,,,,,,3,548.1760984000011,551.1771430999997,551.1772074800001,0.3047817999995459,551.6211135000012,551.6211135000012,n,0.5652312999991409,553.5945314,553.5945314,7,1.35,,,sub-031,35,85,700,bloc_loop.csv,2023-06-28_10h40.01.516,PainUncertainty,2022.2.5,143.90787593294348,
grave,forte,stimuli/330Hz,stimuli/forte,bloc_2,prob50_50_4trials.xlsx,2,8,50,50,1,,,,,0,1,1,1,0,1,1,1,,,,,,,,4.1,553.5945314,557.6985748000006,557.6987236800005,0.3032848999991984,558.1454551000006,558.1454551000006,m,0.9528214999991178,562.5789602000004,562.5789602000004,81,3.421,,,sub-031,35,85,700,bloc_loop.csv,2023-06-28_10h40.01.516,PainUncertainty,2022.2.5,143.90787593294348,
aigu,forte,stimuli/660Hz,stimuli/forte,bloc_2,prob50_50_4trials.xlsx,2,8,50,50,1,,,,,0,1,1,1,0,2,2,3,,,,,,,,3.6,562.5789602000004,566.1783909000005,566.1784154799998,0.30483430000094813,566.6225513999998,566.6225513999998,m,0.6735087999986717,568.8129207000002,568.8129207000002,83,1.455,,,sub-031,35,85,700,bloc_loop.csv,2023-06-28_10h40.01.516,PainUncertainty,2022.2.5,143.90787593294348,
grave,moderee,stimuli/330Hz,stimuli/moderee,bloc_2,prob50_50_4trials.xlsx,2,8,50,50,1,,,,,0,1,1,1,0,3,3,0,,,,,,,,4.8,568.8129207000002,573.6168017,573.616691780001,0.30514899999980116,574.060883600001,574.060883600001,n,1.8090816999974777,579.7141317000005,579.7141317000005,12,3.781,,,sub-031,35,85,700,bloc_loop.csv,2023-06-28_10h40.01.516,PainUncertainty,2022.2.5,143.90787593294348,
grave,forte,stimuli/330Hz,stimuli/forte,bloc_2,prob50_50_4trials.xlsx,2,8,50,50,1,,,,,0,1,1,1,1,0,4,1,,,,,,,,3.2,579.7141317000005,582.916721900001,582.9168499800007,0.30461380000087956,583.3606087999997,583.3606087999997,m,0.7502916999983427,588.2486231000003,588.2486231000003,83,4.079,,,sub-031,35,85,700,bloc_loop.csv,2023-06-28_10h40.01.516,PainUncertainty,2022.2.5,143.90787593294348,
aigu,forte,stimuli/660Hz,stimuli/forte,bloc_2,prob50_50_4trials.xlsx,2,8,50,50,1,,,,,0,1,1,1,1,1,5,3,,,,,,,,4.3,588.2486231000003,592.5495038999998,592.5494893799996,0.3051555999991251,592.9937602000009,592.9937602000009,m,0.9880086999983178,597.0742835000001,597.0742835000001,90,3.023,,,sub-031,35,85,700,bloc_loop.csv,2023-06-28_10h40.01.516,PainUncertainty,2022.2.5,143.90787593294348,
aigu,moderee,stimuli/660Hz,stimuli/moderee,bloc_2,prob50_50_4trials.xlsx,2,8,50,50,1,,,,,0,1,1,1,1,2,6,2,,,,,,,,4.9,597.0742835000001,601.9742748000008,601.9743524800006,0.3054013999990275,602.4225845000001,602.4225845000001,n,0.6296634999980597,606.9028783000012,606.9028783000012,12,3.739,,,sub-031,35,85,700,bloc_loop.csv,2023-06-28_10h40.01.516,PainUncertainty,2022.2.5,143.90787593294348,
grave,moderee,stimuli/330Hz,stimuli/moderee,bloc_2,prob50_50_4trials.xlsx,2,8,50,50,1,,,,,0,1,1,1,1,3,7,0,,,,,,,,3.7,606.9028783000012,610.6076998999997,610.607667180001,0.30483319999984815,611.0515765,611.0515765,n,0.6777671999989252,618.2511133000007,618.2511133000007,12,4.489,,,sub-031,35,85,700,bloc_loop.csv,2023-06-28_10h40.01.516,PainUncertainty,2022.2.5,143.90787593294348,
,,,,bloc_2,prob50_50_4trials.xlsx,2,8,50,50,1,,,,,0,1,1,1,,,,,0,0,0,0,,,,,,,,,,,,,,,,,618.2511133000007,744.1856322000003,sub-031,35,85,700,bloc_loop.csv,2023-06-28_10h40.01.516,PainUncertainty,2022.2.5,143.90787593294348,
aigu,forte,stimuli/660Hz,stimuli/forte,bloc_3,prob80hthp_12trials.xlsx,2,24,80,20,0,,,,,0,2,2,2,0,0,0,10,,,,,,,,3.9,745.6935726000011,749.5960535000013,749.5960312800007,0.3049073000001954,750.0442629999998,750.0442629999998,m,0.948971599998913,753.8137645000006,753.8137645000006,72,2.761,,,sub-031,35,85,700,bloc_loop.csv,2023-06-28_10h40.01.516,PainUncertainty,2022.2.5,143.90787593294348,
grave,moderee,stimuli/330Hz,stimuli/moderee,bloc_3,prob80hthp_12trials.xlsx,2,24,80,20,0,,,,,0,2,2,2,0,1,1,2,,,,,,,,4.4,753.8137645000006,758.215046700001,758.2150897800011,0.3050529000011011,758.6592574000006,758.6592574000006,n,0.7210779999986698,762.9240547000009,762.9240547000009,16,3.484,,,sub-031,35,85,700,bloc_loop.csv,2023-06-28_10h40.01.516,PainUncertainty,2022.2.5,143.90787593294348,
aigu,forte,stimuli/660Hz,stimuli/forte,bloc_3,prob80hthp_12trials.xlsx,2,24,80,20,0,,,,,0,2,2,2,0,2,2,7,,,,,,,,3.1,762.9240547000009,766.0290044000012,766.0288656800012,0.3049324000003253,766.4727316999997,766.4727316999997,m,0.6165063999978884,772.6118274,772.6118274,86,5.462,,,sub-031,35,85,700,bloc_loop.csv,2023-06-28_10h40.01.516,PainUncertainty,2022.2.5,143.90787593294348,
grave,moderee,stimuli/330Hz,stimuli/moderee,bloc_3,prob80hthp_12trials.xlsx,2,24,80,20,0,,,,,0,2,2,2,0,3,3,0,,,,,,,,4.5,772.6118274,777.1131172000005,777.1134339800001,0.30474169999979495,777.5572235,777.5572235,n,1.0145373999985168,783.1441790000008,783.1441790000008,15,4.525,,,sub-031,35,85,700,bloc_loop.csv,2023-06-28_10h40.01.516,PainUncertainty,2022.2.5,143.90787593294348,
aigu,forte,stimuli/660Hz,stimuli/forte,bloc_3,prob80hthp_12trials.xlsx,2,24,80,20,0,,,,,0,2,2,2,0,4,4,6,,,,,,,,3.7,783.1441790000008,786.8434582999998,786.8434527800009,0.3055762000003597,787.2923745999997,787.2923745999997,m,0.6863748999985546,792.4470120000005,792.4470120000005,80,4.415,,,sub-031,35,85,700,bloc_loop.csv,2023-06-28_10h40.01.516,PainUncertainty,2022.2.5,143.90787593294348,
aigu,forte,stimuli/660Hz,stimuli/forte,bloc_3,prob80hthp_12trials.xlsx,2,24,80,20,0,,,,,0,2,2,2,0,5,5,8,,,,,,,,4.4,792.4470120000005,796.8517714000009,796.8517388800001,0.3050593000007211,797.2958386999999,797.2958386999999,m,0.6752032999993389,802.6447653000014,802.6447653000014,84,4.615,,,sub-031,35,85,700,bloc_loop.csv,2023-06-28_10h40.01.516,PainUncertainty,2022.2.5,143.90787593294348,
aigu,moderee,stimuli/660Hz,stimuli/moderee,bloc_3,prob80hthp_12trials.xlsx,2,24,80,20,0,,,,,0,2,2,2,0,6,6,11,,,,,,,,4.4,802.6447653000014,807.0473223000008,807.04749378,0.29904439999882015,807.4897455000009,807.4897455000009,n,0.7094094999974914,811.5004425999996,811.5004425999996,11,3.24,,,sub-031,35,85,700,bloc_loop.csv,2023-06-28_10h40.01.516,PainUncertainty,2022.2.5,143.90787593294348,
grave,moderee,stimuli/330Hz,stimuli/moderee,bloc_3,prob80hthp_12trials.xlsx,2,24,80,20,0,,,,,0,2,2,2,0,7,7,4,,,,,,,,3.3,811.5004425999996,814.8054346999998,814.8054746799999,0.30541730000004463,815.2519229999998,815.2519229999998,n,0.6711651999994501,820.1635134000007,820.1635134000007,10,4.184,,,sub-031,35,85,700,bloc_loop.csv,2023-06-28_10h40.01.516,PainUncertainty,2022.2.5,143.90787593294348,
grave,forte,stimuli/330Hz,stimuli/forte,bloc_3,prob80hthp_12trials.xlsx,2,24,80,20,0,,,,,0,2,2,2,0,8,8,5,,,,,,,,3.4,820.1635134000007,823.5630391000013,823.5631351800012,0.30513479999899573,824.0071766000001,824.0071766000001,m,0.6645477999973082,827.4055566000006,827.4055566000006,82,2.677,,,sub-031,35,85,700,bloc_loop.csv,2023-06-28_10h40.01.516,PainUncertainty,2022.2.5,143.90787593294348,
grave,moderee,stimuli/330Hz,stimuli/moderee,bloc_3,prob80hthp_12trials.xlsx,2,24,80,20,0,,,,,0,2,2,2,0,9,9,1,,,,,,,,3.5,827.4055566000006,830.9112483000008,830.9113231800011,0.30488080000031914,831.3554898000002,831.3554898000002,n,0.6665492999982234,834.9184326000013,834.9184326000013,8,2.846,,,sub-031,35,85,700,bloc_loop.csv,2023-06-28_10h40.01.516,PainUncertainty,2022.2.5,143.90787593294348,
aigu,forte,stimuli/660Hz,stimuli/forte,bloc_3,prob80hthp_12trials.xlsx,2,24,80,20,0,,,,,0,2,2,2,0,10,10,9,,,,,,,,4.2,834.9184326000013,839.1206046999996,839.1206459800005,0.3050413999990269,839.5646436000006,839.5646436000006,m,0.7825235000000248,844.1887346000003,844.1887346000003,86,3.782,,,sub-031,35,85,700,bloc_loop.csv,2023-06-28_10h40.01.516,PainUncertainty,2022.2.5,143.90787593294348,
grave,moderee,stimuli/330Hz,stimuli/moderee,bloc_3,prob80hthp_12trials.xlsx,2,24,80,20,0,,,,,0,2,2,2,0,11,11,3,,,,,,,,3.2,844.1887346000003,847.3927476000008,847.393125380001,0.2995430999999371,847.8371683000005,847.8371683000005,n,0.6385619999982737,850.9805004999998,850.9805004999998,8,2.456,,,sub-031,35,85,700,bloc_loop.csv,2023-06-28_10h40.01.516,PainUncertainty,2022.2.5,143.90787593294348,
grave,moderee,stimuli/330Hz,stimuli/moderee,bloc_3,prob80hthp_12trials.xlsx,2,24,80,20,0,,,,,0,2,2,2,1,0,12,0,,,,,,,,3.7,850.9805004999998,854.6853663000002,854.6857050799999,0.30456990000129736,855.1363183000012,855.1363183000012,n,1.5421596999985923,860.3496004000008,860.3496004000008,11,3.607,,,sub-031,35,85,700,bloc_loop.csv,2023-06-28_10h40.01.516,PainUncertainty,2022.2.5,143.90787593294348,
aigu,forte,stimuli/660Hz,stimuli/forte,bloc_3,prob80hthp_12trials.xlsx,2,24,80,20,0,,,,,0,2,2,2,1,1,13,9,,,,,,,,4.6,860.3496004000008,864.9502298000007,864.9503583800006,0.2999971999997797,865.3945987000006,865.3945987000006,m,1.264585499999157,869.1713937000004,869.1713937000004,84,2.456,,,sub-031,35,85,700,bloc_loop.csv,2023-06-28_10h40.01.516,PainUncertainty,2022.2.5,143.90787593294348,
grave,moderee,stimuli/330Hz,stimuli/moderee,bloc_3,prob80hthp_12trials.xlsx,2,24,80,20,0,,,,,0,2,2,2,1,2,14,1,,,,,,,,5,869.1713937000004,874.1732069999998,874.1732317800006,0.3055577000013727,874.617645100001,874.617645100001,n,0.9401866999996855,879.5447074000003,879.5447074000003,9,3.928,,,sub-031,35,85,700,bloc_loop.csv,2023-06-28_10h40.01.516,PainUncertainty,2022.2.5,143.90787593294348,
aigu,moderee,stimuli/660Hz,stimuli/moderee,bloc_3,prob80hthp_12trials.xlsx,2,24,80,20,0,,,,,0,2,2,2,1,3,15,11,,,,,,,,3.9,879.5447074000003,883.4451752000004,883.4452064799998,0.30561669999951846,883.8942383000012,883.8942383000012,n,1.4742383999982849,889.7763421,889.7763421,14,4.35,,,sub-031,35,85,700,bloc_loop.csv,2023-06-28_10h40.01.516,PainUncertainty,2022.2.5,143.90787593294348,
aigu,forte,stimuli/660Hz,stimuli/forte,bloc_3,prob80hthp_12trials.xlsx,2,24,80,20,0,,,,,0,2,2,2,1,4,16,10,,,,,,,,4.7,889.7763421,894.4812447000004,894.4813725800004,0.3050586999997904,894.9254609,894.9254609,m,0.7923895999992965,898.5845699000001,898.5845699000001,87,2.802,,,sub-031,35,85,700,bloc_loop.csv,2023-06-28_10h40.01.516,PainUncertainty,2022.2.5,143.90787593294348,
aigu,forte,stimuli/660Hz,stimuli/forte,bloc_3,prob80hthp_12trials.xlsx,2,24,80,20,0,,,,,0,2,2,2,1,5,17,8,,,,,,,,4.2,898.5845699000001,902.7880808000009,902.7880967800002,0.3049295999990136,903.2320629000005,903.2320629000005,m,0.9042946999979904,909.933718100001,909.933718100001,85,5.734,,,sub-031,35,85,700,bloc_loop.csv,2023-06-28_10h40.01.516,PainUncertainty,2022.2.5,143.90787593294348,
grave,moderee,stimuli/330Hz,stimuli/moderee,bloc_3,prob80hthp_12trials.xlsx,2,24,80,20,0,,,,,0,2,2,2,1,6,18,4,,,,,,,,3,909.933718100001,912.9354655999996,912.9356522799999,0.30457839999871794,913.3793965000004,913.3793965000004,n,0.6039556999985507,917.9708358000007,917.9708358000007,10,3.934,,,sub-031,35,85,700,bloc_loop.csv,2023-06-28_10h40.01.516,PainUncertainty,2022.2.5,143.90787593294348,
aigu,forte,stimuli/660Hz,stimuli/forte,bloc_3,prob80hthp_12trials.xlsx,2,24,80,20,0,,,,,0,2,2,2,1,7,19,7,,,,,,,,4.6,917.9708358000007,922.5753003999998,922.5752257800004,0.30490569999892614,923.0190648999996,923.0190648999996,m,0.7380585999981122,927.0354726000005,927.0354726000005,83,3.212,,,sub-031,35,85,700,bloc_loop.csv,2023-06-28_10h40.01.516,PainUncertainty,2022.2.5,143.90787593294348,
aigu,forte,stimuli/660Hz,stimuli/forte,bloc_3,prob80hthp_12trials.xlsx,2,24,80,20,0,,,,,0,2,2,2,1,8,20,6,,,,,,,,3.9,927.0354726000005,930.9379753000012,930.9375527800012,0.30498959999931685,931.3815427999998,931.3815427999998,m,0.6662993999980245,935.9534390000008,935.9534390000008,84,3.845,,,sub-031,35,85,700,bloc_loop.csv,2023-06-28_10h40.01.516,PainUncertainty,2022.2.5,143.90787593294348,
grave,moderee,stimuli/330Hz,stimuli/moderee,bloc_3,prob80hthp_12trials.xlsx,2,24,80,20,0,,,,,0,2,2,2,1,9,21,2,,,,,,,,4.9,935.9534390000008,940.8548673000005,940.8547794800006,0.30542830000013055,941.2990178,941.2990178,n,0.6813604999988456,945.6240555000004,945.6240555000004,10,3.585,,,sub-031,35,85,700,bloc_loop.csv,2023-06-28_10h40.01.516,PainUncertainty,2022.2.5,143.90787593294348,
grave,moderee,stimuli/330Hz,stimuli/moderee,bloc_3,prob80hthp_12trials.xlsx,2,24,80,20,0,,,,,0,2,2,2,1,10,22,3,,,,,,,,3.6,945.6240555000004,949.2238502,949.22398548,0.3054456999998365,949.6725603000014,949.6725603000014,n,1.1382251999984874,954.4329158,954.4329158,7,3.561,,,sub-031,35,85,700,bloc_loop.csv,2023-06-28_10h40.01.516,PainUncertainty,2022.2.5,143.90787593294348,
grave,forte,stimuli/330Hz,stimuli/forte,bloc_3,prob80hthp_12trials.xlsx,2,24,80,20,0,,,,,0,2,2,2,1,11,23,5,,,,,,,,3.3,954.4329158,957.7321372000006,957.7321519799998,0.30531539999901725,958.1784894000011,958.1784894000011,m,0.9763386999984505,962.2966804999996,962.2966804999996,82,3.077,,,sub-031,35,85,700,bloc_loop.csv,2023-06-28_10h40.01.516,PainUncertainty,2022.2.5,143.90787593294348,
aigu,moderee,stimuli/660Hz,stimuli/moderee,bloc_4,prob50_50_4trials.xlsx,2,8,50,50,1,,,,,0,3,3,3,0,0,0,2,,,,,,,,3.8,962.2966804999996,966.1009298000008,966.1010679800011,0.3051240999993752,966.5488003999999,966.5488003999999,n,2.1232361999991554,972.3511866000008,972.3511866000008,10,3.615,,,sub-031,35,85,700,bloc_loop.csv,2023-06-28_10h40.01.516,PainUncertainty,2022.2.5,143.90787593294348,
grave,moderee,stimuli/330Hz,stimuli/moderee,bloc_4,prob50_50_4trials.xlsx,2,8,50,50,1,,,,,0,3,3,3,0,1,1,0,,,,,,,,3.7,972.3511866000008,976.0534339000005,976.0535229799998,0.3051656000006915,976.5022754000001,976.5022754000001,n,0.6221665999983088,981.0621181000006,981.0621181000006,10,3.881,,,sub-031,35,85,700,bloc_loop.csv,2023-06-28_10h40.01.516,PainUncertainty,2022.2.5,143.90787593294348,
aigu,forte,stimuli/660Hz,stimuli/forte,bloc_4,prob50_50_4trials.xlsx,2,8,50,50,1,,,,,0,3,3,3,0,2,2,3,,,,,,,,4.6,981.0621181000006,985.6657046,985.6657592800011,0.3048696000005293,986.1138621999999,986.1138621999999,m,0.6842818999975862,989.262705000001,989.262705000001,81,2.399,,,sub-031,35,85,700,bloc_loop.csv,2023-06-28_10h40.01.516,PainUncertainty,2022.2.5,143.90787593294348,
grave,forte,stimuli/330Hz,stimuli/forte,bloc_4,prob50_50_4trials.xlsx,2,8,50,50,1,,,,,0,3,3,3,0,3,3,1,,,,,,,,4.6,989.262705000001,993.8684317000007,993.86836288,0.3009304000006523,994.312774,994.312774,m,0.7304010999978345,997.6207969999996,997.6207969999996,77,2.51,,,sub-031,35,85,700,bloc_loop.csv,2023-06-28_10h40.01.516,PainUncertainty,2022.2.5,143.90787593294348,
aigu,forte,stimuli/660Hz,stimuli/forte,bloc_4,prob50_50_4trials.xlsx,2,8,50,50,1,,,,,0,3,3,3,1,0,4,3,,,,,,,,4.3,997.6207969999996,1001.925030800001,1001.925088680001,0.3052670000015496,1002.3731465000001,1002.3731465000001,m,0.9765936999992846,1007.7699150000008,1007.7699150000008,78,4.359,,,sub-031,35,85,700,bloc_loop.csv,2023-06-28_10h40.01.516,PainUncertainty,2022.2.5,143.90787593294348,
grave,moderee,stimuli/330Hz,stimuli/moderee,bloc_4,prob50_50_4trials.xlsx,2,8,50,50,1,,,,,0,3,3,3,1,1,5,0,,,,,,,,4.2,1007.7699150000008,1011.9743682000008,1011.9742129800006,0.30575409999983094,1012.4216778999998,1012.4216778999998,n,0.6856403999991016,1014.7069398000003,1014.7069398000003,10,1.538,,,sub-031,35,85,700,bloc_loop.csv,2023-06-28_10h40.01.516,PainUncertainty,2022.2.5,143.90787593294348,
grave,forte,stimuli/330Hz,stimuli/forte,bloc_4,prob50_50_4trials.xlsx,2,8,50,50,1,,,,,0,3,3,3,1,2,6,1,,,,,,,,4.4,1014.7069398000003,1019.1089123000002,1019.1075985800007,0.3050820999997086,1019.5553097000011,1019.5553097000011,m,1.0296340999993845,1022.8126147000003,1022.8126147000003,79,2.164,,,sub-031,35,85,700,bloc_loop.csv,2023-06-28_10h40.01.516,PainUncertainty,2022.2.5,143.90787593294348,
aigu,moderee,stimuli/660Hz,stimuli/moderee,bloc_4,prob50_50_4trials.xlsx,2,8,50,50,1,,,,,0,3,3,3,1,3,7,2,,,,,,,,3.2,1022.8126147000003,1026.0179019000007,1026.0178681799998,0.29914539999845147,1026.4588750000003,1026.4588750000003,n,1.4099066999988281,1032.9362761000011,1032.9362761000011,12,3.033,,,sub-031,35,85,700,bloc_loop.csv,2023-06-28_10h40.01.516,PainUncertainty,2022.2.5,143.90787593294348,
,,,,bloc_4,prob50_50_4trials.xlsx,2,8,50,50,1,,,,,0,3,3,3,,,,,0,0,0,0,,,,,,,,,,,,,,,,,1032.9362761000011,1066.7864983,sub-031,35,85,700,bloc_loop.csv,2023-06-28_10h40.01.516,PainUncertainty,2022.2.5,143.90787593294348,
grave,forte,stimuli/330Hz,stimuli/forte,bloc_5,prob20hthp_12trials.xlsx,2,24,20,80,0,,,,,0,4,4,4,0,0,0,4,,,,,,,,4.7,1068.7674387000006,1073.4678332000003,1073.4678490800006,0.3050526999995782,1073.9126413000013,1073.9126413000013,m,0.9735326999998506,1078.371815300001,1078.371815300001,82,3.376,,,sub-031,35,85,700,bloc_loop.csv,2023-06-28_10h40.01.516,PainUncertainty,2022.2.5,143.90787593294348,
grave,forte,stimuli/330Hz,stimuli/forte,bloc_5,prob20hthp_12trials.xlsx,2,24,20,80,0,,,,,0,4,4,4,0,1,1,1,,,,,,,,4.1,1078.371815300001,1082.4762198000008,1082.4762456800008,0.3050846999994974,1082.9239840999999,1082.9239840999999,m,1.013899699999456,1086.5876191000007,1086.5876191000007,82,2.588,,,sub-031,35,85,700,bloc_loop.csv,2023-06-28_10h40.01.516,PainUncertainty,2022.2.5,143.90787593294348,
grave,moderee,stimuli/330Hz,stimuli/moderee,bloc_5,prob20hthp_12trials.xlsx,2,24,20,80,0,,,,,0,4,4,4,0,2,2,5,,,,,,,,3.9,1086.5876191000007,1090.4910836,1090.49230798,0.3037836999992578,1090.9349660000007,1090.9349660000007,n,1.0709553999986383,1096.1626765,1096.1626765,10,4.095,,,sub-031,35,85,700,bloc_loop.csv,2023-06-28_10h40.01.516,PainUncertainty,2022.2.5,143.90787593294348,
aigu,moderee,stimuli/660Hz,stimuli/moderee,bloc_5,prob20hthp_12trials.xlsx,2,24,20,80,0,,,,,0,4,4,4,0,3,3,9,,,,,,,,3.2,1096.1626765,1099.3666715,1099.3667162800002,0.30507159999979194,1099.8113520000006,1099.8113520000006,n,1.038747999999032,1103.0826877,1103.0826877,13,2.17,,,sub-031,35,85,700,bloc_loop.csv,2023-06-28_10h40.01.516,PainUncertainty,2022.2.5,143.90787593294348,
grave,forte,stimuli/330Hz,stimuli/forte,bloc_5,prob20hthp_12trials.xlsx,2,24,20,80,0,,,,,0,4,4,4,0,4,4,2,,,,,,,,3.3,1103.0826877,1106.3884350000008,1106.38852168,0.3050726000001305,1106.8331820000003,1106.8331820000003,m,0.6432398999986617,1110.6592939000002,1110.6592939000002,85,3.129,,,sub-031,35,85,700,bloc_loop.csv,2023-06-28_10h40.01.516,PainUncertainty,2022.2.5,143.90787593294348,
aigu,moderee,stimuli/660Hz,stimuli/moderee,bloc_5,prob20hthp_12trials.xlsx,2,24,20,80,0,,,,,0,4,4,4,0,5,5,7,,,,,,,,4.1,1110.6592939000002,1114.7643684000013,1114.7644581800005,0.3053399999989779,1115.2131374,1115.2131374,n,0.6114072000000306,1119.7556393000013,1119.7556393000013,10,3.881,,,sub-031,35,85,700,bloc_loop.csv,2023-06-28_10h40.01.516,PainUncertainty,2022.2.5,143.90787593294348,
grave,forte,stimuli/330Hz,stimuli/forte,bloc_5,prob20hthp_12trials.xlsx,2,24,20,80,0,,,,,0,4,4,4,0,6,6,0,,,,,,,,4.6,1119.7556393000013,1124.3558117000011,1124.3558752800009,0.3050144000008004,1124.8001229000001,1124.8001229000001,m,0.7137374999983876,1129.7126340000013,1129.7126340000013,85,4.144,,,sub-031,35,85,700,bloc_loop.csv,2023-06-28_10h40.01.516,PainUncertainty,2022.2.5,143.90787593294348,
aigu,moderee,stimuli/660Hz,stimuli/moderee,bloc_5,prob20hthp_12trials.xlsx,2,24,20,80,0,,,,,0,4,4,4,0,7,7,6,,,,,,,,4.8,1129.7126340000013,1134.5166420000005,1134.5166862800006,0.30514600000060454,1134.9609154000009,1134.9609154000009,n,0.6236373999981879,1139.351156300001,1139.351156300001,11,3.711,,,sub-031,35,85,700,bloc_loop.csv,2023-06-28_10h40.01.516,PainUncertainty,2022.2.5,143.90787593294348,
aigu,forte,stimuli/660Hz,stimuli/forte,bloc_5,prob20hthp_12trials.xlsx,2,24,20,80,0,,,,,0,4,4,4,0,8,8,11,,,,,,,,4.1,1139.351156300001,1143.4553080000005,1143.4553519800002,0.3051526000017475,1143.8995055000014,1143.8995055000014,m,0.7083518999988883,1147.9024023000002,1147.9024023000002,85,3.23,,,sub-031,35,85,700,bloc_loop.csv,2023-06-28_10h40.01.516,PainUncertainty,2022.2.5,143.90787593294348,
aigu,moderee,stimuli/660Hz,stimuli/moderee,bloc_5,prob20hthp_12trials.xlsx,2,24,20,80,0,,,,,0,4,4,4,0,9,9,10,,,,,,,,4.9,1147.9024023000002,1152.8042001000013,1152.80426618,0.30486740000014834,1153.2523331000011,1153.2523331000011,n,1.0980736999972578,1156.661984800001,1156.661984800001,7,2.252,,,sub-031,35,85,700,bloc_loop.csv,2023-06-28_10h40.01.516,PainUncertainty,2022.2.5,143.90787593294348,
grave,forte,stimuli/330Hz,stimuli/forte,bloc_5,prob20hthp_12trials.xlsx,2,24,20,80,0,,,,,0,4,4,4,0,10,10,3,,,,,,,,3.3,1156.661984800001,1159.9647822000006,1159.9650479800011,0.3044637999992119,1160.4088090000005,1160.4088090000005,m,0.6166166999992129,1164.3343173000012,1164.3343173000012,74,3.248,,,sub-031,35,85,700,bloc_loop.csv,2023-06-28_10h40.01.516,PainUncertainty,2022.2.5,143.90787593294348,
aigu,moderee,stimuli/660Hz,stimuli/moderee,bloc_5,prob20hthp_12trials.xlsx,2,24,20,80,0,,,,,0,4,4,4,0,11,11,8,,,,,,,,3.2,1164.3343173000012,1167.534624,1167.5345942800004,0.3050448000012693,1167.9786559000004,1167.9786559000004,n,0.8689021999980469,1171.734734400001,1171.734734400001,6,2.831,,,sub-031,35,85,700,bloc_loop.csv,2023-06-28_10h40.01.516,PainUncertainty,2022.2.5,143.90787593294348,
aigu,moderee,stimuli/660Hz,stimuli/moderee,bloc_5,prob20hthp_12trials.xlsx,2,24,20,80,0,,,,,0,4,4,4,1,0,12,9,,,,,,,,4,1171.734734400001,1175.7370487999997,1175.737110680001,0.30558080000082555,1176.1858522000002,1176.1858522000002,n,0.6394613999982539,1179.0243761000002,1179.0243761000002,8,2.144,,,sub-031,35,85,700,bloc_loop.csv,2023-06-28_10h40.01.516,PainUncertainty,2022.2.5,143.90787593294348,
aigu,moderee,stimuli/660Hz,stimuli/moderee,bloc_5,prob20hthp_12trials.xlsx,2,24,20,80,0,,,,,0,4,4,4,1,1,13,7,,,,,,,,5,1179.0243761000002,1184.0294852000006,1184.0295681800008,0.3050444000000425,1184.4737631000007,1184.4737631000007,n,0.6281784999991942,1188.5824967999997,1188.5824967999997,8,3.413,,,sub-031,35,85,700,bloc_loop.csv,2023-06-28_10h40.01.516,PainUncertainty,2022.2.5,143.90787593294348,
grave,forte,stimuli/330Hz,stimuli/forte,bloc_5,prob20hthp_12trials.xlsx,2,24,20,80,0,,,,,0,4,4,4,1,2,14,3,,,,,,,,3.4,1188.5824967999997,1191.9818425000012,1191.9819594800001,0.3050118000010116,1192.4260704000008,1192.4260704000008,m,0.9655280999977549,1196.9577678000005,1196.9577678000005,80,3.519,,,sub-031,35,85,700,bloc_loop.csv,2023-06-28_10h40.01.516,PainUncertainty,2022.2.5,143.90787593294348,
grave,forte,stimuli/330Hz,stimuli/forte,bloc_5,prob20hthp_12trials.xlsx,2,24,20,80,0,,,,,0,4,4,4,1,3,15,2,,,,,,,,4.3,1196.9577678000005,1201.2612446000003,1201.26107358,0.3053153000000748,1201.708440800001,1201.708440800001,m,0.7533856999998534,1205.3827398000012,1205.3827398000012,77,2.858,,,sub-031,35,85,700,bloc_loop.csv,2023-06-28_10h40.01.516,PainUncertainty,2022.2.5,143.90787593294348,
aigu,moderee,stimuli/660Hz,stimuli/moderee,bloc_5,prob20hthp_12trials.xlsx,2,24,20,80,0,,,,,0,4,4,4,1,4,16,6,,,,,,,,3.8,1205.3827398000012,1209.1854944000006,1209.1852628799998,0.30518169999959355,1209.6367771000005,1209.6367771000005,n,1.1201403999984905,1214.2369254000005,1214.2369254000005,6,3.422,,,sub-031,35,85,700,bloc_loop.csv,2023-06-28_10h40.01.516,PainUncertainty,2022.2.5,143.90787593294348,
aigu,forte,stimuli/660Hz,stimuli/forte,bloc_5,prob20hthp_12trials.xlsx,2,24,20,80,0,,,,,0,4,4,4,1,5,17,11,,,,,,,,3.5,1214.2369254000005,1217.741790600001,1217.7418143799996,0.30519809999896097,1218.1859384,1218.1859384,m,1.4316416999972716,1223.1081848000013,1223.1081848000013,85,3.434,,,sub-031,35,85,700,bloc_loop.csv,2023-06-28_10h40.01.516,PainUncertainty,2022.2.5,143.90787593294348,
grave,moderee,stimuli/330Hz,stimuli/moderee,bloc_5,prob20hthp_12trials.xlsx,2,24,20,80,0,,,,,0,4,4,4,1,6,18,5,,,,,,,,3.9,1223.1081848000013,1227.013840900001,1227.0138719800007,0.3050602000002982,1227.4607293999998,1227.4607293999998,n,0.8756988999994064,1231.9801091000008,1231.9801091000008,7,3.581,,,sub-031,35,85,700,bloc_loop.csv,2023-06-28_10h40.01.516,PainUncertainty,2022.2.5,143.90787593294348,
grave,forte,stimuli/330Hz,stimuli/forte,bloc_5,prob20hthp_12trials.xlsx,2,24,20,80,0,,,,,0,4,4,4,1,7,19,4,,,,,,,,4.5,1231.9801091000008,1236.4802830999997,1236.48021848,0.3051180000002205,1236.9243050000005,1236.9243050000005,m,0.7454383999993297,1239.8449839000004,1239.8449839000004,84,2.115,,,sub-031,35,85,700,bloc_loop.csv,2023-06-28_10h40.01.516,PainUncertainty,2022.2.5,143.90787593294348,
aigu,moderee,stimuli/660Hz,stimuli/moderee,bloc_5,prob20hthp_12trials.xlsx,2,24,20,80,0,,,,,0,4,4,4,1,8,20,10,,,,,,,,3.1,1239.8449839000004,1242.9461920000012,1242.9462535800003,0.3056288999996468,1243.394750200001,1243.394750200001,n,1.1067920999994385,1249.2420565000011,1249.2420565000011,13,4.684,,,sub-031,35,85,700,bloc_loop.csv,2023-06-28_10h40.01.516,PainUncertainty,2022.2.5,143.90787593294348,
grave,forte,stimuli/330Hz,stimuli/forte,bloc_5,prob20hthp_12trials.xlsx,2,24,20,80,0,,,,,0,4,4,4,1,9,21,0,,,,,,,,5,1249.2420565000011,1254.2466280000008,1254.2467967800012,0.29992029999993974,1254.6908088,1254.6908088,m,0.6935215999983484,1257.9387373999998,1257.9387373999998,76,2.491,,,sub-031,35,85,700,bloc_loop.csv,2023-06-28_10h40.01.516,PainUncertainty,2022.2.5,143.90787593294348,
grave,forte,stimuli/330Hz,stimuli/forte,bloc_5,prob20hthp_12trials.xlsx,2,24,20,80,0,,,,,0,4,4,4,1,10,22,1,,,,,,,,3,1257.9387373999998,1260.941523200001,1260.9416139800005,0.30490069999905245,1261.392991300001,1261.392991300001,m,0.7132323999994696,1264.4761471000002,1264.4761471000002,84,2.31,,,sub-031,35,85,700,bloc_loop.csv,2023-06-28_10h40.01.516,PainUncertainty,2022.2.5,143.90787593294348,
aigu,moderee,stimuli/660Hz,stimuli/moderee,bloc_5,prob20hthp_12trials.xlsx,2,24,20,80,0,,,,,0,4,4,4,1,11,23,8,,,,,,,,5,1264.4761471000002,1269.4771793,1269.477255480001,0.30518020000090473,1269.921433200001,1269.921433200001,n,0.7050202999998874,1275.631962200001,1275.631962200001,14,4.942,,,sub-031,35,85,700,bloc_loop.csv,2023-06-28_10h40.01.516,PainUncertainty,2022.2.5,143.90787593294348,
aigu,moderee,stimuli/660Hz,stimuli/moderee,bloc_6,prob50_50_4trials.xlsx,2,8,50,50,0,,,,,0,5,5,5,0,0,0,2,,,,,,,,5,1275.631962200001,1280.6316745000004,1280.6317673800013,0.3047487000003457,1281.0787297000006,1281.0787297000006,n,0.6041102999988652,1284.9351660000011,1284.9351660000011,13,3.2,,,sub-031,35,85,700,bloc_loop.csv,2023-06-28_10h40.01.516,PainUncertainty,2022.2.5,143.90787593294348,
aigu,forte,stimuli/660Hz,stimuli/forte,bloc_6,prob50_50_4trials.xlsx,2,8,50,50,0,,,,,0,5,5,5,0,1,1,3,,,,,,,,4.3,1284.9351660000011,1289.2365375999998,1289.2365512799997,0.30515030000060506,1289.6812129999998,1289.6812129999998,m,0.7431344999986322,1294.0461949,1294.0461949,86,3.567,,,sub-031,35,85,700,bloc_loop.csv,2023-06-28_10h40.01.516,PainUncertainty,2022.2.5,143.90787593294348,
grave,forte,stimuli/330Hz,stimuli/forte,bloc_6,prob50_50_4trials.xlsx,2,8,50,50,0,,,,,0,5,5,5,0,2,2,1,,,,,,,,4.7,1294.0461949,1298.7517504000007,1298.7514974800006,0.3055497999994259,1299.2006469000007,1299.2006469000007,m,1.2259992999970564,1306.1297473000013,1306.1297473000013,82,5.644,,,sub-031,35,85,700,bloc_loop.csv,2023-06-28_10h40.01.516,PainUncertainty,2022.2.5,143.90787593294348,
grave,moderee,stimuli/330Hz,stimuli/moderee,bloc_6,prob50_50_4trials.xlsx,2,8,50,50,0,,,,,0,5,5,5,0,3,3,0,,,,,,,,3.6,1306.1297473000013,1309.7320012,1309.732122280001,0.3051298999998835,1310.1802767999998,1310.1802767999998,n,1.112764799998331,1315.6881193000008,1315.6881193000008,10,4.332,,,sub-031,35,85,700,bloc_loop.csv,2023-06-28_10h40.01.516,PainUncertainty,2022.2.5,143.90787593294348,
aigu,moderee,stimuli/660Hz,stimuli/moderee,bloc_6,prob50_50_4trials.xlsx,2,8,50,50,0,,,,,0,5,5,5,1,0,4,2,,,,,,,,3.6,1315.6881193000008,1319.288779300001,1319.28855518,0.30521329999828595,1319.7328347000002,1319.7328347000002,n,1.101836199999525,1324.8323001999997,1324.8323001999997,10,3.942,,,sub-031,35,85,700,bloc_loop.csv,2023-06-28_10h40.01.516,PainUncertainty,2022.2.5,143.90787593294348,
grave,moderee,stimuli/330Hz,stimuli/moderee,bloc_6,prob50_50_4trials.xlsx,2,8,50,50,0,,,,,0,5,5,5,1,1,5,0,,,,,,,,4.5,1324.8323001999997,1329.3318708000006,1329.3337225799996,0.30322829999931855,1329.7758024000013,1329.7758024000013,n,1.9574714999980642,1336.0527349000004,1336.0527349000004,8,4.268,,,sub-031,35,85,700,bloc_loop.csv,2023-06-28_10h40.01.516,PainUncertainty,2022.2.5,143.90787593294348,
aigu,forte,stimuli/660Hz,stimuli/forte,bloc_6,prob50_50_4trials.xlsx,2,8,50,50,0,,,,,0,5,5,5,1,2,6,3,,,,,,,,3.4,1336.0527349000004,1339.4577750000008,1339.4578024800003,0.30485589999989315,1339.9022772999997,1339.9022772999997,m,0.7644067999990511,1345.6740921,1345.6740921,81,4.943,,,sub-031,35,85,700,bloc_loop.csv,2023-06-28_10h40.01.516,PainUncertainty,2022.2.5,143.90787593294348,
grave,forte,stimuli/330Hz,stimuli/forte,bloc_6,prob50_50_4trials.xlsx,2,8,50,50,0,,,,,0,5,5,5,1,3,7,1,,,,,,,,3.8,1345.6740921,1349.4796958000006,1349.4799270800004,0.30489090000082797,1349.9238776000002,1349.9238776000002,m,1.0468526999975438,1355.0730024000004,1355.0730024000004,77,4.038,,,sub-031,35,85,700,bloc_loop.csv,2023-06-28_10h40.01.516,PainUncertainty,2022.2.5,143.90787593294348,
grave,moderee,stimuli/330Hz,stimuli/moderee,bloc_7,prob80hthp_12trials.xlsx,2,24,80,20,1,,,,,0,6,6,6,0,0,0,2,,,,,,,,4.7,1355.0730024000004,1359.7725312000002,1359.7726343799995,0.30507030000080704,1360.2167986000004,1360.2167986000004,n,0.6270298999988881,1364.3122120999997,1364.3122120999997,10,3.406,,,sub-031,35,85,700,bloc_loop.csv,2023-06-28_10h40.01.516,PainUncertainty,2022.2.5,143.90787593294348,
grave,moderee,stimuli/330Hz,stimuli/moderee,bloc_7,prob80hthp_12trials.xlsx,2,24,80,20,1,,,,,0,6,6,6,0,1,1,4,,,,,,,,3.5,1364.3122120999997,1367.815159400001,1367.8152963800012,0.30557059999955527,1368.2638994000008,1368.2638994000008,n,0.659883099999206,1371.1543573,1371.1543573,10,2.167,,,sub-031,35,85,700,bloc_loop.csv,2023-06-28_10h40.01.516,PainUncertainty,2022.2.5,143.90787593294348,
aigu,forte,stimuli/660Hz,stimuli/forte,bloc_7,prob80hthp_12trials.xlsx,2,24,80,20,1,,,,,0,6,6,6,0,2,2,10,,,,,,,,3.2,1371.1543573,1374.3577674000007,1374.3576796799998,0.29947440000069037,1374.7965371999999,1374.7965371999999,m,0.6368462999980693,1377.8339928000005,1377.8339928000005,83,2.344,,,sub-031,35,85,700,bloc_loop.csv,2023-06-28_10h40.01.516,PainUncertainty,2022.2.5,143.90787593294348,
aigu,moderee,stimuli/660Hz,stimuli/moderee,bloc_7,prob80hthp_12trials.xlsx,2,24,80,20,1,,,,,0,6,6,6,0,3,3,11,,,,,,,,3.4,1377.8339928000005,1381.2335072000005,1381.23365818,0.3049520999993547,1381.6782543000008,1381.6782543000008,n,0.8098826999994344,1385.0921311000002,1385.0921311000002,12,2.547,,,sub-031,35,85,700,bloc_loop.csv,2023-06-28_10h40.01.516,PainUncertainty,2022.2.5,143.90787593294348,
aigu,forte,stimuli/660Hz,stimuli/forte,bloc_7,prob80hthp_12trials.xlsx,2,24,80,20,1,,,,,0,6,6,6,0,4,4,9,,,,,,,,3.9,1385.0921311000002,1388.9914343,1388.9916022799998,0.30475420000038866,1389.4355305999998,1389.4355305999998,m,0.7042685999986134,1394.0572528000012,1394.0572528000012,81,3.864,,,sub-031,35,85,700,bloc_loop.csv,2023-06-28_10h40.01.516,PainUncertainty,2022.2.5,143.90787593294348,
aigu,forte,stimuli/660Hz,stimuli/forte,bloc_7,prob80hthp_12trials.xlsx,2,24,80,20,1,,,,,0,6,6,6,0,5,5,7,,,,,,,,4.7,1394.0572528000012,1398.7570715000002,1398.7569778799998,0.3050130999999965,1399.202712100001,1399.202712100001,m,1.7968009999985952,1404.4478001999996,1404.4478001999996,80,3.386,,,sub-031,35,85,700,bloc_loop.csv,2023-06-28_10h40.01.516,PainUncertainty,2022.2.5,143.90787593294348,
grave,moderee,stimuli/330Hz,stimuli/moderee,bloc_7,prob80hthp_12trials.xlsx,2,24,80,20,1,,,,,0,6,6,6,0,6,6,3,,,,,,,,4.8,1404.4478001999996,1409.2513244000002,1409.2514295800001,0.29978400000072725,1409.696591,1409.696591,n,1.0621239999982208,1413.3360369000002,1413.3360369000002,11,2.461,,,sub-031,35,85,700,bloc_loop.csv,2023-06-28_10h40.01.516,PainUncertainty,2022.2.5,143.90787593294348,
grave,moderee,stimuli/330Hz,stimuli/moderee,bloc_7,prob80hthp_12trials.xlsx,2,24,80,20,1,,,,,0,6,6,6,0,7,7,0,,,,,,,,4.2,1413.3360369000002,1417.5365631000004,1417.5365576800004,0.3051307000005181,1417.9807407999997,1417.9807407999997,n,0.6587556999984372,1420.0491579000009,1420.0491579000009,7,1.348,,,sub-031,35,85,700,bloc_loop.csv,2023-06-28_10h40.01.516,PainUncertainty,2022.2.5,143.90787593294348,
grave,forte,stimuli/330Hz,stimuli/forte,bloc_7,prob80hthp_12trials.xlsx,2,24,80,20,1,,,,,0,6,6,6,0,8,8,5,,,,,,,,3.4,1420.0491579000009,1423.4537576000002,1423.45397598,0.3050660000008065,1423.8982737000006,1423.8982737000006,m,0.663857999999891,1428.4075427000007,1428.4075427000007,76,3.789,,,sub-031,35,85,700,bloc_loop.csv,2023-06-28_10h40.01.516,PainUncertainty,2022.2.5,143.90787593294348,
aigu,forte,stimuli/660Hz,stimuli/forte,bloc_7,prob80hthp_12trials.xlsx,2,24,80,20,1,,,,,0,6,6,6,0,9,9,8,,,,,,,,4.2,1428.4075427000007,1432.6076192,1432.607818380001,0.30514530000073137,1433.0519289000003,1433.0519289000003,m,0.7110836999981984,1437.0866852,1437.0866852,84,3.27,,,sub-031,35,85,700,bloc_loop.csv,2023-06-28_10h40.01.516,PainUncertainty,2022.2.5,143.90787593294348,
grave,moderee,stimuli/330Hz,stimuli/moderee,bloc_7,prob80hthp_12trials.xlsx,2,24,80,20,1,,,,,0,6,6,6,0,10,10,1,,,,,,,,3.8,1437.0866852,1440.8863469999997,1440.8864677800002,0.3052129999996396,1441.3349009000012,1441.3349009000012,n,1.5247062999987975,1446.9330105999998,1446.9330105999998,6,4.019,,,sub-031,35,85,700,bloc_loop.csv,2023-06-28_10h40.01.516,PainUncertainty,2022.2.5,143.90787593294348,
aigu,forte,stimuli/660Hz,stimuli/forte,bloc_7,prob80hthp_12trials.xlsx,2,24,80,20,1,,,,,0,6,6,6,0,11,11,6,,,,,,,,4.6,1446.9330105999998,1451.533461500001,1451.53357538,0.3048711999999796,1451.9776846000004,1451.9776846000004,m,0.6112775999972655,1456.2363870000008,1456.2363870000008,82,3.587,,,sub-031,35,85,700,bloc_loop.csv,2023-06-28_10h40.01.516,PainUncertainty,2022.2.5,143.90787593294348,
grave,moderee,stimuli/330Hz,stimuli/moderee,bloc_7,prob80hthp_12trials.xlsx,2,24,80,20,1,,,,,0,6,6,6,1,0,12,2,,,,,,,,3.2,1456.2363870000008,1459.4371711000003,1459.4372001800011,0.3049727999987226,1459.8814041000005,1459.8814041000005,n,0.6790264999981446,1465.0277845,1465.0277845,8,4.414,,,sub-031,35,85,700,bloc_loop.csv,2023-06-28_10h40.01.516,PainUncertainty,2022.2.5,143.90787593294348,
aigu,forte,stimuli/660Hz,stimuli/forte,bloc_7,prob80hthp_12trials.xlsx,2,24,80,20,1,,,,,0,6,6,6,1,1,13,9,,,,,,,,4.9,1465.0277845,1469.9315079999997,1469.9316265799998,0.30499480000071344,1470.3781274000012,1470.3781274000012,m,1.069336899998234,1474.8602279000006,1474.8602279000006,85,3.347,,,sub-031,35,85,700,bloc_loop.csv,2023-06-28_10h40.01.516,PainUncertainty,2022.2.5,143.90787593294348,
aigu,forte,stimuli/660Hz,stimuli/forte,bloc_7,prob80hthp_12trials.xlsx,2,24,80,20,1,,,,,0,6,6,6,1,2,14,7,,,,,,,,4.5,1474.8602279000006,1479.3632515000008,1479.3631948800003,0.3050545999994938,1479.8075938000002,1479.8075938000002,m,0.741132999999536,1486.8306302,1486.8306302,81,6.226,,,sub-031,35,85,700,bloc_loop.csv,2023-06-28_10h40.01.516,PainUncertainty,2022.2.5,143.90787593294348,
aigu,forte,stimuli/660Hz,stimuli/forte,bloc_7,prob80hthp_12trials.xlsx,2,24,80,20,1,,,,,0,6,6,6,1,3,15,10,,,,,,,,3.4,1486.8306302,1490.2325946,1490.2325790799996,0.304805399999168,1490.6767271000008,1490.6767271000008,m,1.5088437999984308,1495.0147049000007,1495.0147049000007,78,2.768,,,sub-031,35,85,700,bloc_loop.csv,2023-06-28_10h40.01.516,PainUncertainty,2022.2.5,143.90787593294348,
grave,forte,stimuli/330Hz,stimuli/forte,bloc_7,prob80hthp_12trials.xlsx,2,24,80,20,1,,,,,0,6,6,6,1,4,16,5,,,,,,,,3.9,1495.0147049000007,1498.9144545,1498.9145852800002,0.30491520000032324,1499.3583295000008,1499.3583295000008,m,0.6790823999981512,1502.4813011000006,1502.4813011000006,74,2.379,,,sub-031,35,85,700,bloc_loop.csv,2023-06-28_10h40.01.516,PainUncertainty,2022.2.5,143.90787593294348,
grave,moderee,stimuli/330Hz,stimuli/moderee,bloc_7,prob80hthp_12trials.xlsx,2,24,80,20,1,,,,,0,6,6,6,1,5,17,0,,,,,,,,3.5,1502.4813011000006,1505.9844195000005,1505.98440828,0.30498140000054264,1506.4329873000006,1506.4329873000006,n,0.662667299997338,1511.2225257999999,1511.2225257999999,9,4.074,,,sub-031,35,85,700,bloc_loop.csv,2023-06-28_10h40.01.516,PainUncertainty,2022.2.5,143.90787593294348,
aigu,forte,stimuli/660Hz,stimuli/forte,bloc_7,prob80hthp_12trials.xlsx,2,24,80,20,1,,,,,0,6,6,6,1,6,18,6,,,,,,,,4.6,1511.2225257999999,1515.8259703000003,1515.8260214800002,0.29962650000015856,1516.2703700000002,1516.2703700000002,m,0.6250359999976354,1520.9431634000011,1520.9431634000011,82,3.982,,,sub-031,35,85,700,bloc_loop.csv,2023-06-28_10h40.01.516,PainUncertainty,2022.2.5,143.90787593294348,
aigu,forte,stimuli/660Hz,stimuli/forte,bloc_7,prob80hthp_12trials.xlsx,2,24,80,20,1,,,,,0,6,6,6,1,7,19,8,,,,,,,,3,1520.9431634000011,1523.9450386999997,1523.9450593800002,0.30547439999827475,1524.3896304999998,1524.3896304999998,m,0.6611719999982597,1528.7742693,1528.7742693,85,3.664,,,sub-031,35,85,700,bloc_loop.csv,2023-06-28_10h40.01.516,PainUncertainty,2022.2.5,143.90787593294348,
aigu,moderee,stimuli/660Hz,stimuli/moderee,bloc_7,prob80hthp_12trials.xlsx,2,24,80,20,1,,,,,0,6,6,6,1,8,20,11,,,,,,,,3.7,1528.7742693,1532.4737980999998,1532.473735980001,0.3052179000005708,1532.9181308999996,1532.9181308999996,n,1.2183705999996164,1538.1892555000013,1538.1892555000013,12,3.998,,,sub-031,35,85,700,bloc_loop.csv,2023-06-28_10h40.01.516,PainUncertainty,2022.2.5,143.90787593294348,
grave,moderee,stimuli/330Hz,stimuli/moderee,bloc_7,prob80hthp_12trials.xlsx,2,24,80,20,1,,,,,0,6,6,6,1,9,21,3,,,,,,,,5,1538.1892555000013,1543.1902072000012,1543.1902785800003,0.3049907999993593,1543.6343890000007,1543.6343890000007,n,0.7100553999989643,1547.0112669999999,1547.0112669999999,7,2.61,,,sub-031,35,85,700,bloc_loop.csv,2023-06-28_10h40.01.516,PainUncertainty,2022.2.5,143.90787593294348,
grave,moderee,stimuli/330Hz,stimuli/moderee,bloc_7,prob80hthp_12trials.xlsx,2,24,80,20,1,,,,,0,6,6,6,1,10,22,1,,,,,,,,5,1547.0112669999999,1552.0106839,1552.0108595800002,0.3049747999993997,1552.455494400001,1552.455494400001,n,0.6267137999984698,1556.568792600001,1556.568792600001,8,3.432,,,sub-031,35,85,700,bloc_loop.csv,2023-06-28_10h40.01.516,PainUncertainty,2022.2.5,143.90787593294348,
grave,moderee,stimuli/330Hz,stimuli/moderee,bloc_7,prob80hthp_12trials.xlsx,2,24,80,20,1,,,,,0,6,6,6,1,11,23,4,,,,,,,,3.3,1556.568792600001,1559.8726793000005,1559.872809380001,0.3051684000001842,1560.3169725000007,1560.3169725000007,n,0.7862523999992845,1569.1056141999998,1569.1056141999998,8,5.97,,,sub-031,35,85,700,bloc_loop.csv,2023-06-28_10h40.01.516,PainUncertainty,2022.2.5,143.90787593294348,
,,,,bloc_7,prob80hthp_12trials.xlsx,2,24,80,20,1,,,,,0,6,6,6,,,,,0,0,0,0,,,,,,,,,,,,,,,,,1569.1056141999998,1731.8514118000003,sub-031,35,85,700,bloc_loop.csv,2023-06-28_10h40.01.516,PainUncertainty,2022.2.5,143.90787593294348,
aigu,moderee,stimuli/660Hz,stimuli/moderee,bloc_8,prob50_50_4trials.xlsx,3,12,50,50,0,,,,,0,7,7,7,0,0,0,2,,,,,,,,4,1733.1969592000005,1737.1996302000007,1737.1998736800006,0.3007416000000376,1737.6460127999999,1737.6460127999999,n,1.0433283999973355,1742.2094443000005,1742.2094443000005,10,3.469,,,sub-031,35,85,700,bloc_loop.csv,2023-06-28_10h40.01.516,PainUncertainty,2022.2.5,143.90787593294348,
grave,moderee,stimuli/330Hz,stimuli/moderee,bloc_8,prob50_50_4trials.xlsx,3,12,50,50,0,,,,,0,7,7,7,0,1,1,0,,,,,,,,4.3,1742.2094443000005,1746.5128691999998,1746.5130690800006,0.305130900000222,1746.9594194000001,1746.9594194000001,n,0.6156464999985474,1750.9047102000004,1750.9047102000004,7,3.268,,,sub-031,35,85,700,bloc_loop.csv,2023-06-28_10h40.01.516,PainUncertainty,2022.2.5,143.90787593294348,
aigu,forte,stimuli/660Hz,stimuli/forte,bloc_8,prob50_50_4trials.xlsx,3,12,50,50,0,,,,,0,7,7,7,0,2,2,3,,,,,,,,4.8,1750.9047102000004,1755.7091115000003,1755.70918558,0.30008689999885974,1756.1532893000003,1756.1532893000003,m,0.910304899998664,1760.3372650000001,1760.3372650000001,82,3.211,,,sub-031,35,85,700,bloc_loop.csv,2023-06-28_10h40.01.516,PainUncertainty,2022.2.5,143.90787593294348,
grave,forte,stimuli/330Hz,stimuli/forte,bloc_8,prob50_50_4trials.xlsx,3,12,50,50,0,,,,,0,7,7,7,0,3,3,1,,,,,,,,3,1760.3372650000001,1763.3419071000008,1763.3416128800009,0.3050290999999561,1763.7856940000001,1763.7856940000001,m,1.065936299997702,1767.656148,1767.656148,75,2.746,,,sub-031,35,85,700,bloc_loop.csv,2023-06-28_10h40.01.516,PainUncertainty,2022.2.5,143.90787593294348,
aigu,forte,stimuli/660Hz,stimuli/forte,bloc_8,prob50_50_4trials.xlsx,3,12,50,50,0,,,,,0,7,7,7,1,0,4,3,,,,,,,,3.5,1767.656148,1771.1553448000013,1771.1555002800005,0.3048564999990049,1771.6037214000007,1771.6037214000007,m,0.6089591999989352,1774.9447139000004,1774.9447139000004,78,2.671,,,sub-031,35,85,700,bloc_loop.csv,2023-06-28_10h40.01.516,PainUncertainty,2022.2.5,143.90787593294348,
aigu,moderee,stimuli/660Hz,stimuli/moderee,bloc_8,prob50_50_4trials.xlsx,3,12,50,50,0,,,,,0,7,7,7,1,1,5,2,,,,,,,,4.3,1774.9447139000004,1779.2459442,1779.2460217800008,0.3052341999991768,1779.6906170000002,1779.6906170000002,n,0.6677467999998044,1784.0081671000007,1784.0081671000007,10,3.588,,,sub-031,35,85,700,bloc_loop.csv,2023-06-28_10h40.01.516,PainUncertainty,2022.2.5,143.90787593294348,
grave,forte,stimuli/330Hz,stimuli/forte,bloc_8,prob50_50_4trials.xlsx,3,12,50,50,0,,,,,0,7,7,7,1,2,6,1,,,,,,,,3,1784.0081671000007,1787.0107808000012,1787.0109805800012,0.300001899999188,1787.4557657000005,1787.4557657000005,m,0.8573840999997628,1791.633216600001,1791.633216600001,84,3.255,,,sub-031,35,85,700,bloc_loop.csv,2023-06-28_10h40.01.516,PainUncertainty,2022.2.5,143.90787593294348,
grave,moderee,stimuli/330Hz,stimuli/moderee,bloc_8,prob50_50_4trials.xlsx,3,12,50,50,0,,,,,0,7,7,7,1,3,7,0,,,,,,,,4.5,1791.633216600001,1796.1369658000003,1796.1369812800012,0.30531820000032894,1796.5883219999996,1796.5883219999996,n,0.7091740999985632,1799.3848068999996,1799.3848068999996,10,2.031,,,sub-031,35,85,700,bloc_loop.csv,2023-06-28_10h40.01.516,PainUncertainty,2022.2.5,143.90787593294348,
grave,moderee,stimuli/330Hz,stimuli/moderee,bloc_8,prob50_50_4trials.xlsx,3,12,50,50,0,,,,,0,7,7,7,2,0,8,0,,,,,,,,4.4,1799.3848068999996,1803.7905424,1803.7905858800013,0.3000453999993624,1804.2354777,1804.2354777,n,1.30690069999946,1809.4876206000008,1809.4876206000008,12,3.879,,,sub-031,35,85,700,bloc_loop.csv,2023-06-28_10h40.01.516,PainUncertainty,2022.2.5,143.90787593294348,
aigu,moderee,stimuli/660Hz,stimuli/moderee,bloc_8,prob50_50_4trials.xlsx,3,12,50,50,0,,,,,0,7,7,7,2,1,9,2,,,,,,,,3.9,1809.4876206000008,1813.388909700001,1813.3889639800009,0.3049620000001596,1813.8330958000006,1813.8330958000006,n,0.994718499998271,1817.894309700001,1817.894309700001,11,3.01,,,sub-031,35,85,700,bloc_loop.csv,2023-06-28_10h40.01.516,PainUncertainty,2022.2.5,143.90787593294348,
grave,forte,stimuli/330Hz,stimuli/forte,bloc_8,prob50_50_4trials.xlsx,3,12,50,50,0,,,,,0,7,7,7,2,2,10,1,,,,,,,,4.3,1817.894309700001,1822.1955835999997,1822.19558728,0.30565499999829626,1822.6441243000008,1822.6441243000008,m,0.9486598000003141,1828.1727444999997,1828.1727444999997,80,4.524,,,sub-031,35,85,700,bloc_loop.csv,2023-06-28_10h40.01.516,PainUncertainty,2022.2.5,143.90787593294348,
aigu,forte,stimuli/660Hz,stimuli/forte,bloc_8,prob50_50_4trials.xlsx,3,12,50,50,0,,,,,0,7,7,7,2,3,11,3,,,,,,,,4.7,1828.1727444999997,1832.8774045999999,1832.87739298,0.2995593000014196,1833.3163409999997,1833.3163409999997,m,1.287806799999089,1838.5784753000007,1838.5784753000007,79,3.914,,,sub-031,35,85,700,bloc_loop.csv,2023-06-28_10h40.01.516,PainUncertainty,2022.2.5,143.90787593294348,
aigu,moderee,stimuli/660Hz,stimuli/moderee,bloc_9,prob20hthp_12trials.xlsx,3,36,80,20,0,,,,,0,8,8,8,0,0,0,7,,,,,,,,4.8,1838.5784753000007,1843.3786729000003,1843.3788920800007,0.3012838000013289,1843.8232826000003,1843.8232826000003,n,0.6372658999989653,1847.9768466000005,1847.9768466000005,8,3.463,,,sub-031,35,85,700,bloc_loop.csv,2023-06-28_10h40.01.516,PainUncertainty,2022.2.5,143.90787593294348,
aigu,moderee,stimuli/660Hz,stimuli/moderee,bloc_9,prob20hthp_12trials.xlsx,3,36,80,20,0,,,,,0,8,8,8,0,1,1,10,,,,,,,,3.4,1847.9768466000005,1851.3795612000013,1851.379607580001,0.3054693000012776,1851.828037700001,1851.828037700001,n,0.8401188999978331,1855.8573014000012,1855.8573014000012,13,3.135,,,sub-031,35,85,700,bloc_loop.csv,2023-06-28_10h40.01.516,PainUncertainty,2022.2.5,143.90787593294348,
aigu,forte,stimuli/660Hz,stimuli/forte,bloc_9,prob20hthp_12trials.xlsx,3,36,80,20,0,,,,,0,8,8,8,0,2,2,11,,,,,,,,4.3,1855.8573014000012,1860.1589593000008,1860.1588617799998,0.30482780000056664,1860.6026708000009,1860.6026708000009,m,0.6220068999991781,1863.0985810000002,1863.0985810000002,83,1.816,,,sub-031,35,85,700,bloc_loop.csv,2023-06-28_10h40.01.516,PainUncertainty,2022.2.5,143.90787593294348,
grave,forte,stimuli/330Hz,stimuli/forte,bloc_9,prob20hthp_12trials.xlsx,3,36,80,20,0,,,,,0,8,8,8,0,3,3,4,,,,,,,,3.3,1863.0985810000002,1866.4021281000005,1866.4022559800005,0.30521539999972447,1866.8509262000007,1866.8509262000007,m,0.8681936999983009,1870.4992926000014,1870.4992926000014,83,2.713,,,sub-031,35,85,700,bloc_loop.csv,2023-06-28_10h40.01.516,PainUncertainty,2022.2.5,143.90787593294348,
grave,forte,stimuli/330Hz,stimuli/forte,bloc_9,prob20hthp_12trials.xlsx,3,36,80,20,0,,,,,0,8,8,8,0,4,4,1,,,,,,,,4.8,1870.4992926000014,1875.2997737000005,1875.2997744800005,0.3051367999996728,1875.7484734000009,1875.7484734000009,m,0.6637777999985701,1880.0113325000002,1880.0113325000002,83,3.539,,,sub-031,35,85,700,bloc_loop.csv,2023-06-28_10h40.01.516,PainUncertainty,2022.2.5,143.90787593294348,
grave,forte,stimuli/330Hz,stimuli/forte,bloc_9,prob20hthp_12trials.xlsx,3,36,80,20,0,,,,,0,8,8,8,0,5,5,0,,,,,,,,4.9,1880.0113325000002,1884.9113632000008,1884.9114996800008,0.3049272000007477,1885.3555910000014,1885.3555910000014,m,0.6849839999977121,1888.7696304,1888.7696304,82,2.664,,,sub-031,35,85,700,bloc_loop.csv,2023-06-28_10h40.01.516,PainUncertainty,2022.2.5,143.90787593294348,
aigu,moderee,stimuli/660Hz,stimuli/moderee,bloc_9,prob20hthp_12trials.xlsx,3,36,80,20,0,,,,,0,8,8,8,0,6,6,9,,,,,,,,3.1,1888.7696304,1891.8705608,1891.8706188799997,0.3057085999989795,1892.3176565000012,1892.3176565000012,n,1.2758066999995208,1896.6654094000005,1896.6654094000005,13,3.011,,,sub-031,35,85,700,bloc_loop.csv,2023-06-28_10h40.01.516,PainUncertainty,2022.2.5,143.90787593294348,
grave,forte,stimuli/330Hz,stimuli/forte,bloc_9,prob20hthp_12trials.xlsx,3,36,80,20,0,,,,,0,8,8,8,0,7,7,2,,,,,,,,3.5,1896.6654094000005,1900.1699896999999,1900.17020908,0.29913980000128504,1900.6120686000013,1900.6120686000013,m,0.9934297999989212,1904.7873837999996,1904.7873837999996,85,3.117,,,sub-031,35,85,700,bloc_loop.csv,2023-06-28_10h40.01.516,PainUncertainty,2022.2.5,143.90787593294348,
grave,moderee,stimuli/330Hz,stimuli/moderee,bloc_9,prob20hthp_12trials.xlsx,3,36,80,20,0,,,,,0,8,8,8,0,8,8,5,,,,,,,,4,1904.7873837999996,1908.789153400001,1908.7893315800002,0.3049355999992258,1909.2335006000012,1909.2335006000012,n,0.6223881999994774,1915.3344209000006,1915.3344209000006,13,5.428,,,sub-031,35,85,700,bloc_loop.csv,2023-06-28_10h40.01.516,PainUncertainty,2022.2.5,143.90787593294348,
aigu,moderee,stimuli/660Hz,stimuli/moderee,bloc_9,prob20hthp_12trials.xlsx,3,36,80,20,0,,,,,0,8,8,8,0,9,9,8,,,,,,,,4.1,1915.3344209000006,1919.4361913000012,1919.4362908800003,0.3053373000002466,1919.8804756999998,1919.8804756999998,n,0.921055199998591,1923.0246666000003,1923.0246666000003,8,2.163,,,sub-031,35,85,700,bloc_loop.csv,2023-06-28_10h40.01.516,PainUncertainty,2022.2.5,143.90787593294348,
grave,forte,stimuli/330Hz,stimuli/forte,bloc_9,prob20hthp_12trials.xlsx,3,36,80,20,0,,,,,0,8,8,8,0,10,10,3,,,,,,,,3.1,1923.0246666000003,1926.1245513000013,1926.1246392800012,0.3050643000005948,1926.569055,1926.569055,m,0.6096642999982578,1932.6788715000002,1932.6788715000002,80,5.449,,,sub-031,35,85,700,bloc_loop.csv,2023-06-28_10h40.01.516,PainUncertainty,2022.2.5,143.90787593294348,
aigu,moderee,stimuli/660Hz,stimuli/moderee,bloc_9,prob20hthp_12trials.xlsx,3,36,80,20,0,,,,,0,8,8,8,0,11,11,6,,,,,,,,3.7,1932.6788715000002,1936.3827244000004,1936.38272968,0.3051718999995501,1936.8268251999998,1936.8268251999998,n,0.6467006999992009,1941.0237828000008,1941.0237828000008,9,3.48,,,sub-031,35,85,700,bloc_loop.csv,2023-06-28_10h40.01.516,PainUncertainty,2022.2.5,143.90787593294348,
aigu,moderee,stimuli/660Hz,stimuli/moderee,bloc_9,prob20hthp_12trials.xlsx,3,36,80,20,0,,,,,0,8,8,8,1,0,12,7,,,,,,,,4.3,1941.0237828000008,1945.3282685000013,1945.3281806799996,0.30525479999960226,1945.7725452000013,1945.7725452000013,n,0.8788795999989816,1948.9819516999996,1948.9819516999996,11,2.27,,,sub-031,35,85,700,bloc_loop.csv,2023-06-28_10h40.01.516,PainUncertainty,2022.2.5,143.90787593294348,
grave,forte,stimuli/330Hz,stimuli/forte,bloc_9,prob20hthp_12trials.xlsx,3,36,80,20,0,,,,,0,8,8,8,1,1,13,0,,,,,,,,4.2,1948.9819516999996,1953.1833628000004,1953.1833973800012,0.30518450000090525,1953.627978800001,1953.627978800001,m,0.6615132999977504,1957.2313250999996,1957.2313250999996,79,2.878,,,sub-031,35,85,700,bloc_loop.csv,2023-06-28_10h40.01.516,PainUncertainty,2022.2.5,143.90787593294348,
aigu,moderee,stimuli/660Hz,stimuli/moderee,bloc_9,prob20hthp_12trials.xlsx,3,36,80,20,0,,,,,0,8,8,8,1,2,14,10,,,,,,,,3.6,1957.2313250999996,1960.8370751000002,1960.8371163800011,0.30513729999984207,1961.2815351000008,1961.2815351000008,n,0.9658993999983068,1965.7327380000006,1965.7327380000006,13,3.434,,,sub-031,35,85,700,bloc_loop.csv,2023-06-28_10h40.01.516,PainUncertainty,2022.2.5,143.90787593294348,
aigu,forte,stimuli/660Hz,stimuli/forte,bloc_9,prob20hthp_12trials.xlsx,3,36,80,20,0,,,,,0,8,8,8,1,3,15,11,,,,,,,,4.1,1965.7327380000006,1969.838389800001,1969.8384516800006,0.30120069999975385,1970.2828159,1970.2828159,m,0.674516399998538,1975.0366937,1975.0366937,84,3.969,,,sub-031,35,85,700,bloc_loop.csv,2023-06-28_10h40.01.516,PainUncertainty,2022.2.5,143.90787593294348,
grave,forte,stimuli/330Hz,stimuli/forte,bloc_9,prob20hthp_12trials.xlsx,3,36,80,20,0,,,,,0,8,8,8,1,4,16,4,,,,,,,,3.2,1975.0366937,1978.2421723000007,1978.242392680001,0.3047227999995812,1978.6862196000002,1978.6862196000002,m,1.0425356999985524,1982.2287250000008,1982.2287250000008,78,2.44,,,sub-031,35,85,700,bloc_loop.csv,2023-06-28_10h40.01.516,PainUncertainty,2022.2.5,143.90787593294348,
grave,forte,stimuli/330Hz,stimuli/forte,bloc_9,prob20hthp_12trials.xlsx,3,36,80,20,0,,,,,0,8,8,8,1,5,17,2,,,,,,,,4.5,1982.2287250000008,1986.7288690000005,1986.7290041799997,0.3010085000005347,1987.1736621,1987.1736621,m,0.5902463999973406,1990.6526885000003,1990.6526885000003,85,2.839,,,sub-031,35,85,700,bloc_loop.csv,2023-06-28_10h40.01.516,PainUncertainty,2022.2.5,143.90787593294348,
grave,moderee,stimuli/330Hz,stimuli/moderee,bloc_9,prob20hthp_12trials.xlsx,3,36,80,20,0,,,,,0,8,8,8,1,6,18,5,,,,,,,,3.2,1990.6526885000003,1993.854824600001,1993.8548924800007,0.30508929999996326,1994.2991528000002,1994.2991528000002,n,0.7372179999983928,2000.2756049,2000.2756049,13,5.17,,,sub-031,35,85,700,bloc_loop.csv,2023-06-28_10h40.01.516,PainUncertainty,2022.2.5,143.90787593294348,
aigu,moderee,stimuli/660Hz,stimuli/moderee,bloc_9,prob20hthp_12trials.xlsx,3,36,80,20,0,,,,,0,8,8,8,1,7,19,8,,,,,,,,4.2,2000.2756049,2004.4811477000003,2004.48102878,0.30516979999993055,2004.9270873000005,2004.9270873000005,n,1.099787599998308,2010.0732616000005,2010.0732616000005,14,3.991,,,sub-031,35,85,700,bloc_loop.csv,2023-06-28_10h40.01.516,PainUncertainty,2022.2.5,143.90787593294348,
aigu,moderee,stimuli/660Hz,stimuli/moderee,bloc_9,prob20hthp_12trials.xlsx,3,36,80,20,0,,,,,0,8,8,8,1,8,20,6,,,,,,,,3.3,2010.0732616000005,2013.3780241000004,2013.378132480001,0.3048155999986193,2013.8265810000012,2013.8265810000012,n,1.4674236999999266,2017.602172500001,2017.602172500001,12,2.243,,,sub-031,35,85,700,bloc_loop.csv,2023-06-28_10h40.01.516,PainUncertainty,2022.2.5,143.90787593294348,
grave,forte,stimuli/330Hz,stimuli/forte,bloc_9,prob20hthp_12trials.xlsx,3,36,80,20,0,,,,,0,8,8,8,1,9,21,3,,,,,,,,4.6,2017.602172500001,2022.205407200001,2022.205466980001,0.30545619999975315,2022.6500628000013,2022.6500628000013,m,1.2464570999982243,2027.529835700001,2027.529835700001,74,3.567,,,sub-031,35,85,700,bloc_loop.csv,2023-06-28_10h40.01.516,PainUncertainty,2022.2.5,143.90787593294348,
grave,forte,stimuli/330Hz,stimuli/forte,bloc_9,prob20hthp_12trials.xlsx,3,36,80,20,0,,,,,0,8,8,8,1,10,22,1,,,,,,,,3.5,2027.529835700001,2031.0328864000003,2031.0329752799998,0.30547999999907915,2031.4798666000006,2031.4798666000006,m,0.9067562999989605,2037.4541296999996,2037.4541296999996,82,5.004,,,sub-031,35,85,700,bloc_loop.csv,2023-06-28_10h40.01.516,PainUncertainty,2022.2.5,143.90787593294348,
aigu,moderee,stimuli/660Hz,stimuli/moderee,bloc_9,prob20hthp_12trials.xlsx,3,36,80,20,0,,,,,0,8,8,8,1,11,23,9,,,,,,,,4,2037.4541296999996,2041.4576754000009,2041.4577343800001,0.2994333999995433,2041.9001530000005,2041.9001530000005,n,0.7412476999979845,2044.6793316000003,2044.6793316000003,12,1.976,,,sub-031,35,85,700,bloc_loop.csv,2023-06-28_10h40.01.516,PainUncertainty,2022.2.5,143.90787593294348,
grave,forte,stimuli/330Hz,stimuli/forte,bloc_9,prob20hthp_12trials.xlsx,3,36,80,20,0,,,,,0,8,8,8,2,0,24,3,,,,,,,,3.3,2044.6793316000003,2047.9792444000013,2047.9794168800008,0.30502420000084385,2048.427710600001,2048.427710600001,m,0.8065550999981497,2051.5867646000006,2051.5867646000006,78,2.289,,,sub-031,35,85,700,bloc_loop.csv,2023-06-28_10h40.01.516,PainUncertainty,2022.2.5,143.90787593294348,
grave,forte,stimuli/330Hz,stimuli/forte,bloc_9,prob20hthp_12trials.xlsx,3,36,80,20,0,,,,,0,8,8,8,2,1,25,0,,,,,,,,5,2051.5867646000006,2056.5914654999997,2056.591465480001,0.30508480000025884,2057.0356389999997,2057.0356389999997,m,0.592038799997681,2061.7368776000003,2061.7368776000003,78,4.038,,,sub-031,35,85,700,bloc_loop.csv,2023-06-28_10h40.01.516,PainUncertainty,2022.2.5,143.90787593294348,
aigu,moderee,stimuli/660Hz,stimuli/moderee,bloc_9,prob20hthp_12trials.xlsx,3,36,80,20,0,,,,,0,8,8,8,2,2,26,10,,,,,,,,3.6,2061.7368776000003,2065.3424381000004,2065.34260608,0.30482069999925443,2065.7866583000014,2065.7866583000014,n,0.712284199998976,2069.8390728000013,2069.8390728000013,11,3.275,,,sub-031,35,85,700,bloc_loop.csv,2023-06-28_10h40.01.516,PainUncertainty,2022.2.5,143.90787593294348,
aigu,moderee,stimuli/660Hz,stimuli/moderee,bloc_9,prob20hthp_12trials.xlsx,3,36,80,20,0,,,,,0,8,8,8,2,3,27,6,,,,,,,,4,2069.8390728000013,2073.843842100001,2073.844055480001,0.304936300000918,2074.2904610000005,2074.2904610000005,n,0.6972815999979503,2078.677287800001,2078.677287800001,8,3.636,,,sub-031,35,85,700,bloc_loop.csv,2023-06-28_10h40.01.516,PainUncertainty,2022.2.5,143.90787593294348,
grave,moderee,stimuli/330Hz,stimuli/moderee,bloc_9,prob20hthp_12trials.xlsx,3,36,80,20,0,,,,,0,8,8,8,2,4,28,5,,,,,,,,4,2078.677287800001,2082.678231,2082.6782871799996,0.299744500000088,2083.1226511000004,2083.1226511000004,n,0.5592572999976255,2087.2446990999997,2087.2446990999997,10,3.507,,,sub-031,35,85,700,bloc_loop.csv,2023-06-28_10h40.01.516,PainUncertainty,2022.2.5,143.90787593294348,
grave,forte,stimuli/330Hz,stimuli/forte,bloc_9,prob20hthp_12trials.xlsx,3,36,80,20,0,,,,,0,8,8,8,2,5,29,2,,,,,,,,3.4,2087.2446990999997,2090.6440249999996,2090.64415438,0.30510420000064187,2091.0882313,2091.0882313,m,1.3969867999985581,2094.357819500001,2094.357819500001,83,1.823,,,sub-031,35,85,700,bloc_loop.csv,2023-06-28_10h40.01.516,PainUncertainty,2022.2.5,143.90787593294348,
grave,forte,stimuli/330Hz,stimuli/forte,bloc_9,prob20hthp_12trials.xlsx,3,36,80,20,0,,,,,0,8,8,8,2,6,30,1,,,,,,,,5,2094.357819500001,2099.360367700001,2099.3604180800003,0.3011738000004698,2099.8053127000003,2099.8053127000003,m,0.6648067999976774,2103.8847033,2103.8847033,84,3.366,,,sub-031,35,85,700,bloc_loop.csv,2023-06-28_10h40.01.516,PainUncertainty,2022.2.5,143.90787593294348,
aigu,moderee,stimuli/660Hz,stimuli/moderee,bloc_9,prob20hthp_12trials.xlsx,3,36,80,20,0,,,,,0,8,8,8,2,7,31,8,,,,,,,,3.1,2103.8847033,2106.986332800001,2106.98637358,0.3053526999992755,2107.4304825,2107.4304825,n,0.7185550999984116,2112.2441439000013,2112.2441439000013,9,4.039,,,sub-031,35,85,700,bloc_loop.csv,2023-06-28_10h40.01.516,PainUncertainty,2022.2.5,143.90787593294348,
aigu,moderee,stimuli/660Hz,stimuli/moderee,bloc_9,prob20hthp_12trials.xlsx,3,36,80,20,0,,,,,0,8,8,8,2,8,32,7,,,,,,,,4,2112.2441439000013,2116.244472300001,2116.24449088,0.3050212999987707,2116.6886589000005,2116.6886589000005,n,0.6059112999992067,2120.460946700001,2120.460946700001,10,3.101,,,sub-031,35,85,700,bloc_loop.csv,2023-06-28_10h40.01.516,PainUncertainty,2022.2.5,143.90787593294348,
grave,forte,stimuli/330Hz,stimuli/forte,bloc_9,prob20hthp_12trials.xlsx,3,36,80,20,0,,,,,0,8,8,8,2,9,33,4,,,,,,,,4,2120.460946700001,2124.4606162,2124.46063918,0.3050139000006311,2124.9047475000007,2124.9047475000007,m,0.8802290999992692,2130.420612,2130.420612,75,4.581,,,sub-031,35,85,700,bloc_loop.csv,2023-06-28_10h40.01.516,PainUncertainty,2022.2.5,143.90787593294348,
aigu,moderee,stimuli/660Hz,stimuli/moderee,bloc_9,prob20hthp_12trials.xlsx,3,36,80,20,0,,,,,0,8,8,8,2,10,34,9,,,,,,,,4,2130.420612,2134.4202917000002,2134.42032088,0.3050038000001223,2134.8644956999997,2134.8644956999997,n,0.6761637999989034,2138.7308577000003,2138.7308577000003,10,3.136,,,sub-031,35,85,700,bloc_loop.csv,2023-06-28_10h40.01.516,PainUncertainty,2022.2.5,143.90787593294348,
aigu,forte,stimuli/660Hz,stimuli/forte,bloc_9,prob20hthp_12trials.xlsx,3,36,80,20,0,,,,,0,8,8,8,2,11,35,11,,,,,,,,4.9,2138.7308577000003,2143.636632900001,2143.636600480001,0.30525630000011006,2144.084377700001,2144.084377700001,m,0.5972934999990684,2150.1770373,2150.1770373,79,5.469,,,sub-031,35,85,700,bloc_loop.csv,2023-06-28_10h40.01.516,PainUncertainty,2022.2.5,143.90787593294348,
