series.thisRepN,series.thisTrialN,series.thisN,series.thisIndex,Ramp.thisRepN,Ramp.thisTrialN,Ramp.thisN,Ramp.thisIndex,rand_shocks.thisRepN,rand_shocks.thisTrialN,rand_shocks.thisN,rand_shocks.thisIndex,wait1_dur,intensity,text_7.started,text_12.started,key_resp_8.started,key_resp_8.keys,key_resp_8.rt,text_3.started,text_3.stopped,text_4.started,main_text.started,confirm_text.started,rating,ratingScale.response,ratingScale.rt,text_2.started,key_resp_3.started,key_resp_3.keys,key_resp_3.rt,text_4.stopped,text_9.started,key_resp_7.started,key_resp_7.keys,key_resp_7.rt,main_text_rand.started,confirm_rand.started,scale_wasmoved,rating_rand_.response,rating_rand_.rt,participant,debug,fail_ma,max_ma,nramps,date,expName,psychopyVersion,frameRate,
0,0,0,0,0,0,0,0,,,,,2.5,10,336.93178049998824,336.98313579999376,336.98313579999376,p,10.499992400000338,347.49084199999925,349.99284319998696,349.99284319998696,361.28341720002936,361.28341720002936,0,0,10.258,361.28341720002936,361.28341720002936,y,2.584114400029648,,,,,,,,,,,sub-066,0,750,700,3,2023-11-06_16h02.58.651,painuncertainty_calibration,2022.2.5,143.98723694118283,
0,0,0,0,1,0,1,0,,,,,2.3,20,363.9016253000009,363.9791022000136,363.9791022000136,p,1.1446344999712892,365.1324177000206,367.4383535999805,367.4383535999805,372.01982480002334,372.01982480002334,0,0,3.567,372.01982480002334,372.01982480002334,y,2.2391417999751866,368.45351419999497,,,,,,,,,,sub-066,0,750,700,3,2023-11-06_16h02.58.651,painuncertainty_calibration,2022.2.5,143.98723694118283,
0,0,0,0,2,0,2,0,,,,,2.5,30,374.3021375000244,374.37626089999685,374.37626089999685,p,0.5793747999705374,374.9666905999766,377.4668655000278,377.4668655000278,382.3266393999802,382.3266393999802,9,9,3.843,382.3266393999802,382.3266393999802,y,2.3082642999943346,378.4847662000102,,,,,,,,,,sub-066,0,750,700,3,2023-11-06_16h02.58.651,painuncertainty_calibration,2022.2.5,143.98723694118283,
0,0,0,0,3,0,3,0,,,,,2.3,40,384.6890955999843,384.7459625999909,384.7459625999909,p,0.49758660001680255,385.2524358999799,387.5510048000142,387.5510048000142,391.89914009999484,391.89914009999484,16,16,3.33,391.89914009999484,391.89914009999484,y,2.0402577000204474,388.56951860000845,,,,,,,,,,sub-066,0,750,700,3,2023-11-06_16h02.58.651,painuncertainty_calibration,2022.2.5,143.98723694118283,
0,0,0,0,4,0,4,0,,,,,2.4,50,393.98778229998425,394.05279789998895,394.05279789998895,p,0.6147437000181526,394.6773802000098,397.0803173999884,397.0803173999884,400.5649188000243,400.5649188000243,25,25,2.467,400.5649188000243,400.5649188000243,y,1.5339467000449076,398.09786390000954,,,,,,,,,,sub-066,0,750,700,3,2023-11-06_16h02.58.651,painuncertainty_calibration,2022.2.5,143.98723694118283,
0,0,0,0,5,0,5,0,,,,,2.2,60,402.13643090002006,402.2132728000288,402.2132728000288,p,0.7339562000124715,402.9567208000226,405.15791660000104,405.15791660000104,410.5797433999833,410.5797433999833,40,40,4.407,410.5797433999833,410.5797433999833,y,1.8638365999795496,406.1748997999821,,,,,,,,,,sub-066,0,750,700,3,2023-11-06_16h02.58.651,painuncertainty_calibration,2022.2.5,143.98723694118283,
0,0,0,0,6,0,6,0,,,,,2.0,70,412.4887563000084,412.5612293999875,412.5612293999875,p,0.658545000012964,413.2282844000147,415.22837089997483,415.22837089997483,419.8743887000019,419.8743887000019,50,50,3.63,419.8743887000019,419.8743887000019,y,1.2093391999951564,416.24376380001195,,,,,,,,,,sub-066,0,750,700,3,2023-11-06_16h02.58.651,painuncertainty_calibration,2022.2.5,143.98723694118283,
0,0,0,0,7,0,7,0,,,,,2.3,80,421.1486403000308,421.20158029999584,421.20158029999584,p,0.6658938000327908,421.8750276999781,424.1806901000091,424.1806901000091,429.3044973000069,429.3044973000069,83,83,4.109,429.3044973000069,429.3044973000069,y,1.258916299964767,,,,,,,,,,,sub-066,0,750,700,3,2023-11-06_16h02.58.651,painuncertainty_calibration,2022.2.5,143.98723694118283,
0,0,0,0,8,0,8,0,,,,,2.4,90,430.6068366999971,430.6750027000089,430.6750027000089,p,0.5359316000249237,431.22343230003025,433.6264408000279,433.6264408000279,444.236524500011,444.236524500011,95,95,9.595,444.236524500011,444.236524500011,n,2.062494399957359,434.6418278000201,,,,,,,,,,sub-066,0,750,700,3,2023-11-06_16h02.58.651,painuncertainty_calibration,2022.2.5,143.98723694118283,
0,0,0,0,,,,,,,,,,,,,,,,,,,,,,,,,,,,,,,,,,,,,,sub-066,0,750,700,3,2023-11-06_16h02.58.651,painuncertainty_calibration,2022.2.5,143.98723694118283,
1,0,1,0,0,0,0,0,,,,,2.0,10,453.63050660002045,453.7058039000258,453.7058039000258,p,1.2017361000180244,454.92077299999073,456.92100370000117,456.92100370000117,462.19738109997706,462.19738109997706,0,0,4.258,462.19738109997706,462.19738109997706,y,2.653498400002718,457.9408936999971,,,,,,,,,,sub-066,0,750,700,3,2023-11-06_16h02.58.651,painuncertainty_calibration,2022.2.5,143.98723694118283,
1,0,1,0,1,0,1,0,,,,,2.4,20,464.8956693999935,464.96412379998947,464.96412379998947,p,0.5748792999656871,465.5472568999976,467.9504104999942,467.9504104999942,471.38601309998194,471.38601309998194,0,0,2.418,471.38601309998194,471.38601309998194,y,1.4489742000005208,468.9685678000096,,,,,,,,,,sub-066,0,750,700,3,2023-11-06_16h02.58.651,painuncertainty_calibration,2022.2.5,143.98723694118283,
1,0,1,0,2,0,2,0,,,,,2.1,30,472.8840611000196,472.9506443000282,472.9506443000282,p,0.6130148000083864,473.5757325000013,475.6801555000129,475.6801555000129,479.33863690000726,479.33863690000726,2,2,2.642,479.33863690000726,479.33863690000726,y,1.3844456999795511,,,,,,,,,,,sub-066,0,750,700,3,2023-11-06_16h02.58.651,painuncertainty_calibration,2022.2.5,143.98723694118283,
1,0,1,0,3,0,3,0,,,,,2.5,40,480.7766684999806,480.840513299976,480.840513299976,p,0.594635899993591,481.4450176000246,483.94586989999516,483.94586989999516,488.8052231000038,488.8052231000038,15,15,3.843,488.8052231000038,488.8052231000038,y,1.4460671999840997,484.9633230000036,,,,,,,,,,sub-066,0,750,700,3,2023-11-06_16h02.58.651,painuncertainty_calibration,2022.2.5,143.98723694118283,
1,0,1,0,4,0,4,0,,,,,2.3,50,490.2998415000038,490.36269280000124,490.36269280000124,p,0.608908900001552,490.9806322000222,493.2865552000003,493.2865552000003,497.4446004999918,497.4446004999918,27,27,3.143,497.4446004999918,497.4446004999918,y,1.4789849999942817,494.30369849997805,,,,,,,,,,sub-066,0,750,700,3,2023-11-06_16h02.58.651,painuncertainty_calibration,2022.2.5,143.98723694118283,
1,0,1,0,5,0,5,0,,,,,2.1,60,498.96052700001746,499.03754029999254,499.03754029999254,p,0.6139089000062086,499.66228550003143,501.76691569999093,501.76691569999093,507.231071599992,507.231071599992,39,39,4.449,507.231071599992,507.231071599992,y,1.2281332000275142,502.7840500000166,,,,,,,,,,sub-066,0,750,700,3,2023-11-06_16h02.58.651,painuncertainty_calibration,2022.2.5,143.98723694118283,
1,0,1,0,6,0,6,0,,,,,2.3,70,508.4996159999864,508.57353739999235,508.57353739999235,p,0.5820151999942027,509.16362900001695,511.46935349999694,511.46935349999694,514.7107783000101,514.7107783000101,55,55,2.226,514.7107783000101,514.7107783000101,y,1.26911769999424,512.4852062999853,,,,,,,,,,sub-066,0,750,700,3,2023-11-06_16h02.58.651,painuncertainty_calibration,2022.2.5,143.98723694118283,
1,0,1,0,7,0,7,0,,,,,2.0,80,516.0405064999941,516.0956399000133,516.0956399000133,p,0.5237917999620549,516.6300392000121,518.630011100031,518.630011100031,523.7421181999962,523.7421181999962,66,66,4.093,523.7421181999962,523.7421181999962,y,1.0609605999779887,519.6494118000264,,,,,,,,,,sub-066,0,750,700,3,2023-11-06_16h02.58.651,painuncertainty_calibration,2022.2.5,143.98723694118283,
1,0,1,0,8,0,8,0,,,,,2.3,90,524.8602832999895,524.9157550000236,524.9157550000236,p,0.6400279000517912,525.5682825000258,527.8743571999948,527.8743571999948,534.541082700016,534.541082700016,84,84,5.645,534.541082700016,534.541082700016,n,1.1020215000025928,528.8952135000145,,,,,,,,,,sub-066,0,750,700,3,2023-11-06_16h02.58.651,painuncertainty_calibration,2022.2.5,143.98723694118283,
1,0,1,0,,,,,,,,,,,,,,,,,,,,,,,,,,,,,,,,,,,,,,sub-066,0,750,700,3,2023-11-06_16h02.58.651,painuncertainty_calibration,2022.2.5,143.98723694118283,
2,0,2,0,0,0,0,0,,,,,2.1,10,540.9645728999749,541.0355051999795,541.0355051999795,p,2.2080954000120983,543.2509321999969,545.3556196999853,545.3556196999853,548.7359380000271,548.7359380000271,0,0,2.365,548.7359380000271,548.7359380000271,y,1.379655199998524,546.3716830000049,,,,,,,,,,sub-066,0,750,700,3,2023-11-06_16h02.58.651,painuncertainty_calibration,2022.2.5,143.98723694118283,
2,0,2,0,1,0,1,0,,,,,2.1,20,550.1511004000204,550.231144600024,550.231144600024,p,0.48434199998155236,550.7240427000215,552.8284880000283,552.8284880000283,556.8234771999996,556.8234771999996,0,0,2.938,556.8234771999996,556.8234771999996,y,1.2599924000096507,553.8834151999908,,,,,,,,,,sub-066,0,750,700,3,2023-11-06_16h02.58.651,painuncertainty_calibration,2022.2.5,143.98723694118283,
2,0,2,0,2,0,2,0,,,,,2.2,30,558.1414112999919,558.1972047000309,558.1972047000309,p,0.5741453000227921,558.7805713000125,560.9827102000127,560.9827102000127,565.2253689999925,565.2253689999925,0,0,3.225,565.2253689999925,565.2253689999925,y,1.1618440999882296,561.9999408000149,,,,,,,,,,sub-066,0,750,700,3,2023-11-06_16h02.58.651,painuncertainty_calibration,2022.2.5,143.98723694118283,
2,0,2,0,3,0,3,0,,,,,2.5,40,566.4487484000274,566.5040110999835,566.5040110999835,p,0.675251999986358,567.1913407000247,569.6919946999988,569.6919946999988,572.3148464999977,572.3148464999977,8,8,1.607,572.3148464999977,572.3148464999977,y,1.4090170999988914,570.7084266999736,,,,,,,,,,sub-066,0,750,700,3,2023-11-06_16h02.58.651,painuncertainty_calibration,2022.2.5,143.98723694118283,
2,0,2,0,4,0,4,0,,,,,2.4,50,573.7829274000251,573.8379988999804,573.8379988999804,p,0.6617707000114024,574.5116441000137,576.9148318999796,576.9148318999796,580.6633927000221,580.6633927000221,24,24,2.732,580.6633927000221,580.6633927000221,y,1.2681504999636672,577.9315199999837,,,,,,,,,,sub-066,0,750,700,3,2023-11-06_16h02.58.651,painuncertainty_calibration,2022.2.5,143.98723694118283,
2,0,2,0,5,0,5,0,,,,,2.0,60,581.9948751999764,582.0474554999964,582.0474554999964,p,0.6354955999995582,582.6932430000161,584.6935343000223,584.6935343000223,588.2196703000227,588.2196703000227,38,38,2.511,588.2196703000227,588.2196703000227,y,1.3997700000181794,585.7108357999823,,,,,,,,,,sub-066,0,750,700,3,2023-11-06_16h02.58.651,painuncertainty_calibration,2022.2.5,143.98723694118283,
2,0,2,0,6,0,6,0,,,,,2.2,70,589.6817068000091,589.7368319000234,589.7368319000234,p,0.5623310999944806,590.3121140000294,592.5143015999929,592.5143015999929,595.4014666000148,595.4014666000148,57,57,1.871,595.4014666000148,595.4014666000148,y,1.2176570000010543,593.5310655999929,,,,,,,,,,sub-066,0,750,700,3,2023-11-06_16h02.58.651,painuncertainty_calibration,2022.2.5,143.98723694118283,
2,0,2,0,7,0,7,0,,,,,2.0,80,596.6793416999863,596.7303806000273,596.7303806000273,p,0.5211246000253595,597.2645189000177,599.2651222000131,599.2651222000131,602.0545912000234,602.0545912000234,67,67,1.773,602.0545912000234,602.0545912000234,y,1.3728360999957658,600.2829781000037,,,,,,,,,,sub-066,0,750,700,3,2023-11-06_16h02.58.651,painuncertainty_calibration,2022.2.5,143.98723694118283,
2,0,2,0,8,0,8,0,,,,,2.2,90,603.4860664000153,603.5430459000054,603.5430459000054,p,1.1161017999984324,604.6681322000222,606.8698816000251,606.8698816000251,611.673595100001,611.673595100001,79,79,3.787,611.673595100001,611.673595100001,y,1.1622476000338793,607.8868442000239,,,,,,,,,,sub-066,0,750,700,3,2023-11-06_16h02.58.651,painuncertainty_calibration,2022.2.5,143.98723694118283,
2,0,2,0,9,0,9,0,,,,,2.3,100,612.8950968999998,612.9471255000099,612.9471255000099,p,0.7600769000127912,613.7181912999949,616.0240414,616.0240414,623.8494051999878,623.8494051999878,78,78,6.811,623.8494051999878,623.8494051999878,y,1.0095748999738134,617.0401648000116,,,,,,,,,,sub-066,0,750,700,3,2023-11-06_16h02.58.651,painuncertainty_calibration,2022.2.5,143.98723694118283,
2,0,2,0,10,0,10,0,,,,,2.4,110,624.9251751999836,624.976352000027,624.976352000027,p,0.9391573000466451,625.9279330000281,628.3308838999947,628.3308838999947,632.9831020000274,632.9831020000274,85,85,3.636,632.9831020000274,632.9831020000274,n,1.620415800018236,629.3477952000103,,,,,,,,,,sub-066,0,750,700,3,2023-11-06_16h02.58.651,painuncertainty_calibration,2022.2.5,143.98723694118283,
2,0,2,0,,,,,,,,,,,,,,,,,,,,,,,,,,,,,,,,,,,,,,sub-066,0,750,700,3,2023-11-06_16h02.58.651,painuncertainty_calibration,2022.2.5,143.98723694118283,
,,,,,,,,0,0,0,0,3.0,56,,,,,,668.8982741999789,671.898677500023,671.898677500023,,,14,,,,,,,672.9152273000218,667.4929553000256,667.4929553000256,p,1.3979671000270173,675.1140766000026,675.1140766000026,1,14,2.143,sub-066,0,750,700,3,2023-11-06_16h02.58.651,painuncertainty_calibration,2022.2.5,143.98723694118283,
,,,,,,,,1,0,1,0,3.0,110,,,,,,675.7814049000153,678.7815826000297,678.7815826000297,,,79,,,,,,,679.7995271999971,675.1140766000026,675.1140766000026,p,0.6567668000352569,682.4803175000125,682.4803175000125,1,79,2.629,sub-066,0,750,700,3,2023-11-06_16h02.58.651,painuncertainty_calibration,2022.2.5,143.98723694118283,
,,,,,,,,2,0,2,0,3.0,45,,,,,,683.115156600019,686.1156287000049,686.1156287000049,,,6,,,,,,,687.1309419000172,682.4803175000125,682.4803175000125,p,0.6276764999493025,689.8453888000222,689.8453888000222,1,6,2.664,sub-066,0,750,700,3,2023-11-06_16h02.58.651,painuncertainty_calibration,2022.2.5,143.98723694118283,
,,,,,,,,3,0,3,0,3.0,83,,,,,,690.5743643000023,693.5755317999865,693.5755317999865,,,58,,,,,,,694.5904277000227,689.8453888000222,689.8453888000222,p,0.7175309999729507,697.2116444000276,697.2116444000276,1,58,2.574,sub-066,0,750,700,3,2023-11-06_16h02.58.651,painuncertainty_calibration,2022.2.5,143.98723694118283,
,,,,,,,,4,0,4,0,3.0,72,,,,,,698.1239185000304,701.1244008999784,701.1244008999784,,,42,,,,,,,702.1404135000193,697.2116444000276,697.2116444000276,p,0.9044875000254251,704.7197608000133,704.7197608000133,1,42,2.532,sub-066,0,750,700,3,2023-11-06_16h02.58.651,painuncertainty_calibration,2022.2.5,143.98723694118283,
,,,,,,,,5,0,5,0,3.0,94,,,,,,705.3956749999779,708.3961610000115,708.3961610000115,,,76,,,,,,,709.4129452999914,704.7197608000133,704.7197608000133,p,0.668019299977459,712.6456632000045,712.6456632000045,1,76,3.183,sub-066,0,750,700,3,2023-11-06_16h02.58.651,painuncertainty_calibration,2022.2.5,143.98723694118283,
,,,,,,,,6,0,6,0,3.0,105,,,,,,713.3202134000021,716.3208448999794,716.3208448999794,,,81,,,,,,,717.337362500024,712.6456632000045,712.6456632000045,p,0.6620233000139706,720.0118441000232,720.0118441000232,1,81,2.628,sub-066,0,750,700,3,2023-11-06_16h02.58.651,painuncertainty_calibration,2022.2.5,143.98723694118283,
,,,,,,,,7,0,7,0,3.0,67,,,,,,720.7448012999957,723.7452044999809,723.7452044999809,,,19,,,,,,,724.762736100005,720.0118441000232,720.0118441000232,p,0.7197828000062145,726.5951109000016,726.5951109000016,1,19,1.787,sub-066,0,750,700,3,2023-11-06_16h02.58.651,painuncertainty_calibration,2022.2.5,143.98723694118283,
,,,,,,,,8,0,8,0,3.0,78,,,,,,727.2804376999848,730.280903899984,730.280903899984,,,0,,,,,,,731.2952025000122,726.5951109000016,726.5951109000016,p,0.6721114999963902,735.8127027000301,735.8127027000301,1,0,4.471,sub-066,0,750,700,3,2023-11-06_16h02.58.651,painuncertainty_calibration,2022.2.5,143.98723694118283,
,,,,,,,,9,0,9,0,3.0,62,,,,,,736.4411530999932,739.441457399982,739.441457399982,,,15,,,,,,,740.458305099979,735.8127027000301,735.8127027000301,p,0.6151049000327475,744.6792757000076,744.6792757000076,1,15,4.177,sub-066,0,750,700,3,2023-11-06_16h02.58.651,painuncertainty_calibration,2022.2.5,143.98723694118283,
,,,,,,,,10,0,10,0,3.0,99,,,,,,745.5394943000283,748.5396987000131,748.5396987000131,,,86,,,,,,,749.5567435999983,744.6792757000076,744.6792757000076,p,0.8524096999899484,753.7414102000184,753.7414102000184,1,86,4.13,sub-066,0,750,700,3,2023-11-06_16h02.58.651,painuncertainty_calibration,2022.2.5,143.98723694118283,
,,,,,,,,11,0,11,0,3.0,40,,,,,,754.4501854000264,757.4509246000089,757.4509246000089,,,0,,,,,,,758.4672054999974,753.7414102000184,753.7414102000184,p,0.7021569999633357,761.7927277000272,761.7927277000272,1,0,3.274,sub-066,0,750,700,3,2023-11-06_16h02.58.651,painuncertainty_calibration,2022.2.5,143.98723694118283,
,,,,,,,,12,0,12,0,3.0,88,,,,,,762.5345529000042,765.5349025999894,765.5349025999894,,,50,,,,,,,766.551165700017,761.7927277000272,761.7927277000272,p,0.7305958000360988,768.9360497000162,768.9360497000162,1,50,2.33,sub-066,0,750,700,3,2023-11-06_16h02.58.651,painuncertainty_calibration,2022.2.5,143.98723694118283,
,,,,,,,,13,0,13,0,3.0,51,,,,,,769.6742771000136,772.6746014999808,772.6746014999808,,,0,,,,,,,773.6907001999789,768.9360497000162,768.9360497000162,p,0.7311764000332914,774.8342873000074,774.8342873000074,1,0,1.143,sub-066,0,750,700,3,2023-11-06_16h02.58.651,painuncertainty_calibration,2022.2.5,143.98723694118283,
