cue_,stimulus_,cue_fichier,stimulus_fichier,block_name,block_trials_file,block_n_reps,block_ntrials,block_prob_highP_highT,block_prob_highP_lowT,block_pause_after,Bloc_essai.thisRepN,Bloc_essai.thisTrialN,Bloc_essai.thisN,Bloc_essai.thisIndex,blocks.thisRepN,blocks.thisTrialN,blocks.thisN,blocks.thisIndex,trials.thisRepN,trials.thisTrialN,trials.thisN,trials.thisIndex,pause_loop.thisRepN,pause_loop.thisTrialN,pause_loop.thisN,pause_loop.thisIndex,key_resp_5.started,start_calib.started,key_resp_2.started,ISI_duration,pause.started,pause.stopped,cue.started,ISI.started,choice_pain.started,Choice.started,choice_pain.keys,choice_pain.rt,main_text.started,confirm_text.started,ratingScale.response,ratingScale.rt,choice_pain.stopped,Choice.stopped,key_resp_3.started,key_resp_6.started,participant,low_ma,high_ma,failsafe_ma,block_file,date,expName,psychopyVersion,frameRate,
grave,forte,stimuli/330Hz,stimuli/forte,,,,,,,,0,0,0,1,,,,,,,,,,,,,21.60972110001603,180.81657820002874,215.83502150001004,3.4,219.43647459999193,222.84957070002565,222.84937766001093,0.30106040003011003,223.2868618000066,223.2868618000066,m,1.670011100010015,230.00830929999938,230.00830929999938,69,4.984,,,,,sub-066,70,100,700,bloc_loop.csv,2023-11-06_16h19.11.289,PainUncertainty,2022.2.5,143.0510792839391,
aigu,forte,stimuli/660Hz,stimuli/forte,,,,,,,,0,1,1,3,,,,,,,,,,,,,,,,3,230.00830929999938,233.00993749999907,233.01066183004295,0.305078900011722,233.45468860003166,233.45468860003166,m,1.4467096999869682,239.5320214999956,239.5320214999956,58,4.545,,,,,sub-066,70,100,700,bloc_loop.csv,2023-11-06_16h19.11.289,PainUncertainty,2022.2.5,143.0510792839391,
aigu,moderee,stimuli/660Hz,stimuli/moderee,,,,,,,,0,2,2,2,,,,,,,,,,,,,,,,4,239.5320214999956,243.53231610002695,243.53238393001956,0.30548179999459535,243.98076960002072,243.98076960002072,n,1.2535331000108272,247.63002610002877,247.63002610002877,22,2.343,,,,,sub-066,70,100,700,bloc_loop.csv,2023-11-06_16h19.11.289,PainUncertainty,2022.2.5,143.0510792839391,
grave,moderee,stimuli/330Hz,stimuli/moderee,,,,,,,,0,3,3,0,,,,,,,,,,,,,,,,3.9,247.63002610002877,251.53349120001076,251.53351543002063,0.3050414000172168,251.97757010004716,251.97757010004716,n,1.8825072000036016,257.2004637999926,257.2004637999926,26,3.316,,,,,sub-066,70,100,700,bloc_loop.csv,2023-11-06_16h19.11.289,PainUncertainty,2022.2.5,143.0510792839391,
aigu,moderee,stimuli/660Hz,stimuli/moderee,bloc_1,prob20hthp_12trials.xlsx,4,48,20,80,0,,,,,0,0,0,0,0,0,0,6,,,,,,,,4.8,288.4397774999961,293.2401625000057,293.2402759299963,0.30519869999261573,293.6865688000107,293.6865688000107,None,,299.64088720001746,299.64088720001746,15,3.436,296.15237930003786,296.15237930003786,,,sub-066,70,100,700,bloc_loop.csv,2023-11-06_16h19.11.289,PainUncertainty,2022.2.5,143.0510792839391,
grave,forte,stimuli/330Hz,stimuli/forte,bloc_1,prob20hthp_12trials.xlsx,4,48,20,80,0,,,,,0,0,0,0,0,1,1,4,,,,,,,,4.2,299.64088720001746,303.8452217000304,303.84523643002615,0.3051022000145167,304.2896997000207,304.2896997000207,m,1.0290667000226676,308.8412249000394,308.8412249000394,72,3.47,,,,,sub-066,70,100,700,bloc_loop.csv,2023-11-06_16h19.11.289,PainUncertainty,2022.2.5,143.0510792839391,
grave,forte,stimuli/330Hz,stimuli/forte,bloc_1,prob20hthp_12trials.xlsx,4,48,20,80,0,,,,,0,0,0,0,0,2,2,3,,,,,,,,4.2,308.8412249000394,313.04066490003606,313.04084413000385,0.30500260001281276,313.48506720003206,313.48506720003206,m,1.3296419000253081,317.83708220004337,317.83708220004337,76,2.961,,,,,sub-066,70,100,700,bloc_loop.csv,2023-11-06_16h19.11.289,PainUncertainty,2022.2.5,143.0510792839391,
aigu,forte,stimuli/660Hz,stimuli/forte,bloc_1,prob20hthp_12trials.xlsx,4,48,20,80,0,,,,,0,0,0,0,0,3,3,11,,,,,,,,4,317.83708220004337,321.84058950003237,321.84047403002626,0.30497090000426397,322.28488059999654,322.28488059999654,n,1.8570941000361927,326.80308540002443,326.80308540002443,27,2.581,,,,,sub-066,70,100,700,bloc_loop.csv,2023-11-06_16h19.11.289,PainUncertainty,2022.2.5,143.0510792839391,
aigu,moderee,stimuli/660Hz,stimuli/moderee,bloc_1,prob20hthp_12trials.xlsx,4,48,20,80,0,,,,,0,0,0,0,0,4,4,9,,,,,,,,4.1,326.80308540002443,330.90398940001614,330.90391842999964,0.3052866000216454,331.3487191000022,331.3487191000022,n,0.7273163999780081,334.5974692000309,334.5974692000309,23,2.469,,,,,sub-066,70,100,700,bloc_loop.csv,2023-11-06_16h19.11.289,PainUncertainty,2022.2.5,143.0510792839391,
grave,moderee,stimuli/330Hz,stimuli/moderee,bloc_1,prob20hthp_12trials.xlsx,4,48,20,80,0,,,,,0,0,0,0,0,5,5,5,,,,,,,,3.5,334.5974692000309,338.09921519999625,338.09928543000717,0.29930150002473965,338.5404363000416,338.5404363000416,n,1.257220999978017,343.41854069998953,343.41854069998953,24,3.566,,,,,sub-066,70,100,700,bloc_loop.csv,2023-11-06_16h19.11.289,PainUncertainty,2022.2.5,143.0510792839391,
aigu,moderee,stimuli/660Hz,stimuli/moderee,bloc_1,prob20hthp_12trials.xlsx,4,48,20,80,0,,,,,0,0,0,0,0,6,6,10,,,,,,,,4.6,343.41854069998953,348.0241381000378,348.024189530022,0.30505889997584745,348.46830609999597,348.46830609999597,n,1.7265791000099853,353.8186641000211,353.8186641000211,17,3.552,,,,,sub-066,70,100,700,bloc_loop.csv,2023-11-06_16h19.11.289,PainUncertainty,2022.2.5,143.0510792839391,
grave,forte,stimuli/330Hz,stimuli/forte,bloc_1,prob20hthp_12trials.xlsx,4,48,20,80,0,,,,,0,0,0,0,0,7,7,1,,,,,,,,5,353.8186641000211,358.8238959000446,358.8239425299922,0.3002096999553032,359.2691651000059,359.2691651000059,m,0.9777260000118986,363.2474189000204,363.2474189000204,76,2.948,,,,,sub-066,70,100,700,bloc_loop.csv,2023-11-06_16h19.11.289,PainUncertainty,2022.2.5,143.0510792839391,
grave,forte,stimuli/330Hz,stimuli/forte,bloc_1,prob20hthp_12trials.xlsx,4,48,20,80,0,,,,,0,0,0,0,0,8,8,0,,,,,,,,3.7,363.2474189000204,366.9500185000361,366.95005473002095,0.3050408999552019,367.3942185000051,367.3942185000051,m,0.9121266000438482,370.9170424999902,370.9170424999902,62,2.53,,,,,sub-066,70,100,700,bloc_loop.csv,2023-11-06_16h19.11.289,PainUncertainty,2022.2.5,143.0510792839391,
aigu,moderee,stimuli/660Hz,stimuli/moderee,bloc_1,prob20hthp_12trials.xlsx,4,48,20,80,0,,,,,0,0,0,0,0,9,9,8,,,,,,,,3.4,370.9170424999902,374.31922960001975,374.31928283001764,0.3047108000027947,374.76330849999795,374.76330849999795,n,0.7276055000256747,379.76946979999775,379.76946979999775,15,4.198,,,,,sub-066,70,100,700,bloc_loop.csv,2023-11-06_16h19.11.289,PainUncertainty,2022.2.5,143.0510792839391,
grave,forte,stimuli/330Hz,stimuli/forte,bloc_1,prob20hthp_12trials.xlsx,4,48,20,80,0,,,,,0,0,0,0,0,10,10,2,,,,,,,,5,379.76946979999775,384.7722636000253,384.77256532999456,0.3048261000076309,385.22085250000237,385.22085250000237,m,0.8036419000127353,388.382056500006,388.382056500006,65,2.282,,,,,sub-066,70,100,700,bloc_loop.csv,2023-11-06_16h19.11.289,PainUncertainty,2022.2.5,143.0510792839391,
aigu,moderee,stimuli/660Hz,stimuli/moderee,bloc_1,prob20hthp_12trials.xlsx,4,48,20,80,0,,,,,0,0,0,0,0,11,11,7,,,,,,,,3.3,388.382056500006,391.68235100002494,391.6823569300119,0.3048195000155829,392.12652480002725,392.12652480002725,n,0.4223331999965012,394.56220909999683,394.56220909999683,8,1.962,,,,,sub-066,70,100,700,bloc_loop.csv,2023-11-06_16h19.11.289,PainUncertainty,2022.2.5,143.0510792839391,
grave,moderee,stimuli/330Hz,stimuli/moderee,bloc_1,prob20hthp_12trials.xlsx,4,48,20,80,0,,,,,0,0,0,0,1,0,12,5,,,,,,,,3,394.56220909999683,397.56509150000056,397.56496003004725,0.29969779995735735,398.0098042000318,398.0098042000318,n,2.3684263000031933,401.7202340000076,401.7202340000076,20,1.293,,,,,sub-066,70,100,700,bloc_loop.csv,2023-11-06_16h19.11.289,PainUncertainty,2022.2.5,143.0510792839391,
aigu,moderee,stimuli/660Hz,stimuli/moderee,bloc_1,prob20hthp_12trials.xlsx,4,48,20,80,0,,,,,0,0,0,0,1,1,13,6,,,,,,,,4.8,401.7202340000076,406.5245487000211,406.5244744300377,0.30502539995359257,406.9683817999903,406.9683817999903,n,0.8155212999554351,409.50211030000355,409.50211030000355,12,1.663,,,,,sub-066,70,100,700,bloc_loop.csv,2023-11-06_16h19.11.289,PainUncertainty,2022.2.5,143.0510792839391,
aigu,moderee,stimuli/660Hz,stimuli/moderee,bloc_1,prob20hthp_12trials.xlsx,4,48,20,80,0,,,,,0,0,0,0,1,2,14,7,,,,,,,,4.2,409.50211030000355,413.70602570002666,413.7063267300488,0.3003993000020273,414.1502404999919,414.1502404999919,None,,420.03257770003984,420.03257770003984,30,3.366,416.6174053000286,416.6174053000286,,,sub-066,70,100,700,bloc_loop.csv,2023-11-06_16h19.11.289,PainUncertainty,2022.2.5,143.0510792839391,
grave,forte,stimuli/330Hz,stimuli/forte,bloc_1,prob20hthp_12trials.xlsx,4,48,20,80,0,,,,,0,0,0,0,1,3,15,2,,,,,,,,3.7,420.03257770003984,423.73470860003727,423.734679430048,0.30521000002045184,424.17911090003327,424.17911090003327,m,0.7294164000195451,426.74199559999397,426.74199559999397,68,1.775,,,,,sub-066,70,100,700,bloc_loop.csv,2023-11-06_16h19.11.289,PainUncertainty,2022.2.5,143.0510792839391,
grave,forte,stimuli/330Hz,stimuli/forte,bloc_1,prob20hthp_12trials.xlsx,4,48,20,80,0,,,,,0,0,0,0,1,4,16,3,,,,,,,,3.1,426.74199559999397,429.8465925999917,429.8467102300143,0.3047874000039883,430.2906725000357,430.2906725000357,m,0.46073719998821616,431.98458470002515,431.98458470002515,90,1.151,,,,,sub-066,70,100,700,bloc_loop.csv,2023-11-06_16h19.11.289,PainUncertainty,2022.2.5,143.0510792839391,
aigu,moderee,stimuli/660Hz,stimuli/moderee,bloc_1,prob20hthp_12trials.xlsx,4,48,20,80,0,,,,,0,0,0,0,1,5,17,8,,,,,,,,4,431.98458470002515,435.98669540003175,435.9867109300336,0.3017297000042163,436.43077890004497,436.43077890004497,n,0.5388742000213824,438.50168730004225,438.50168730004225,5,1.475,,,,,sub-066,70,100,700,bloc_loop.csv,2023-11-06_16h19.11.289,PainUncertainty,2022.2.5,143.0510792839391,
aigu,moderee,stimuli/660Hz,stimuli/moderee,bloc_1,prob20hthp_12trials.xlsx,4,48,20,80,0,,,,,0,0,0,0,1,6,18,10,,,,,,,,3.9,438.50168730004225,442.40349240001524,442.40359063000653,0.30503829999361187,442.85224620002555,442.85224620002555,n,0.5152898000087589,446.31458679999923,446.31458679999923,15,2.872,,,,,sub-066,70,100,700,bloc_loop.csv,2023-11-06_16h19.11.289,PainUncertainty,2022.2.5,143.0510792839391,
grave,forte,stimuli/330Hz,stimuli/forte,bloc_1,prob20hthp_12trials.xlsx,4,48,20,80,0,,,,,0,0,0,0,1,7,19,4,,,,,,,,3.6,446.31458679999923,449.91868320002686,449.91869893003025,0.30490550003014505,450.362601300003,450.362601300003,m,0.8346550000132993,453.98362950002775,453.98362950002775,71,2.734,,,,,sub-066,70,100,700,bloc_loop.csv,2023-11-06_16h19.11.289,PainUncertainty,2022.2.5,143.0510792839391,
grave,forte,stimuli/330Hz,stimuli/forte,bloc_1,prob20hthp_12trials.xlsx,4,48,20,80,0,,,,,0,0,0,0,1,8,20,0,,,,,,,,4.5,453.98362950002775,458.4888802000205,458.48896203000334,0.30495369998971,458.93309040000895,458.93309040000895,m,0.6406995000434108,462.1162534999894,462.1162534999894,77,2.482,,,,,sub-066,70,100,700,bloc_loop.csv,2023-11-06_16h19.11.289,PainUncertainty,2022.2.5,143.0510792839391,
aigu,forte,stimuli/660Hz,stimuli/forte,bloc_1,prob20hthp_12trials.xlsx,4,48,20,80,0,,,,,0,0,0,0,1,9,21,11,,,,,,,,5,462.1162534999894,467.121856999991,467.1219198300038,0.30530920001911,467.56647680001333,467.56647680001333,m,1.8970447999890894,473.7480489000445,473.7480489000445,90,4.226,,,,,sub-066,70,100,700,bloc_loop.csv,2023-11-06_16h19.11.289,PainUncertainty,2022.2.5,143.0510792839391,
grave,forte,stimuli/330Hz,stimuli/forte,bloc_1,prob20hthp_12trials.xlsx,4,48,20,80,0,,,,,0,0,0,0,1,10,22,1,,,,,,,,4.4,473.7480489000445,478.1512242000317,478.1512885299977,0.3052858999581076,478.5997074000188,478.5997074000188,m,1.4629878000123426,483.3026480000117,483.3026480000117,82,3.171,,,,,sub-066,70,100,700,bloc_loop.csv,2023-11-06_16h19.11.289,PainUncertainty,2022.2.5,143.0510792839391,
aigu,moderee,stimuli/660Hz,stimuli/moderee,bloc_1,prob20hthp_12trials.xlsx,4,48,20,80,0,,,,,0,0,0,0,1,11,23,9,,,,,,,,4.8,483.3026480000117,488.1035524000181,488.1036940300488,0.30534620000980794,488.55182430002606,488.55182430002606,n,0.5759453999926336,492.5703263000469,492.5703263000469,11,3.385,,,,,sub-066,70,100,700,bloc_loop.csv,2023-11-06_16h19.11.289,PainUncertainty,2022.2.5,143.0510792839391,
aigu,moderee,stimuli/660Hz,stimuli/moderee,bloc_1,prob20hthp_12trials.xlsx,4,48,20,80,0,,,,,0,0,0,0,2,0,24,10,,,,,,,,3.2,492.5703263000469,495.7711877000402,495.77139592999595,0.30476480000652373,496.2160016000271,496.2160016000271,n,0.49995129997842014,499.21907089999877,499.21907089999877,15,2.441,,,,,sub-066,70,100,700,bloc_loop.csv,2023-11-06_16h19.11.289,PainUncertainty,2022.2.5,143.0510792839391,
aigu,moderee,stimuli/660Hz,stimuli/moderee,bloc_1,prob20hthp_12trials.xlsx,4,48,20,80,0,,,,,0,0,0,0,2,1,25,8,,,,,,,,4,499.21907089999877,503.2237483999925,503.2237428300083,0.30526529997587204,503.67178460001014,503.67178460001014,n,0.4406853000400588,506.4100704000448,506.4100704000448,13,2.219,,,,,sub-066,70,100,700,bloc_loop.csv,2023-11-06_16h19.11.289,PainUncertainty,2022.2.5,143.0510792839391,
grave,forte,stimuli/330Hz,stimuli/forte,bloc_1,prob20hthp_12trials.xlsx,4,48,20,80,0,,,,,0,0,0,0,2,2,26,0,,,,,,,,3.1,506.4100704000448,509.5094011000474,509.5094794300036,0.30488780001178384,509.9531866000034,509.9531866000034,m,0.5882751000463031,515.5638693000074,515.5638693000074,87,4.969,,,,,sub-066,70,100,700,bloc_loop.csv,2023-11-06_16h19.11.289,PainUncertainty,2022.2.5,143.0510792839391,
aigu,forte,stimuli/660Hz,stimuli/forte,bloc_1,prob20hthp_12trials.xlsx,4,48,20,80,0,,,,,0,0,0,0,2,3,27,11,,,,,,,,3.6,515.5638693000074,519.1629093000083,519.1629691299983,0.30488720000721514,519.6071538000251,519.6071538000251,m,1.6561121999984607,525.424291000003,525.424291000003,92,4.075,,,,,sub-066,70,100,700,bloc_loop.csv,2023-11-06_16h19.11.289,PainUncertainty,2022.2.5,143.0510792839391,
aigu,moderee,stimuli/660Hz,stimuli/moderee,bloc_1,prob20hthp_12trials.xlsx,4,48,20,80,0,,,,,0,0,0,0,2,4,28,9,,,,,,,,3.5,525.424291000003,528.9282218000153,528.9284030299983,0.3051778000080958,529.3747082999907,529.3747082999907,n,0.8392761999857612,532.7396267000004,532.7396267000004,4,2.468,,,,,sub-066,70,100,700,bloc_loop.csv,2023-11-06_16h19.11.289,PainUncertainty,2022.2.5,143.0510792839391,
grave,moderee,stimuli/330Hz,stimuli/moderee,bloc_1,prob20hthp_12trials.xlsx,4,48,20,80,0,,,,,0,0,0,0,2,5,29,5,,,,,,,,3.8,532.7396267000004,536.5405423000338,536.5405482300208,0.3049837999860756,536.986761600012,536.986761600012,n,1.7193388000014238,541.2887630999903,541.2887630999903,15,2.511,,,,,sub-066,70,100,700,bloc_loop.csv,2023-11-06_16h19.11.289,PainUncertainty,2022.2.5,143.0510792839391,
grave,forte,stimuli/330Hz,stimuli/forte,bloc_1,prob20hthp_12trials.xlsx,4,48,20,80,0,,,,,0,0,0,0,2,6,30,2,,,,,,,,3.8,541.2887630999903,545.0899682000163,545.089949430048,0.3051449000486173,545.534101199999,545.534101199999,m,1.3629288000520319,548.6870473000454,548.6870473000454,95,1.718,,,,,sub-066,70,100,700,bloc_loop.csv,2023-11-06_16h19.11.289,PainUncertainty,2022.2.5,143.0510792839391,
grave,forte,stimuli/330Hz,stimuli/forte,bloc_1,prob20hthp_12trials.xlsx,4,48,20,80,0,,,,,0,0,0,0,2,7,31,4,,,,,,,,3.3,548.6870473000454,551.9863652000204,551.986430929997,0.3049479000037536,552.4307698000339,552.4307698000339,m,1.4435858000069857,556.9150425000116,556.9150425000116,91,2.982,,,,,sub-066,70,100,700,bloc_loop.csv,2023-11-06_16h19.11.289,PainUncertainty,2022.2.5,143.0510792839391,
grave,forte,stimuli/330Hz,stimuli/forte,bloc_1,prob20hthp_12trials.xlsx,4,48,20,80,0,,,,,0,0,0,0,2,8,32,3,,,,,,,,3.9,556.9150425000116,560.8207283000229,560.820754130045,0.30512350000208244,561.2722466000123,561.2722466000123,m,0.7216413999558426,566.7092197000165,566.7092197000165,86,4.642,,,,,sub-066,70,100,700,bloc_loop.csv,2023-11-06_16h19.11.289,PainUncertainty,2022.2.5,143.0510792839391,
aigu,moderee,stimuli/660Hz,stimuli/moderee,bloc_1,prob20hthp_12trials.xlsx,4,48,20,80,0,,,,,0,0,0,0,2,9,33,7,,,,,,,,4.8,566.7092197000165,571.5099088000134,571.5101173300296,0.30485509999562055,571.9573668999947,571.9573668999947,n,0.9871255999896675,576.2142519000336,576.2142519000336,11,3.217,,,,,sub-066,70,100,700,bloc_loop.csv,2023-11-06_16h19.11.289,PainUncertainty,2022.2.5,143.0510792839391,
aigu,moderee,stimuli/660Hz,stimuli/moderee,bloc_1,prob20hthp_12trials.xlsx,4,48,20,80,0,,,,,0,0,0,0,2,10,34,6,,,,,,,,4,576.2142519000336,580.2190956000122,580.2188917300315,0.3051965000340715,580.6632841000101,580.6632841000101,n,0.8547386000282131,584.5078683000174,584.5078683000174,2,2.914,,,,,sub-066,70,100,700,bloc_loop.csv,2023-11-06_16h19.11.289,PainUncertainty,2022.2.5,143.0510792839391,
grave,forte,stimuli/330Hz,stimuli/forte,bloc_1,prob20hthp_12trials.xlsx,4,48,20,80,0,,,,,0,0,0,0,2,11,35,1,,,,,,,,4.4,584.5078683000174,588.9075673000189,588.9075429300079,0.30497990001458675,589.3519206999918,589.3519206999918,m,0.9338911999948323,594.5096765999915,594.5096765999915,86,4.148,,,,,sub-066,70,100,700,bloc_loop.csv,2023-11-06_16h19.11.289,PainUncertainty,2022.2.5,143.0510792839391,
grave,moderee,stimuli/330Hz,stimuli/moderee,bloc_1,prob20hthp_12trials.xlsx,4,48,20,80,0,,,,,0,0,0,0,3,0,36,5,,,,,,,,3.9,594.5096765999915,598.4155929000117,598.4155693300069,0.29935699998168275,598.8570036000456,598.8570036000456,m,0.5682036000071093,601.3803320000297,601.3803320000297,82,1.878,,,,,sub-066,70,100,700,bloc_loop.csv,2023-11-06_16h19.11.289,PainUncertainty,2022.2.5,143.0510792839391,
grave,forte,stimuli/330Hz,stimuli/forte,bloc_1,prob20hthp_12trials.xlsx,4,48,20,80,0,,,,,0,0,0,0,3,1,37,2,,,,,,,,3.1,601.3803320000297,604.4856791000348,604.4857517300057,0.30498090002220124,604.9300062000402,604.9300062000402,m,0.367805199988652,607.4517637999961,607.4517637999961,93,2.102,,,,,sub-066,70,100,700,bloc_loop.csv,2023-11-06_16h19.11.289,PainUncertainty,2022.2.5,143.0510792839391,
aigu,forte,stimuli/660Hz,stimuli/forte,bloc_1,prob20hthp_12trials.xlsx,4,48,20,80,0,,,,,0,0,0,0,3,2,38,11,,,,,,,,3.7,607.4517637999961,611.1548109000432,611.153981730016,0.30703340005129576,611.6048815000104,611.6048815000104,m,0.6805390999652445,615.311854700034,615.311854700034,93,2.974,,,,,sub-066,70,100,700,bloc_loop.csv,2023-11-06_16h19.11.289,PainUncertainty,2022.2.5,143.0510792839391,
grave,forte,stimuli/330Hz,stimuli/forte,bloc_1,prob20hthp_12trials.xlsx,4,48,20,80,0,,,,,0,0,0,0,3,3,39,3,,,,,,,,3.1,615.311854700034,618.4110858000349,618.4111489299918,0.3049138000351377,618.85550960002,618.85550960002,m,0.7244774000137113,622.4071832000045,622.4071832000045,88,2.769,,,,,sub-066,70,100,700,bloc_loop.csv,2023-11-06_16h19.11.289,PainUncertainty,2022.2.5,143.0510792839391,
grave,forte,stimuli/330Hz,stimuli/forte,bloc_1,prob20hthp_12trials.xlsx,4,48,20,80,0,,,,,0,0,0,0,3,4,40,4,,,,,,,,3.3,622.4071832000045,625.7112641000422,625.7112866300391,0.3045766000286676,626.1552377000335,626.1552377000335,m,2.434145900013391,630.812636000046,630.812636000046,75,2.149,,,,,sub-066,70,100,700,bloc_loop.csv,2023-11-06_16h19.11.289,PainUncertainty,2022.2.5,143.0510792839391,
aigu,moderee,stimuli/660Hz,stimuli/moderee,bloc_1,prob20hthp_12trials.xlsx,4,48,20,80,0,,,,,0,0,0,0,3,5,41,7,,,,,,,,3.1,630.812636000046,633.9134074000176,633.9135170300375,0.29915299999993294,634.355415900005,634.355415900005,n,1.8385922000161372,639.0875691000256,639.0875691000256,41,2.83,,,,,sub-066,70,100,700,bloc_loop.csv,2023-11-06_16h19.11.289,PainUncertainty,2022.2.5,143.0510792839391,
aigu,moderee,stimuli/660Hz,stimuli/moderee,bloc_1,prob20hthp_12trials.xlsx,4,48,20,80,0,,,,,0,0,0,0,3,6,42,8,,,,,,,,4.3,639.0875691000256,643.3932766999933,643.3934002300026,0.30509839998558164,643.8446516999975,643.8446516999975,n,0.5708853999967687,646.2453955000383,646.2453955000383,4,1.767,,,,,sub-066,70,100,700,bloc_loop.csv,2023-11-06_16h19.11.289,PainUncertainty,2022.2.5,143.0510792839391,
aigu,moderee,stimuli/660Hz,stimuli/moderee,bloc_1,prob20hthp_12trials.xlsx,4,48,20,80,0,,,,,0,0,0,0,3,7,43,9,,,,,,,,4.1,646.2453955000383,650.3455413000192,650.3455604300485,0.3049388999934308,650.7896546000266,650.7896546000266,n,0.45668930001556873,653.8842135000159,653.8842135000159,11,2.573,,,,,sub-066,70,100,700,bloc_loop.csv,2023-11-06_16h19.11.289,PainUncertainty,2022.2.5,143.0510792839391,
aigu,moderee,stimuli/660Hz,stimuli/moderee,bloc_1,prob20hthp_12trials.xlsx,4,48,20,80,0,,,,,0,0,0,0,3,8,44,10,,,,,,,,3.7,653.8842135000159,657.5893980000401,657.5894101300161,0.30526600003940985,658.0339689000393,658.0339689000393,n,0.9029129999689758,661.0588559000171,661.0588559000171,36,2.053,,,,,sub-066,70,100,700,bloc_loop.csv,2023-11-06_16h19.11.289,PainUncertainty,2022.2.5,143.0510792839391,
grave,forte,stimuli/330Hz,stimuli/forte,bloc_1,prob20hthp_12trials.xlsx,4,48,20,80,0,,,,,0,0,0,0,3,9,45,1,,,,,,,,4.5,661.0588559000171,665.5627931000199,665.5627965300461,0.3049790000077337,666.0068359000143,666.0068359000143,m,0.5956087000085972,668.6299450999941,668.6299450999941,69,1.962,,,,,sub-066,70,100,700,bloc_loop.csv,2023-11-06_16h19.11.289,PainUncertainty,2022.2.5,143.0510792839391,
aigu,moderee,stimuli/660Hz,stimuli/moderee,bloc_1,prob20hthp_12trials.xlsx,4,48,20,80,0,,,,,0,0,0,0,3,10,46,6,,,,,,,,3.4,668.6299450999941,672.0291995000443,672.0291635300033,0.30468140001175925,672.4728842999903,672.4728842999903,n,0.948067799967248,676.3489734000177,676.3489734000177,43,2.858,,,,,sub-066,70,100,700,bloc_loop.csv,2023-11-06_16h19.11.289,PainUncertainty,2022.2.5,143.0510792839391,
grave,forte,stimuli/330Hz,stimuli/forte,bloc_1,prob20hthp_12trials.xlsx,4,48,20,80,0,,,,,0,0,0,0,3,11,47,0,,,,,,,,3.9,676.3489734000177,680.2523421000224,680.2522717300104,0.30682410002918914,680.7036292999983,680.7036292999983,m,0.6234372000326402,684.2900289000245,684.2900289000245,71,2.878,,,,,sub-066,70,100,700,bloc_loop.csv,2023-11-06_16h19.11.289,PainUncertainty,2022.2.5,143.0510792839391,
aigu,moderee,stimuli/660Hz,stimuli/moderee,bloc_2,prob50_50_4trials.xlsx,2,8,50,50,1,,,,,0,1,1,1,0,0,0,2,,,,,,,,4.7,684.2900289000245,688.9894873000449,688.9894087300287,0.3051197999739088,689.4386910000467,689.4386910000467,n,2.13104809995275,693.5412954000058,693.5412954000058,21,1.901,,,,,sub-066,70,100,700,bloc_loop.csv,2023-11-06_16h19.11.289,PainUncertainty,2022.2.5,143.0510792839391,
grave,forte,stimuli/330Hz,stimuli/forte,bloc_2,prob50_50_4trials.xlsx,2,8,50,50,1,,,,,0,1,1,1,0,1,1,1,,,,,,,,3.2,693.5412954000058,696.7405949000386,696.7403300300008,0.30487569997785613,697.1844831000199,697.1844831000199,m,0.6541291999747045,699.6599922000314,699.6599922000314,78,1.741,,,,,sub-066,70,100,700,bloc_loop.csv,2023-11-06_16h19.11.289,PainUncertainty,2022.2.5,143.0510792839391,
grave,moderee,stimuli/330Hz,stimuli/moderee,bloc_2,prob50_50_4trials.xlsx,2,8,50,50,1,,,,,0,1,1,1,0,2,2,0,,,,,,,,3.2,699.6599922000314,702.8658369000186,702.8659273300087,0.29906130000017583,703.3082144000218,703.3082144000218,n,0.944143200002145,708.3201822999981,708.3201822999981,27,3.991,,,,,sub-066,70,100,700,bloc_loop.csv,2023-11-06_16h19.11.289,PainUncertainty,2022.2.5,143.0510792839391,
aigu,forte,stimuli/660Hz,stimuli/forte,bloc_2,prob50_50_4trials.xlsx,2,8,50,50,1,,,,,0,1,1,1,0,3,3,3,,,,,,,,4.5,708.3201822999981,712.8253598000156,712.8254348300048,0.3048170999973081,713.2694302000455,713.2694302000455,m,1.6227218999993056,719.0077050999971,719.0077050999971,69,4.053,,,,,sub-066,70,100,700,bloc_loop.csv,2023-11-06_16h19.11.289,PainUncertainty,2022.2.5,143.0510792839391,
aigu,forte,stimuli/660Hz,stimuli/forte,bloc_2,prob50_50_4trials.xlsx,2,8,50,50,1,,,,,0,1,1,1,1,0,4,3,,,,,,,,4.1,719.0077050999971,723.1112907000352,723.111380830023,0.3050204000319354,723.5556923000258,723.5556923000258,None,,728.2750322000356,728.2750322000356,58,2.202,726.0258604999981,726.0258604999981,,,sub-066,70,100,700,bloc_loop.csv,2023-11-06_16h19.11.289,PainUncertainty,2022.2.5,143.0510792839391,
aigu,moderee,stimuli/660Hz,stimuli/moderee,bloc_2,prob50_50_4trials.xlsx,2,8,50,50,1,,,,,0,1,1,1,1,1,5,2,,,,,,,,3.9,728.2750322000356,732.1750228000456,732.1750043300214,0.30534459999762475,732.6195283000125,732.6195283000125,n,0.7736041000462137,735.8496662999969,735.8496662999969,0,2.37,,,,,sub-066,70,100,700,bloc_loop.csv,2023-11-06_16h19.11.289,PainUncertainty,2022.2.5,143.0510792839391,
grave,forte,stimuli/330Hz,stimuli/forte,bloc_2,prob50_50_4trials.xlsx,2,8,50,50,1,,,,,0,1,1,1,1,2,6,1,,,,,,,,4,735.8496662999969,739.8494406000245,739.8495000300114,0.30499360000249,740.2936839000322,740.2936839000322,m,0.6824429999687709,744.8450775000383,744.8450775000383,89,3.788,,,,,sub-066,70,100,700,bloc_loop.csv,2023-11-06_16h19.11.289,PainUncertainty,2022.2.5,143.0510792839391,
grave,moderee,stimuli/330Hz,stimuli/moderee,bloc_2,prob50_50_4trials.xlsx,2,8,50,50,1,,,,,0,1,1,1,1,3,7,0,,,,,,,,3.1,744.8450775000383,747.9477452000137,747.9478499299963,0.3050113000208512,748.3918842000421,748.3918842000421,m,1.0790513000101782,754.490023899998,754.490023899998,64,2.982,,,,,sub-066,70,100,700,bloc_loop.csv,2023-11-06_16h19.11.289,PainUncertainty,2022.2.5,143.0510792839391,
,,,,bloc_2,prob50_50_4trials.xlsx,2,8,50,50,1,,,,,0,1,1,1,,,,,0,0,0,0,,,,,,,,,,,,,,,,,,,754.490023899998,773.9647286999971,sub-066,70,100,700,bloc_loop.csv,2023-11-06_16h19.11.289,PainUncertainty,2022.2.5,143.0510792839391,
grave,moderee,stimuli/330Hz,stimuli/moderee,bloc_3,prob80hthp_12trials.xlsx,2,24,80,20,0,,,,,0,2,2,2,0,0,0,0,,,,,,,,4.1,775.3960495000356,779.5003674000036,779.5005164300325,0.3048344999551773,779.9443160000374,779.9443160000374,n,1.8034075999748893,783.8627362000407,783.8627362000407,30,2.032,,,,,sub-066,70,100,700,bloc_loop.csv,2023-11-06_16h19.11.289,PainUncertainty,2022.2.5,143.0510792839391,
grave,forte,stimuli/330Hz,stimuli/forte,bloc_3,prob80hthp_12trials.xlsx,2,24,80,20,0,,,,,0,2,2,2,0,1,1,5,,,,,,,,4.2,783.8627362000407,788.0638605999993,788.0638176300214,0.3049944000085816,788.5078011000296,788.5078011000296,m,1.0333898999961093,791.6111130000209,791.6111130000209,86,2.004,,,,,sub-066,70,100,700,bloc_loop.csv,2023-11-06_16h19.11.289,PainUncertainty,2022.2.5,143.0510792839391,
aigu,moderee,stimuli/660Hz,stimuli/moderee,bloc_3,prob80hthp_12trials.xlsx,2,24,80,20,0,,,,,0,2,2,2,0,2,2,11,,,,,,,,4.8,791.6111130000209,796.412367300014,796.4123061300139,0.3053261999739334,796.8598036000039,796.8598036000039,None,,802.0127627000329,802.0127627000329,40,2.636,,,,,sub-066,70,100,700,bloc_loop.csv,2023-11-06_16h19.11.289,PainUncertainty,2022.2.5,143.0510792839391,
aigu,forte,stimuli/660Hz,stimuli/forte,bloc_3,prob80hthp_12trials.xlsx,2,24,80,20,0,,,,,0,2,2,2,0,3,3,8,,,,,,,,3.9,802.0127627000329,805.9131225000019,805.9131312300102,0.30523290002020076,806.3573770000366,806.3573770000366,m,1.1437490999815054,810.3529470000067,810.3529470000067,83,2.775,,,,,sub-066,70,100,700,bloc_loop.csv,2023-11-06_16h19.11.289,PainUncertainty,2022.2.5,143.0510792839391,
grave,moderee,stimuli/330Hz,stimuli/moderee,bloc_3,prob80hthp_12trials.xlsx,2,24,80,20,0,,,,,0,2,2,2,0,4,4,2,,,,,,,,4.8,810.3529470000067,815.1572044999921,815.157301730034,0.3049983999808319,815.6016608999926,815.6016608999926,n,1.2422813999583013,819.7008194000227,819.7008194000227,18,2.782,,,,,sub-066,70,100,700,bloc_loop.csv,2023-11-06_16h19.11.289,PainUncertainty,2022.2.5,143.0510792839391,
aigu,forte,stimuli/660Hz,stimuli/forte,bloc_3,prob80hthp_12trials.xlsx,2,24,80,20,0,,,,,0,2,2,2,0,5,5,9,,,,,,,,4.9,819.7008194000227,824.6028108000173,824.6028889300302,0.30490829999325797,825.0469784000306,825.0469784000306,m,1.2251972000231035,828.7902967000264,828.7902967000264,95,2.462,,,,,sub-066,70,100,700,bloc_loop.csv,2023-11-06_16h19.11.289,PainUncertainty,2022.2.5,143.0510792839391,
aigu,forte,stimuli/660Hz,stimuli/forte,bloc_3,prob80hthp_12trials.xlsx,2,24,80,20,0,,,,,0,2,2,2,0,6,6,7,,,,,,,,4.7,828.7902967000264,833.4927538000047,833.4927948300261,0.3052229000022635,833.9370613000356,833.9370613000356,m,1.9182101999758743,837.2448577000177,837.2448577000177,60,1.302,,,,,sub-066,70,100,700,bloc_loop.csv,2023-11-06_16h19.11.289,PainUncertainty,2022.2.5,143.0510792839391,
grave,moderee,stimuli/330Hz,stimuli/moderee,bloc_3,prob80hthp_12trials.xlsx,2,24,80,20,0,,,,,0,2,2,2,0,7,7,3,,,,,,,,3.3,837.2448577000177,840.5495171000366,840.5497452300275,0.30497629998717457,840.9958852000418,840.9958852000418,n,0.5270236000069417,844.1459690000047,844.1459690000047,30,2.566,,,,,sub-066,70,100,700,bloc_loop.csv,2023-11-06_16h19.11.289,PainUncertainty,2022.2.5,143.0510792839391,
grave,moderee,stimuli/330Hz,stimuli/moderee,bloc_3,prob80hthp_12trials.xlsx,2,24,80,20,0,,,,,0,2,2,2,0,8,8,4,,,,,,,,4.6,844.1459690000047,848.7517395000323,848.7517846300267,0.3049050000263378,849.1959029000136,849.1959029000136,n,0.6377741000032984,854.2126823000144,854.2126823000144,9,4.303,,,,,sub-066,70,100,700,bloc_loop.csv,2023-11-06_16h19.11.289,PainUncertainty,2022.2.5,143.0510792839391,
aigu,forte,stimuli/660Hz,stimuli/forte,bloc_3,prob80hthp_12trials.xlsx,2,24,80,20,0,,,,,0,2,2,2,0,9,9,6,,,,,,,,4.3,854.2126823000144,858.5166765000322,858.5166962300078,0.3050659000291489,858.9608421000303,858.9608421000303,m,0.6411950000328943,862.2188237000373,862.2188237000373,87,2.545,,,,,sub-066,70,100,700,bloc_loop.csv,2023-11-06_16h19.11.289,PainUncertainty,2022.2.5,143.0510792839391,
grave,moderee,stimuli/330Hz,stimuli/moderee,bloc_3,prob80hthp_12trials.xlsx,2,24,80,20,0,,,,,0,2,2,2,0,10,10,1,,,,,,,,3,862.2188237000373,865.2189530000323,865.2190677300329,0.3051841999986209,865.6672755000181,865.6672755000181,n,0.7202316999901086,869.1039247000008,869.1039247000008,5,2.635,,,,,sub-066,70,100,700,bloc_loop.csv,2023-11-06_16h19.11.289,PainUncertainty,2022.2.5,143.0510792839391,
aigu,forte,stimuli/660Hz,stimuli/forte,bloc_3,prob80hthp_12trials.xlsx,2,24,80,20,0,,,,,0,2,2,2,0,11,11,10,,,,,,,,4,869.1039247000008,873.1088318999973,873.1088060300332,0.30518409999785945,873.5531878000475,873.5531878000475,m,0.80873160000192,877.8909683999955,877.8909683999955,91,3.467,,,,,sub-066,70,100,700,bloc_loop.csv,2023-11-06_16h19.11.289,PainUncertainty,2022.2.5,143.0510792839391,
aigu,forte,stimuli/660Hz,stimuli/forte,bloc_3,prob80hthp_12trials.xlsx,2,24,80,20,0,,,,,0,2,2,2,1,0,12,6,,,,,,,,4.2,877.8909683999955,882.0963705000468,882.0962867300492,0.304951699974481,882.5400471000466,882.5400471000466,m,0.7111284999991767,885.9114868000033,885.9114868000033,70,2.594,,,,,sub-066,70,100,700,bloc_loop.csv,2023-11-06_16h19.11.289,PainUncertainty,2022.2.5,143.0510792839391,
aigu,forte,stimuli/660Hz,stimuli/forte,bloc_3,prob80hthp_12trials.xlsx,2,24,80,20,0,,,,,0,2,2,2,1,1,13,8,,,,,,,,4,885.9114868000033,889.9163801000104,889.9164248300018,0.3048846999881789,890.3606271000463,890.3606271000463,m,0.9813572999555618,894.4298965000198,894.4298965000198,87,3.024,,,,,sub-066,70,100,700,bloc_loop.csv,2023-11-06_16h19.11.289,PainUncertainty,2022.2.5,143.0510792839391,
aigu,forte,stimuli/660Hz,stimuli/forte,bloc_3,prob80hthp_12trials.xlsx,2,24,80,20,0,,,,,0,2,2,2,1,2,14,7,,,,,,,,3.3,894.4298965000198,897.7297862000414,897.7297967300052,0.3050220999866724,898.1741256000241,898.1741256000241,None,,903.0419819999952,903.0419819999952,50,2.35,900.6431975000305,900.6431975000305,,,sub-066,70,100,700,bloc_loop.csv,2023-11-06_16h19.11.289,PainUncertainty,2022.2.5,143.0510792839391,
aigu,moderee,stimuli/660Hz,stimuli/moderee,bloc_3,prob80hthp_12trials.xlsx,2,24,80,20,0,,,,,0,2,2,2,1,3,15,11,,,,,,,,4.8,903.0419819999952,907.8424520000117,907.8442787300097,0.3035900999675505,908.2892615000019,908.2892615000019,n,0.6944821999641135,910.7903342000209,910.7903342000209,4,1.753,,,,,sub-066,70,100,700,bloc_loop.csv,2023-11-06_16h19.11.289,PainUncertainty,2022.2.5,143.0510792839391,
grave,moderee,stimuli/330Hz,stimuli/moderee,bloc_3,prob80hthp_12trials.xlsx,2,24,80,20,0,,,,,0,2,2,2,1,4,16,0,,,,,,,,4.7,910.7903342000209,915.4960735000204,915.4961233299924,0.3049654000205919,915.9399958000286,915.9399958000286,n,0.6426669000065885,919.5452504000277,919.5452504000277,16,2.906,,,,,sub-066,70,100,700,bloc_loop.csv,2023-11-06_16h19.11.289,PainUncertainty,2022.2.5,143.0510792839391,
grave,moderee,stimuli/330Hz,stimuli/moderee,bloc_3,prob80hthp_12trials.xlsx,2,24,80,20,0,,,,,0,2,2,2,1,5,17,3,,,,,,,,4.3,919.5452504000277,923.8509766000207,923.8510408300441,0.3050266999634914,924.2955814000452,924.2955814000452,n,0.60027659998741,927.2794584000367,927.2794584000367,27,2.33,,,,,sub-066,70,100,700,bloc_loop.csv,2023-11-06_16h19.11.289,PainUncertainty,2022.2.5,143.0510792839391,
grave,moderee,stimuli/330Hz,stimuli/moderee,bloc_3,prob80hthp_12trials.xlsx,2,24,80,20,0,,,,,0,2,2,2,1,6,18,2,,,,,,,,3.2,927.2794584000367,930.4840151999961,930.4841852300102,0.3050236999988556,930.9282589000068,930.9282589000068,n,0.4695759000023827,932.6804403000278,932.6804403000278,27,1.212,,,,,sub-066,70,100,700,bloc_loop.csv,2023-11-06_16h19.11.289,PainUncertainty,2022.2.5,143.0510792839391,
grave,forte,stimuli/330Hz,stimuli/forte,bloc_3,prob80hthp_12trials.xlsx,2,24,80,20,0,,,,,0,2,2,2,1,7,19,5,,,,,,,,3.6,932.6804403000278,936.2829820000334,936.2830143300467,0.3056452000164427,936.7321715000435,936.7321715000435,m,1.2076157999690622,941.0669914000318,941.0669914000318,96,3.072,,,,,sub-066,70,100,700,bloc_loop.csv,2023-11-06_16h19.11.289,PainUncertainty,2022.2.5,143.0510792839391,
aigu,forte,stimuli/660Hz,stimuli/forte,bloc_3,prob80hthp_12trials.xlsx,2,24,80,20,0,,,,,0,2,2,2,1,8,20,10,,,,,,,,4.8,941.0669914000318,945.8675525000435,945.8675092300051,0.3051473000086844,946.3159654000192,946.3159654000192,m,0.6688183000078425,949.1699437000207,949.1699437000207,85,2.13,,,,,sub-066,70,100,700,bloc_loop.csv,2023-11-06_16h19.11.289,PainUncertainty,2022.2.5,143.0510792839391,
aigu,forte,stimuli/660Hz,stimuli/forte,bloc_3,prob80hthp_12trials.xlsx,2,24,80,20,0,,,,,0,2,2,2,1,9,21,9,,,,,,,,3.6,949.1699437000207,952.7714195000008,952.7715694300365,0.30506880005123094,953.217672800005,953.217672800005,m,1.5427449999842793,957.6539460000349,957.6539460000349,65,2.808,,,,,sub-066,70,100,700,bloc_loop.csv,2023-11-06_16h19.11.289,PainUncertainty,2022.2.5,143.0510792839391,
grave,moderee,stimuli/330Hz,stimuli/moderee,bloc_3,prob80hthp_12trials.xlsx,2,24,80,20,0,,,,,0,2,2,2,1,10,22,4,,,,,,,,4.5,957.6539460000349,962.1540961000137,962.1542538299924,0.30675570003222674,962.6039639000082,962.6039639000082,n,1.118524299992714,967.1431532000424,967.1431532000424,8,3.364,,,,,sub-066,70,100,700,bloc_loop.csv,2023-11-06_16h19.11.289,PainUncertainty,2022.2.5,143.0510792839391,
grave,moderee,stimuli/330Hz,stimuli/moderee,bloc_3,prob80hthp_12trials.xlsx,2,24,80,20,0,,,,,0,2,2,2,1,11,23,1,,,,,,,,3.8,967.1431532000424,970.9470882000169,970.9471694299951,0.3049929999979213,971.3914216000121,971.3914216000121,n,1.5916018999996595,975.5631981000188,975.5631981000188,17,2.501,,,,,sub-066,70,100,700,bloc_loop.csv,2023-11-06_16h19.11.289,PainUncertainty,2022.2.5,143.0510792839391,
grave,forte,stimuli/330Hz,stimuli/forte,bloc_4,prob50_50_4trials.xlsx,2,8,50,50,1,,,,,0,3,3,3,0,0,0,1,,,,,,,,4.6,975.5631981000188,980.1638198000146,980.1641424300266,0.3046440999605693,980.6115607999964,980.6115607999964,m,1.4144730999832973,986.0295411000261,986.0295411000261,74,3.919,,,,,sub-066,70,100,700,bloc_loop.csv,2023-11-06_16h19.11.289,PainUncertainty,2022.2.5,143.0510792839391,
grave,moderee,stimuli/330Hz,stimuli/moderee,bloc_4,prob50_50_4trials.xlsx,2,8,50,50,1,,,,,0,3,3,3,0,1,1,0,,,,,,,,4.8,986.0295411000261,990.8313796000439,990.8313492300455,0.30499330000020564,991.279427600035,991.279427600035,m,1.5471007999731228,995.5672314999974,995.5672314999974,56,2.683,,,,,sub-066,70,100,700,bloc_loop.csv,2023-11-06_16h19.11.289,PainUncertainty,2022.2.5,143.0510792839391,
aigu,moderee,stimuli/660Hz,stimuli/moderee,bloc_4,prob50_50_4trials.xlsx,2,8,50,50,1,,,,,0,3,3,3,0,2,2,2,,,,,,,,3,995.5672314999974,998.5689849000191,998.5690042299917,0.3000012999982573,999.0141722999979,999.0141722999979,n,1.152301299967803,1002.3430300999898,1002.3430300999898,33,2.093,,,,,sub-066,70,100,700,bloc_loop.csv,2023-11-06_16h19.11.289,PainUncertainty,2022.2.5,143.0510792839391,
aigu,forte,stimuli/660Hz,stimuli/forte,bloc_4,prob50_50_4trials.xlsx,2,8,50,50,1,,,,,0,3,3,3,0,3,3,3,,,,,,,,3.7,1002.3430300999898,1006.0483899000101,1006.0484619300347,0.3049134999746457,1006.4926837999956,1006.4926837999956,m,0.8276732999947853,1011.0654805999948,1011.0654805999948,74,3.691,,,,,sub-066,70,100,700,bloc_loop.csv,2023-11-06_16h19.11.289,PainUncertainty,2022.2.5,143.0510792839391,
aigu,forte,stimuli/660Hz,stimuli/forte,bloc_4,prob50_50_4trials.xlsx,2,8,50,50,1,,,,,0,3,3,3,1,0,4,3,,,,,,,,3.5,1011.0654805999948,1014.5701492000371,1014.5703486300423,0.3047091999906115,1015.0143937999965,1015.0143937999965,n,2.27873019996332,1019.9191924000042,1019.9191924000042,49,2.538,,,,,sub-066,70,100,700,bloc_loop.csv,2023-11-06_16h19.11.289,PainUncertainty,2022.2.5,143.0510792839391,
grave,moderee,stimuli/330Hz,stimuli/moderee,bloc_4,prob50_50_4trials.xlsx,2,8,50,50,1,,,,,0,3,3,3,1,1,5,0,,,,,,,,4.7,1019.9191924000042,1024.6199967000284,1024.6200177300138,0.305286500020884,1025.064338700031,1025.064338700031,n,1.134978600020986,1028.482641700015,1028.482641700015,3,2.2,,,,,sub-066,70,100,700,bloc_loop.csv,2023-11-06_16h19.11.289,PainUncertainty,2022.2.5,143.0510792839391,
grave,forte,stimuli/330Hz,stimuli/forte,bloc_4,prob50_50_4trials.xlsx,2,8,50,50,1,,,,,0,3,3,3,1,2,6,1,,,,,,,,3.9,1028.482641700015,1032.384831400006,1032.3849636300233,0.30555119999917224,1032.8336324000265,1032.8336324000265,n,0.6085026999935508,1036.136948600004,1036.136948600004,34,2.606,,,,,sub-066,70,100,700,bloc_loop.csv,2023-11-06_16h19.11.289,PainUncertainty,2022.2.5,143.0510792839391,
aigu,moderee,stimuli/660Hz,stimuli/moderee,bloc_4,prob50_50_4trials.xlsx,2,8,50,50,1,,,,,0,3,3,3,1,3,7,2,,,,,,,,3,1036.136948600004,1039.1426163000287,1039.1427279300055,0.3049913000431843,1039.5869498000247,1039.5869498000247,n,1.83933899999829,1046.1785305000376,1046.1785305000376,35,2.719,,,,,sub-066,70,100,700,bloc_loop.csv,2023-11-06_16h19.11.289,PainUncertainty,2022.2.5,143.0510792839391,
,,,,bloc_4,prob50_50_4trials.xlsx,2,8,50,50,1,,,,,0,3,3,3,,,,,0,0,0,0,,,,,,,,,,,,,,,,,,,1046.1785305000376,1068.3821638000081,sub-066,70,100,700,bloc_loop.csv,2023-11-06_16h19.11.289,PainUncertainty,2022.2.5,143.0510792839391,
grave,forte,stimuli/330Hz,stimuli/forte,bloc_5,prob20hthp_12trials.xlsx,2,24,20,80,0,,,,,0,4,4,4,0,0,0,0,,,,,,,,3.6,1070.28069590003,1073.8828168000327,1073.8828608300187,0.30490059999283403,1074.327155100007,1074.327155100007,m,1.07259029999841,1078.2060480000218,1078.2060480000218,76,2.733,,,,,sub-066,70,100,700,bloc_loop.csv,2023-11-06_16h19.11.289,PainUncertainty,2022.2.5,143.0510792839391,
aigu,moderee,stimuli/660Hz,stimuli/moderee,bloc_5,prob20hthp_12trials.xlsx,2,24,20,80,0,,,,,0,4,4,4,0,1,1,6,,,,,,,,4.4,1078.2060480000218,1082.6060602000216,1082.6062299300334,0.3048261000076309,1083.0505167000229,1083.0505167000229,n,1.0057924999855459,1086.5298681000131,1086.5298681000131,21,2.392,,,,,sub-066,70,100,700,bloc_loop.csv,2023-11-06_16h19.11.289,PainUncertainty,2022.2.5,143.0510792839391,
aigu,forte,stimuli/660Hz,stimuli/forte,bloc_5,prob20hthp_12trials.xlsx,2,24,20,80,0,,,,,0,4,4,4,0,2,2,11,,,,,,,,3.5,1086.5298681000131,1090.030545799993,1090.0305693299974,0.3049931999994442,1090.4747208000044,1090.4747208000044,m,1.041020300006494,1094.5038511000457,1094.5038511000457,83,2.914,,,,,sub-066,70,100,700,bloc_loop.csv,2023-11-06_16h19.11.289,PainUncertainty,2022.2.5,143.0510792839391,
aigu,moderee,stimuli/660Hz,stimuli/moderee,bloc_5,prob20hthp_12trials.xlsx,2,24,20,80,0,,,,,0,4,4,4,0,3,3,10,,,,,,,,4.2,1094.5038511000457,1098.705913300044,1098.7057104300125,0.3055568999843672,1099.1543033000198,1099.1543033000198,n,0.7384528000256978,1102.3462741000112,1102.3462741000112,29,2.404,,,,,sub-066,70,100,700,bloc_loop.csv,2023-11-06_16h19.11.289,PainUncertainty,2022.2.5,143.0510792839391,
aigu,moderee,stimuli/660Hz,stimuli/moderee,bloc_5,prob20hthp_12trials.xlsx,2,24,20,80,0,,,,,0,4,4,4,0,4,4,9,,,,,,,,3.4,1102.3462741000112,1105.747869200015,1105.7479022300336,0.3048619999899529,1106.1919172999915,1106.1919172999915,n,1.1196063999668695,1110.7045530999894,1110.7045530999894,16,3.309,,,,,sub-066,70,100,700,bloc_loop.csv,2023-11-06_16h19.11.289,PainUncertainty,2022.2.5,143.0510792839391,
grave,forte,stimuli/330Hz,stimuli/forte,bloc_5,prob20hthp_12trials.xlsx,2,24,20,80,0,,,,,0,4,4,4,0,5,5,2,,,,,,,,4.4,1110.7045530999894,1115.1099978000275,1115.110038330045,0.30509099998744205,1115.554568600026,1115.554568600026,m,0.5910988000105135,1118.2448038000148,1118.2448038000148,83,2.038,,,,,sub-066,70,100,700,bloc_loop.csv,2023-11-06_16h19.11.289,PainUncertainty,2022.2.5,143.0510792839391,
grave,forte,stimuli/330Hz,stimuli/forte,bloc_5,prob20hthp_12trials.xlsx,2,24,20,80,0,,,,,0,4,4,4,0,6,6,4,,,,,,,,4.6,1118.2448038000148,1122.8473064000136,1122.8472555300336,0.3049371999804862,1123.2913456000388,1123.2913456000388,m,0.7158942999667488,1127.545901900041,1127.545901900041,79,3.451,,,,,sub-066,70,100,700,bloc_loop.csv,2023-11-06_16h19.11.289,PainUncertainty,2022.2.5,143.0510792839391,
aigu,moderee,stimuli/660Hz,stimuli/moderee,bloc_5,prob20hthp_12trials.xlsx,2,24,20,80,0,,,,,0,4,4,4,0,7,7,8,,,,,,,,3.6,1127.545901900041,1131.1465754000237,1131.1466589300194,0.30525269999634475,1131.591059600003,1131.591059600003,n,0.741172399953939,1135.165697999997,1135.165697999997,2,2.781,,,,,sub-066,70,100,700,bloc_loop.csv,2023-11-06_16h19.11.289,PainUncertainty,2022.2.5,143.0510792839391,
grave,moderee,stimuli/330Hz,stimuli/moderee,bloc_5,prob20hthp_12trials.xlsx,2,24,20,80,0,,,,,0,4,4,4,0,8,8,5,,,,,,,,5,1135.165697999997,1140.1684379000217,1140.1686215300228,0.3013173000072129,1140.612874500046,1140.612874500046,n,1.428974999987986,1144.0341623999993,1144.0341623999993,24,1.913,,,,,sub-066,70,100,700,bloc_loop.csv,2023-11-06_16h19.11.289,PainUncertainty,2022.2.5,143.0510792839391,
grave,forte,stimuli/330Hz,stimuli/forte,bloc_5,prob20hthp_12trials.xlsx,2,24,20,80,0,,,,,0,4,4,4,0,9,9,1,,,,,,,,3.8,1144.0341623999993,1147.8360388000146,1147.8360422300407,0.3051126000354998,1148.2802125000162,1148.2802125000162,m,0.7637132999952883,1152.3900244000251,1152.3900244000251,89,3.242,,,,,sub-066,70,100,700,bloc_loop.csv,2023-11-06_16h19.11.289,PainUncertainty,2022.2.5,143.0510792839391,
grave,forte,stimuli/330Hz,stimuli/forte,bloc_5,prob20hthp_12trials.xlsx,2,24,20,80,0,,,,,0,4,4,4,0,10,10,3,,,,,,,,4.6,1152.3900244000251,1156.9898780999938,1156.990013330034,0.30512769997585565,1157.434241400042,1157.434241400042,m,0.9765932000009343,1160.7792259000125,1160.7792259000125,71,2.288,,,,,sub-066,70,100,700,bloc_loop.csv,2023-11-06_16h19.11.289,PainUncertainty,2022.2.5,143.0510792839391,
aigu,moderee,stimuli/660Hz,stimuli/moderee,bloc_5,prob20hthp_12trials.xlsx,2,24,20,80,0,,,,,0,4,4,4,0,11,11,7,,,,,,,,4.5,1160.7792259000125,1165.2825873999973,1165.2826496300054,0.3051067999913357,1165.7267087000073,1165.7267087000073,n,1.050902999995742,1168.768391599995,1168.768391599995,41,1.906,,,,,sub-066,70,100,700,bloc_loop.csv,2023-11-06_16h19.11.289,PainUncertainty,2022.2.5,143.0510792839391,
grave,forte,stimuli/330Hz,stimuli/forte,bloc_5,prob20hthp_12trials.xlsx,2,24,20,80,0,,,,,0,4,4,4,1,0,12,1,,,,,,,,4.6,1168.768391599995,1173.3697492000065,1173.3674924299935,0.30461920000379905,1173.8110338000115,1173.8110338000115,m,1.0977300000377,1178.450360500021,1178.450360500021,64,3.491,,,,,sub-066,70,100,700,bloc_loop.csv,2023-11-06_16h19.11.289,PainUncertainty,2022.2.5,143.0510792839391,
grave,forte,stimuli/330Hz,stimuli/forte,bloc_5,prob20hthp_12trials.xlsx,2,24,20,80,0,,,,,0,4,4,4,1,1,13,2,,,,,,,,5,1178.450360500021,1183.4514577999944,1183.4515554300392,0.3051158000016585,1183.895599600044,1183.895599600044,m,0.8746963000157848,1187.429839999997,1187.429839999997,79,2.58,,,,,sub-066,70,100,700,bloc_loop.csv,2023-11-06_16h19.11.289,PainUncertainty,2022.2.5,143.0510792839391,
aigu,moderee,stimuli/660Hz,stimuli/moderee,bloc_5,prob20hthp_12trials.xlsx,2,24,20,80,0,,,,,0,4,4,4,1,2,14,8,,,,,,,,4.7,1187.429839999997,1192.1329440000118,1192.1335531299933,0.30431870004395023,1192.5772672000458,1192.5772672000458,n,0.5746052999747917,1195.5310094000306,1195.5310094000306,27,2.302,,,,,sub-066,70,100,700,bloc_loop.csv,2023-11-06_16h19.11.289,PainUncertainty,2022.2.5,143.0510792839391,
grave,forte,stimuli/330Hz,stimuli/forte,bloc_5,prob20hthp_12trials.xlsx,2,24,20,80,0,,,,,0,4,4,4,1,3,15,0,,,,,,,,4.8,1195.5310094000306,1200.3353372000274,1200.3353522300254,0.30532230000244454,1200.7794808000326,1200.7794808000326,m,0.8386957999900915,1203.981782399991,1203.981782399991,80,2.301,,,,,sub-066,70,100,700,bloc_loop.csv,2023-11-06_16h19.11.289,PainUncertainty,2022.2.5,143.0510792839391,
aigu,forte,stimuli/660Hz,stimuli/forte,bloc_5,prob20hthp_12trials.xlsx,2,24,20,80,0,,,,,0,4,4,4,1,4,16,11,,,,,,,,3.2,1203.981782399991,1207.183391700033,1207.1834445300278,0.30521529994439334,1207.6275300999987,1207.6275300999987,m,1.2098363999975845,1212.0846499000327,1212.0846499000327,92,3.163,,,,,sub-066,70,100,700,bloc_loop.csv,2023-11-06_16h19.11.289,PainUncertainty,2022.2.5,143.0510792839391,
aigu,moderee,stimuli/660Hz,stimuli/moderee,bloc_5,prob20hthp_12trials.xlsx,2,24,20,80,0,,,,,0,4,4,4,1,5,17,7,,,,,,,,3.7,1212.0846499000327,1215.7885805999977,1215.7887945299967,0.2994585999986157,1216.2335767000332,1216.2335767000332,n,0.47692210000241175,1220.4395961000118,1220.4395961000118,13,3.677,,,,,sub-066,70,100,700,bloc_loop.csv,2023-11-06_16h19.11.289,PainUncertainty,2022.2.5,143.0510792839391,
aigu,moderee,stimuli/660Hz,stimuli/moderee,bloc_5,prob20hthp_12trials.xlsx,2,24,20,80,0,,,,,0,4,4,4,1,6,18,9,,,,,,,,4.5,1220.4395961000118,1224.9424391000066,1224.9423842299962,0.30517710000276566,1225.3869916000403,1225.3869916000403,n,0.4717636000132188,1227.276513800025,1227.276513800025,14,1.348,,,,,sub-066,70,100,700,bloc_loop.csv,2023-11-06_16h19.11.289,PainUncertainty,2022.2.5,143.0510792839391,
grave,forte,stimuli/330Hz,stimuli/forte,bloc_5,prob20hthp_12trials.xlsx,2,24,20,80,0,,,,,0,4,4,4,1,7,19,4,,,,,,,,3.2,1227.276513800025,1230.4779301999952,1230.4780521299922,0.3047505000140518,1230.9223225000314,1230.9223225000314,n,0.9519958000164479,1235.0274827000103,1235.0274827000103,39,3.087,,,,,sub-066,70,100,700,bloc_loop.csv,2023-11-06_16h19.11.289,PainUncertainty,2022.2.5,143.0510792839391,
aigu,moderee,stimuli/660Hz,stimuli/moderee,bloc_5,prob20hthp_12trials.xlsx,2,24,20,80,0,,,,,0,4,4,4,1,8,20,10,,,,,,,,3.5,1235.0274827000103,1238.5288273000042,1238.5276293300208,0.30104420002317056,1238.9721721000387,1238.9721721000387,n,1.1436267999815755,1243.5118165000458,1243.5118165000458,8,3.315,,,,,sub-066,70,100,700,bloc_loop.csv,2023-11-06_16h19.11.289,PainUncertainty,2022.2.5,143.0510792839391,
grave,forte,stimuli/330Hz,stimuli/forte,bloc_5,prob20hthp_12trials.xlsx,2,24,20,80,0,,,,,0,4,4,4,1,9,21,3,,,,,,,,4.3,1243.5118165000458,1247.8131405000458,1247.8132757300277,0.30486209999071434,1248.2574108000263,1248.2574108000263,m,1.6613283000187948,1252.8918018999975,1252.8918018999975,61,2.893,,,,,sub-066,70,100,700,bloc_loop.csv,2023-11-06_16h19.11.289,PainUncertainty,2022.2.5,143.0510792839391,
aigu,moderee,stimuli/660Hz,stimuli/moderee,bloc_5,prob20hthp_12trials.xlsx,2,24,20,80,0,,,,,0,4,4,4,1,10,22,6,,,,,,,,3.7,1252.8918018999975,1256.5918530999916,1256.591916430008,0.30553290003445,1257.036365900014,1257.036365900014,n,0.5511804999550804,1260.7662146000075,1260.7662146000075,17,3.121,,,,,sub-066,70,100,700,bloc_loop.csv,2023-11-06_16h19.11.289,PainUncertainty,2022.2.5,143.0510792839391,
grave,moderee,stimuli/330Hz,stimuli/moderee,bloc_5,prob20hthp_12trials.xlsx,2,24,20,80,0,,,,,0,4,4,4,1,11,23,5,,,,,,,,4.8,1260.7662146000075,1265.5657808000105,1265.565760030027,0.30751360004069284,1266.0170859000064,1266.0170859000064,n,1.4974917000508867,1269.827033300011,1269.827033300011,26,2.233,,,,,sub-066,70,100,700,bloc_loop.csv,2023-11-06_16h19.11.289,PainUncertainty,2022.2.5,143.0510792839391,
aigu,forte,stimuli/660Hz,stimuli/forte,bloc_6,prob50_50_4trials.xlsx,2,8,50,50,0,,,,,0,5,5,5,0,0,0,3,,,,,,,,4.6,1269.827033300011,1274.4278164000134,1274.4277803300297,0.3049072999856435,1274.871787900047,1274.871787900047,n,0.7611776999547146,1278.887065100018,1278.887065100018,21,3.17,,,,,sub-066,70,100,700,bloc_loop.csv,2023-11-06_16h19.11.289,PainUncertainty,2022.2.5,143.0510792839391,
grave,moderee,stimuli/330Hz,stimuli/moderee,bloc_6,prob50_50_4trials.xlsx,2,8,50,50,0,,,,,0,5,5,5,0,1,1,0,,,,,,,,4,1278.887065100018,1282.8867139000213,1282.886785030039,0.30484890000661835,1283.335061700025,1283.335061700025,n,1.9211464999825694,1286.8289450000157,1286.8289450000157,39,1.489,,,,,sub-066,70,100,700,bloc_loop.csv,2023-11-06_16h19.11.289,PainUncertainty,2022.2.5,143.0510792839391,
grave,forte,stimuli/330Hz,stimuli/forte,bloc_6,prob50_50_4trials.xlsx,2,8,50,50,0,,,,,0,5,5,5,0,2,2,1,,,,,,,,4.2,1286.8289450000157,1291.0342552000075,1291.0338527300278,0.30512669996824116,1291.4782703000237,1291.4782703000237,m,0.6467171999975108,1295.3769072000287,1295.3769072000287,91,3.177,,,,,sub-066,70,100,700,bloc_loop.csv,2023-11-06_16h19.11.289,PainUncertainty,2022.2.5,143.0510792839391,
aigu,moderee,stimuli/660Hz,stimuli/moderee,bloc_6,prob50_50_4trials.xlsx,2,8,50,50,0,,,,,0,5,5,5,0,3,3,2,,,,,,,,4,1295.3769072000287,1299.381869600038,1299.3819251299951,0.30511429999023676,1299.8296272000298,1299.8296272000298,n,1.4931012999732047,1302.357875100046,1302.357875100046,20,0.976,,,,,sub-066,70,100,700,bloc_loop.csv,2023-11-06_16h19.11.289,PainUncertainty,2022.2.5,143.0510792839391,
aigu,moderee,stimuli/660Hz,stimuli/moderee,bloc_6,prob50_50_4trials.xlsx,2,8,50,50,0,,,,,0,5,5,5,1,0,4,2,,,,,,,,3.7,1302.357875100046,1306.0631331999903,1306.0632792299962,0.30506620003143325,1306.507676600013,1306.507676600013,n,0.7135017000255175,1309.1008071000106,1309.1008071000106,32,1.81,,,,,sub-066,70,100,700,bloc_loop.csv,2023-11-06_16h19.11.289,PainUncertainty,2022.2.5,143.0510792839391,
aigu,forte,stimuli/660Hz,stimuli/forte,bloc_6,prob50_50_4trials.xlsx,2,8,50,50,0,,,,,0,5,5,5,1,1,5,3,,,,,,,,3.2,1309.1008071000106,1312.2999878000119,1312.3000196300213,0.30498099996475503,1312.7464088000124,1312.7464088000124,m,1.7019321999978274,1315.7161168000312,1315.7161168000312,70,1.19,,,,,sub-066,70,100,700,bloc_loop.csv,2023-11-06_16h19.11.289,PainUncertainty,2022.2.5,143.0510792839391,
grave,moderee,stimuli/330Hz,stimuli/moderee,bloc_6,prob50_50_4trials.xlsx,2,8,50,50,0,,,,,0,5,5,5,1,2,6,0,,,,,,,,4.9,1315.7161168000312,1320.6208754000254,1320.6205075300181,0.30494719999842346,1321.0719171999954,1321.0719171999954,n,0.8024772999924608,1325.238383000018,1325.238383000018,1,3.289,,,,,sub-066,70,100,700,bloc_loop.csv,2023-11-06_16h19.11.289,PainUncertainty,2022.2.5,143.0510792839391,
grave,forte,stimuli/330Hz,stimuli/forte,bloc_6,prob50_50_4trials.xlsx,2,8,50,50,0,,,,,0,5,5,5,1,3,7,1,,,,,,,,4.8,1325.238383000018,1330.0382776000188,1330.0382899299962,0.30492829997092485,1330.4823378000292,1330.4823378000292,m,0.7833552000229247,1333.6576866999967,1333.6576866999967,80,2.329,,,,,sub-066,70,100,700,bloc_loop.csv,2023-11-06_16h19.11.289,PainUncertainty,2022.2.5,143.0510792839391,
aigu,forte,stimuli/660Hz,stimuli/forte,bloc_7,prob80hthp_12trials.xlsx,2,24,80,20,1,,,,,0,6,6,6,0,0,0,10,,,,,,,,3.5,1333.6576866999967,1337.1573750000098,1337.157184330013,0.30519660003483295,1337.6013389000436,1337.6013389000436,m,1.5482715999823995,1342.1107609000173,1342.1107609000173,63,2.893,,,,,sub-066,70,100,700,bloc_loop.csv,2023-11-06_16h19.11.289,PainUncertainty,2022.2.5,143.0510792839391,
grave,moderee,stimuli/330Hz,stimuli/moderee,bloc_7,prob80hthp_12trials.xlsx,2,24,80,20,1,,,,,0,6,6,6,0,1,1,4,,,,,,,,3,1342.1107609000173,1345.1129592999932,1345.1102179300156,0.3048205000231974,1345.5579107000376,1345.5579107000376,n,0.6970045999623835,1350.0204804000095,1350.0204804000095,5,3.705,,,,,sub-066,70,100,700,bloc_loop.csv,2023-11-06_16h19.11.289,PainUncertainty,2022.2.5,143.0510792839391,
aigu,moderee,stimuli/660Hz,stimuli/moderee,bloc_7,prob80hthp_12trials.xlsx,2,24,80,20,1,,,,,0,6,6,6,0,2,2,11,,,,,,,,3.1,1350.0204804000095,1353.1244387000334,1353.1245047300122,0.30483179999282584,1353.5722049000324,1353.5722049000324,n,0.7857457000063732,1359.6396393000032,1359.6396393000032,9,5.198,,,,,sub-066,70,100,700,bloc_loop.csv,2023-11-06_16h19.11.289,PainUncertainty,2022.2.5,143.0510792839391,
aigu,forte,stimuli/660Hz,stimuli/forte,bloc_7,prob80hthp_12trials.xlsx,2,24,80,20,1,,,,,0,6,6,6,0,3,3,6,,,,,,,,4.1,1359.6396393000032,1363.74398259999,1363.744062330015,0.3051903999876231,1364.1898228999926,1364.1898228999926,m,2.0125988999498077,1368.8573017000454,1368.8573017000454,57,2.579,,,,,sub-066,70,100,700,bloc_loop.csv,2023-11-06_16h19.11.289,PainUncertainty,2022.2.5,143.0510792839391,
grave,moderee,stimuli/330Hz,stimuli/moderee,bloc_7,prob80hthp_12trials.xlsx,2,24,80,20,1,,,,,0,6,6,6,0,4,4,2,,,,,,,,3.8,1368.8573017000454,1372.6613406999968,1372.661254530039,0.3054338000365533,1373.1060330000473,1373.1060330000473,n,1.3845315999933518,1378.0766320000403,1378.0766320000403,23,3.524,,,,,sub-066,70,100,700,bloc_loop.csv,2023-11-06_16h19.11.289,PainUncertainty,2022.2.5,143.0510792839391,
grave,moderee,stimuli/330Hz,stimuli/moderee,bloc_7,prob80hthp_12trials.xlsx,2,24,80,20,1,,,,,0,6,6,6,0,5,5,1,,,,,,,,3.3,1378.0766320000403,1381.3780573999975,1381.378068530024,0.30501720000756904,1381.8218091000454,1381.8218091000454,m,1.6890099000302143,1384.500763499993,1384.500763499993,80,0.913,,,,,sub-066,70,100,700,bloc_loop.csv,2023-11-06_16h19.11.289,PainUncertainty,2022.2.5,143.0510792839391,
grave,forte,stimuli/330Hz,stimuli/forte,bloc_7,prob80hthp_12trials.xlsx,2,24,80,20,1,,,,,0,6,6,6,0,6,6,5,,,,,,,,3.7,1384.500763499993,1388.205260800023,1388.2059677299926,0.3010682000312954,1388.649456700019,1388.649456700019,m,0.9697251999750733,1392.2796360999928,1392.2796360999928,90,2.599,,,,,sub-066,70,100,700,bloc_loop.csv,2023-11-06_16h19.11.289,PainUncertainty,2022.2.5,143.0510792839391,
aigu,forte,stimuli/660Hz,stimuli/forte,bloc_7,prob80hthp_12trials.xlsx,2,24,80,20,1,,,,,0,6,6,6,0,7,7,7,,,,,,,,4.8,1392.2796360999928,1397.0809566000244,1397.0808473300071,0.3050091000040993,1397.5250769000268,1397.5250769000268,n,0.6996440999791957,1400.700989200035,1400.700989200035,42,2.406,,,,,sub-066,70,100,700,bloc_loop.csv,2023-11-06_16h19.11.289,PainUncertainty,2022.2.5,143.0510792839391,
grave,moderee,stimuli/330Hz,stimuli/moderee,bloc_7,prob80hthp_12trials.xlsx,2,24,80,20,1,,,,,0,6,6,6,0,8,8,0,,,,,,,,4.2,1400.700989200035,1404.901169400022,1404.9013815300073,0.30480320000788197,1405.3526799000101,1405.3526799000101,m,1.72099480003817,1410.7193147999933,1410.7193147999933,66,3.566,,,,,sub-066,70,100,700,bloc_loop.csv,2023-11-06_16h19.11.289,PainUncertainty,2022.2.5,143.0510792839391,
aigu,forte,stimuli/660Hz,stimuli/forte,bloc_7,prob80hthp_12trials.xlsx,2,24,80,20,1,,,,,0,6,6,6,0,9,9,9,,,,,,,,3.7,1410.7193147999933,1414.4235610000324,1414.4240372299914,0.2993777999654412,1414.8676836999948,1414.8676836999948,m,0.9035492999828421,1418.548381600005,1418.548381600005,95,2.721,,,,,sub-066,70,100,700,bloc_loop.csv,2023-11-06_16h19.11.289,PainUncertainty,2022.2.5,143.0510792839391,
aigu,forte,stimuli/660Hz,stimuli/forte,bloc_7,prob80hthp_12trials.xlsx,2,24,80,20,1,,,,,0,6,6,6,0,10,10,8,,,,,,,,4.2,1418.548381600005,1422.7505567999906,1422.7505441300104,0.3054202999919653,1423.194870300009,1423.194870300009,m,1.6235138000338338,1427.6726325000054,1427.6726325000054,62,2.775,,,,,sub-066,70,100,700,bloc_loop.csv,2023-11-06_16h19.11.289,PainUncertainty,2022.2.5,143.0510792839391,
grave,moderee,stimuli/330Hz,stimuli/moderee,bloc_7,prob80hthp_12trials.xlsx,2,24,80,20,1,,,,,0,6,6,6,0,11,11,3,,,,,,,,3,1427.6726325000054,1430.6756003000191,1430.675566829997,0.30492590001085773,1431.1195914000273,1431.1195914000273,n,0.5479469000129029,1434.6065330000129,1434.6065330000129,19,2.885,,,,,sub-066,70,100,700,bloc_loop.csv,2023-11-06_16h19.11.289,PainUncertainty,2022.2.5,143.0510792839391,
grave,moderee,stimuli/330Hz,stimuli/moderee,bloc_7,prob80hthp_12trials.xlsx,2,24,80,20,1,,,,,0,6,6,6,1,0,12,4,,,,,,,,3,1434.6065330000129,1437.606905499997,1437.6069878300418,0.30121870001312345,1438.0512168999994,1438.0512168999994,n,0.5016293000080623,1440.837659700017,1440.837659700017,15,2.225,,,,,sub-066,70,100,700,bloc_loop.csv,2023-11-06_16h19.11.289,PainUncertainty,2022.2.5,143.0510792839391,
aigu,moderee,stimuli/660Hz,stimuli/moderee,bloc_7,prob80hthp_12trials.xlsx,2,24,80,20,1,,,,,0,6,6,6,1,1,13,11,,,,,,,,4.6,1440.837659700017,1445.4411254000152,1445.441219230031,0.2992429999867454,1445.8834389999975,1445.8834389999975,n,0.7329405999626033,1448.8907372000394,1448.8907372000394,4,2.193,,,,,sub-066,70,100,700,bloc_loop.csv,2023-11-06_16h19.11.289,PainUncertainty,2022.2.5,143.0510792839391,
aigu,forte,stimuli/660Hz,stimuli/forte,bloc_7,prob80hthp_12trials.xlsx,2,24,80,20,1,,,,,0,6,6,6,1,2,14,6,,,,,,,,3.6,1448.8907372000394,1452.4903448999976,1452.4904548300196,0.304814700037241,1452.934696500015,1452.934696500015,m,1.0036097000120208,1457.676309500006,1457.676309500006,89,3.657,,,,,sub-066,70,100,700,bloc_loop.csv,2023-11-06_16h19.11.289,PainUncertainty,2022.2.5,143.0510792839391,
grave,moderee,stimuli/330Hz,stimuli/moderee,bloc_7,prob80hthp_12trials.xlsx,2,24,80,20,1,,,,,0,6,6,6,1,3,15,3,,,,,,,,4.6,1457.676309500006,1462.2762647999916,1462.276164530043,0.30508410005131736,1462.7204395000008,1462.7204395000008,m,1.7237317999824882,1466.7371610000264,1466.7371610000264,65,2.225,,,,,sub-066,70,100,700,bloc_loop.csv,2023-11-06_16h19.11.289,PainUncertainty,2022.2.5,143.0510792839391,
grave,moderee,stimuli/330Hz,stimuli/moderee,bloc_7,prob80hthp_12trials.xlsx,2,24,80,20,1,,,,,0,6,6,6,1,4,16,2,,,,,,,,4.5,1466.7371610000264,1471.242467700038,1471.2424912300426,0.3052832999965176,1471.68672290002,1471.68672290002,n,1.6097760000266135,1476.8816888000001,1476.8816888000001,34,3.529,,,,,sub-066,70,100,700,bloc_loop.csv,2023-11-06_16h19.11.289,PainUncertainty,2022.2.5,143.0510792839391,
grave,moderee,stimuli/330Hz,stimuli/moderee,bloc_7,prob80hthp_12trials.xlsx,2,24,80,20,1,,,,,0,6,6,6,1,5,17,0,,,,,,,,4,1476.8816888000001,1480.8825312000117,1480.8826156300142,0.3047950000036508,1481.3291515000165,1481.3291515000165,n,0.8893619000446051,1484.201983200037,1484.201983200037,18,1.899,,,,,sub-066,70,100,700,bloc_loop.csv,2023-11-06_16h19.11.289,PainUncertainty,2022.2.5,143.0510792839391,
aigu,forte,stimuli/660Hz,stimuli/forte,bloc_7,prob80hthp_12trials.xlsx,2,24,80,20,1,,,,,0,6,6,6,1,6,18,10,,,,,,,,4.3,1484.201983200037,1488.501444900001,1488.5013796300277,0.30529719998594373,1488.9455299000256,1488.9455299000256,None,,1494.8427729000105,1494.8427729000105,69,3.392,1491.414670200029,1491.414670200029,,,sub-066,70,100,700,bloc_loop.csv,2023-11-06_16h19.11.289,PainUncertainty,2022.2.5,143.0510792839391,
aigu,forte,stimuli/660Hz,stimuli/forte,bloc_7,prob80hthp_12trials.xlsx,2,24,80,20,1,,,,,0,6,6,6,1,7,19,9,,,,,,,,3.6,1494.8427729000105,1498.4471041000215,1498.4471016300026,0.30558310000924394,1498.894895000034,1498.894895000034,m,0.7391491999733262,1501.1212185000186,1501.1212185000186,85,1.419,,,,,sub-066,70,100,700,bloc_loop.csv,2023-11-06_16h19.11.289,PainUncertainty,2022.2.5,143.0510792839391,
grave,moderee,stimuli/330Hz,stimuli/moderee,bloc_7,prob80hthp_12trials.xlsx,2,24,80,20,1,,,,,0,6,6,6,1,8,20,1,,,,,,,,4.8,1501.1212185000186,1505.9204394000117,1505.9205998300108,0.3052025999641046,1506.366591099999,1506.366591099999,n,1.0953728999593295,1510.1019539000117,1510.1019539000117,26,2.565,,,,,sub-066,70,100,700,bloc_loop.csv,2023-11-06_16h19.11.289,PainUncertainty,2022.2.5,143.0510792839391,
grave,forte,stimuli/330Hz,stimuli/forte,bloc_7,prob80hthp_12trials.xlsx,2,24,80,20,1,,,,,0,6,6,6,1,9,21,5,,,,,,,,4.7,1510.1019539000117,1514.8034817000153,1514.8048498300136,0.2991858000168577,1515.2478171000257,1515.2478171000257,m,0.7034381999983452,1519.7345511000021,1519.7345511000021,79,3.719,,,,,sub-066,70,100,700,bloc_loop.csv,2023-11-06_16h19.11.289,PainUncertainty,2022.2.5,143.0510792839391,
aigu,forte,stimuli/660Hz,stimuli/forte,bloc_7,prob80hthp_12trials.xlsx,2,24,80,20,1,,,,,0,6,6,6,1,10,22,7,,,,,,,,4.1,1519.7345511000021,1523.8389275000081,1523.8389445300213,0.30499609996331856,1524.2834341000416,1524.2834341000416,m,0.7340084000024945,1528.6987203000463,1528.6987203000463,95,3.563,,,,,sub-066,70,100,700,bloc_loop.csv,2023-11-06_16h19.11.289,PainUncertainty,2022.2.5,143.0510792839391,
aigu,forte,stimuli/660Hz,stimuli/forte,bloc_7,prob80hthp_12trials.xlsx,2,24,80,20,1,,,,,0,6,6,6,1,11,23,8,,,,,,,,3.3,1528.6987203000463,1532.0001172000193,1532.0000142299918,0.30503739998675883,1532.4442990000243,1532.4442990000243,m,0.7740125000127591,1538.854817000043,1538.854817000043,92,3.601,,,,,sub-066,70,100,700,bloc_loop.csv,2023-11-06_16h19.11.289,PainUncertainty,2022.2.5,143.0510792839391,
,,,,bloc_7,prob80hthp_12trials.xlsx,2,24,80,20,1,,,,,0,6,6,6,,,,,0,0,0,0,,,,,,,,,,,,,,,,,,,1538.854817000043,1557.2874356000102,sub-066,70,100,700,bloc_loop.csv,2023-11-06_16h19.11.289,PainUncertainty,2022.2.5,143.0510792839391,
aigu,moderee,stimuli/660Hz,stimuli/moderee,bloc_8,prob50_50_4trials.xlsx,3,12,50,50,0,,,,,0,7,7,7,0,0,0,2,,,,,,,,3.9,1558.5629474000307,1562.468782800017,1562.4689141300273,0.29941199999302626,1562.910926200042,1562.910926200042,n,0.6557318000122905,1566.8059016999905,1566.8059016999905,5,3.177,,,,,sub-066,70,100,700,bloc_loop.csv,2023-11-06_16h19.11.289,PainUncertainty,2022.2.5,143.0510792839391,
grave,moderee,stimuli/330Hz,stimuli/moderee,bloc_8,prob50_50_4trials.xlsx,3,12,50,50,0,,,,,0,7,7,7,0,1,1,0,,,,,,,,3.9,1566.8059016999905,1570.7060762000037,1570.7061051300493,0.3024293000344187,1571.1507297999924,1571.1507297999924,n,1.1530937000061385,1575.1943018000457,1575.1943018000457,26,2.815,,,,,sub-066,70,100,700,bloc_loop.csv,2023-11-06_16h19.11.289,PainUncertainty,2022.2.5,143.0510792839391,
aigu,forte,stimuli/660Hz,stimuli/forte,bloc_8,prob50_50_4trials.xlsx,3,12,50,50,0,,,,,0,7,7,7,0,2,2,3,,,,,,,,3.4,1575.1943018000457,1578.5953418000136,1578.5954120300244,0.30532789998687804,1579.0438984000357,1579.0438984000357,m,1.3077039999770932,1583.917668100039,1583.917668100039,77,3.502,,,,,sub-066,70,100,700,bloc_loop.csv,2023-11-06_16h19.11.289,PainUncertainty,2022.2.5,143.0510792839391,
grave,forte,stimuli/330Hz,stimuli/forte,bloc_8,prob50_50_4trials.xlsx,3,12,50,50,0,,,,,0,7,7,7,0,3,3,1,,,,,,,,4.2,1583.917668100039,1588.1179193000426,1588.1178245300193,0.2997486999956891,1588.5623503000243,1588.5623503000243,m,0.8437058000126854,1590.6139623000054,1590.6139623000054,92,1.136,,,,,sub-066,70,100,700,bloc_loop.csv,2023-11-06_16h19.11.289,PainUncertainty,2022.2.5,143.0510792839391,
aigu,moderee,stimuli/660Hz,stimuli/moderee,bloc_8,prob50_50_4trials.xlsx,3,12,50,50,0,,,,,0,7,7,7,1,0,4,2,,,,,,,,4,1590.6139623000054,1594.6182202000055,1594.6182071300223,0.30505530000664294,1595.0627491000341,1595.0627491000341,n,0.49940889998106286,1598.0920949000283,1598.0920949000283,14,2.448,,,,,sub-066,70,100,700,bloc_loop.csv,2023-11-06_16h19.11.289,PainUncertainty,2022.2.5,143.0510792839391,
grave,forte,stimuli/330Hz,stimuli/forte,bloc_8,prob50_50_4trials.xlsx,3,12,50,50,0,,,,,0,7,7,7,1,1,5,1,,,,,,,,3.1,1598.0920949000283,1601.195332900039,1601.195421630016,0.30513700004667044,1601.6394271000172,1601.6394271000172,m,1.17487849999452,1604.7863228000351,1604.7863228000351,83,1.888,,,,,sub-066,70,100,700,bloc_loop.csv,2023-11-06_16h19.11.289,PainUncertainty,2022.2.5,143.0510792839391,
grave,moderee,stimuli/330Hz,stimuli/moderee,bloc_8,prob50_50_4trials.xlsx,3,12,50,50,0,,,,,0,7,7,7,1,2,6,0,,,,,,,,3.6,1604.7863228000351,1608.3904690000345,1608.390531030041,0.30530939996242523,1608.8347709000227,1608.8347709000227,n,0.5188321999739856,1612.3253616000293,1612.3253616000293,28,2.901,,,,,sub-066,70,100,700,bloc_loop.csv,2023-11-06_16h19.11.289,PainUncertainty,2022.2.5,143.0510792839391,
aigu,forte,stimuli/660Hz,stimuli/forte,bloc_8,prob50_50_4trials.xlsx,3,12,50,50,0,,,,,0,7,7,7,1,3,7,3,,,,,,,,4.6,1612.3253616000293,1616.926783300005,1616.9266696300124,0.3018790000351146,1617.370971299999,1617.370971299999,m,1.5472571999998763,1621.352433699998,1621.352433699998,91,2.388,,,,,sub-066,70,100,700,bloc_loop.csv,2023-11-06_16h19.11.289,PainUncertainty,2022.2.5,143.0510792839391,
grave,forte,stimuli/330Hz,stimuli/forte,bloc_8,prob50_50_4trials.xlsx,3,12,50,50,0,,,,,0,7,7,7,2,0,8,1,,,,,,,,4.3,1621.352433699998,1625.6566814000253,1625.6566481300047,0.30488860001787543,1626.1007747999975,1626.1007747999975,m,0.6819088000338525,1629.023806400015,1629.023806400015,72,2.176,,,,,sub-066,70,100,700,bloc_loop.csv,2023-11-06_16h19.11.289,PainUncertainty,2022.2.5,143.0510792839391,
aigu,forte,stimuli/660Hz,stimuli/forte,bloc_8,prob50_50_4trials.xlsx,3,12,50,50,0,,,,,0,7,7,7,2,1,9,3,,,,,,,,5,1629.023806400015,1634.0255305000464,1634.0256677300436,0.30478190002031624,1634.4697169000283,1634.4697169000283,m,1.3716951999813318,1637.667359700019,1637.667359700019,80,1.747,,,,,sub-066,70,100,700,bloc_loop.csv,2023-11-06_16h19.11.289,PainUncertainty,2022.2.5,143.0510792839391,
grave,moderee,stimuli/330Hz,stimuli/moderee,bloc_8,prob50_50_4trials.xlsx,3,12,50,50,0,,,,,0,7,7,7,2,2,10,0,,,,,,,,3.6,1637.667359700019,1641.2694737000274,1641.2696057300432,0.30530830001225695,1641.718638100021,1641.718638100021,n,0.5893385999952443,1645.255580500001,1645.255580500001,25,2.892,,,,,sub-066,70,100,700,bloc_loop.csv,2023-11-06_16h19.11.289,PainUncertainty,2022.2.5,143.0510792839391,
aigu,moderee,stimuli/660Hz,stimuli/moderee,bloc_8,prob50_50_4trials.xlsx,3,12,50,50,0,,,,,0,7,7,7,2,3,11,2,,,,,,,,4.2,1645.255580500001,1649.458290300041,1649.4596453299978,0.2994164999690838,1649.9028142000316,1649.9028142000316,n,0.5809096000157297,1652.0951193000074,1652.0951193000074,9,1.538,,,,,sub-066,70,100,700,bloc_loop.csv,2023-11-06_16h19.11.289,PainUncertainty,2022.2.5,143.0510792839391,
grave,forte,stimuli/330Hz,stimuli/forte,bloc_9,prob20hthp_12trials.xlsx,3,36,80,20,0,,,,,0,8,8,8,0,0,0,2,,,,,,,,4.5,1652.0951193000074,1656.597692200041,1656.5977504300186,0.30493520002346486,1657.0418523999979,1657.0418523999979,m,0.7399511000257917,1660.5960402000346,1660.5960402000346,83,2.745,,,,,sub-066,70,100,700,bloc_loop.csv,2023-11-06_16h19.11.289,PainUncertainty,2022.2.5,143.0510792839391,
aigu,forte,stimuli/660Hz,stimuli/forte,bloc_9,prob20hthp_12trials.xlsx,3,36,80,20,0,,,,,0,8,8,8,0,1,1,11,,,,,,,,3.5,1660.5960402000346,1664.0989471999928,1664.0990116300177,0.3005659999907948,1664.5434498999966,1664.5434498999966,m,0.7290684000472538,1666.6830329000368,1666.6830329000368,94,1.342,,,,,sub-066,70,100,700,bloc_loop.csv,2023-11-06_16h19.11.289,PainUncertainty,2022.2.5,143.0510792839391,
grave,moderee,stimuli/330Hz,stimuli/moderee,bloc_9,prob20hthp_12trials.xlsx,3,36,80,20,0,,,,,0,8,8,8,0,2,2,5,,,,,,,,3.6,1666.6830329000368,1670.2868657000363,1670.286862930015,0.3049215000355616,1670.734758400009,1670.734758400009,n,0.6505495000164956,1674.32029350003,1674.32029350003,23,2.858,,,,,sub-066,70,100,700,bloc_loop.csv,2023-11-06_16h19.11.289,PainUncertainty,2022.2.5,143.0510792839391,
grave,forte,stimuli/330Hz,stimuli/forte,bloc_9,prob20hthp_12trials.xlsx,3,36,80,20,0,,,,,0,8,8,8,0,3,3,3,,,,,,,,3.9,1674.32029350003,1678.2252628999995,1678.225281930028,0.30150569998659194,1678.6697106999927,1678.6697106999927,m,1.0336719999904744,1681.2711553000263,1681.2711553000263,70,1.49,,,,,sub-066,70,100,700,bloc_loop.csv,2023-11-06_16h19.11.289,PainUncertainty,2022.2.5,143.0510792839391,
aigu,moderee,stimuli/660Hz,stimuli/moderee,bloc_9,prob20hthp_12trials.xlsx,3,36,80,20,0,,,,,0,8,8,8,0,4,4,7,,,,,,,,4.3,1681.2711553000263,1685.573408199998,1685.573594430019,0.30494639999233186,1686.024759299995,1686.024759299995,n,0.8492725999676622,1688.5874091000296,1688.5874091000296,12,1.655,,,,,sub-066,70,100,700,bloc_loop.csv,2023-11-06_16h19.11.289,PainUncertainty,2022.2.5,143.0510792839391,
aigu,moderee,stimuli/660Hz,stimuli/moderee,bloc_9,prob20hthp_12trials.xlsx,3,36,80,20,0,,,,,0,8,8,8,0,5,5,8,,,,,,,,3.7,1688.5874091000296,1692.2894657000434,1692.2895668299984,0.29902219999348745,1692.7319824000006,1692.7319824000006,n,1.0966540000517853,1695.5382181000314,1695.5382181000314,22,1.656,,,,,sub-066,70,100,700,bloc_loop.csv,2023-11-06_16h19.11.289,PainUncertainty,2022.2.5,143.0510792839391,
aigu,moderee,stimuli/660Hz,stimuli/moderee,bloc_9,prob20hthp_12trials.xlsx,3,36,80,20,0,,,,,0,8,8,8,0,6,6,6,,,,,,,,4.3,1695.5382181000314,1699.839191200037,1699.8392451300401,0.3048296999768354,1700.28343390004,1700.28343390004,n,0.723666800011415,1702.951854999992,1702.951854999992,22,1.872,,,,,sub-066,70,100,700,bloc_loop.csv,2023-11-06_16h19.11.289,PainUncertainty,2022.2.5,143.0510792839391,
grave,forte,stimuli/330Hz,stimuli/forte,bloc_9,prob20hthp_12trials.xlsx,3,36,80,20,0,,,,,0,8,8,8,0,7,7,4,,,,,,,,4.2,1702.951854999992,1707.1529966000235,1707.1528810300165,0.30505369999445975,1707.6008758000098,1707.6008758000098,m,0.6362020000233315,1709.6784827000229,1709.6784827000229,80,1.385,,,,,sub-066,70,100,700,bloc_loop.csv,2023-11-06_16h19.11.289,PainUncertainty,2022.2.5,143.0510792839391,
grave,forte,stimuli/330Hz,stimuli/forte,bloc_9,prob20hthp_12trials.xlsx,3,36,80,20,0,,,,,0,8,8,8,0,8,8,0,,,,,,,,3.7,1709.6784827000229,1713.3824118000339,1713.3824899300466,0.3051250000135042,1713.8267097999924,1713.8267097999924,m,0.6120652999961749,1718.0521717999945,1718.0521717999945,92,3.537,,,,,sub-066,70,100,700,bloc_loop.csv,2023-11-06_16h19.11.289,PainUncertainty,2022.2.5,143.0510792839391,
aigu,moderee,stimuli/660Hz,stimuli/moderee,bloc_9,prob20hthp_12trials.xlsx,3,36,80,20,0,,,,,0,8,8,8,0,9,9,10,,,,,,,,3.2,1718.0521717999945,1721.2516403000336,1721.2516341300447,0.30552700004773214,1721.6981757000322,1721.6981757000322,n,0.542807099991478,1724.7310278000077,1724.7310278000077,12,2.433,,,,,sub-066,70,100,700,bloc_loop.csv,2023-11-06_16h19.11.289,PainUncertainty,2022.2.5,143.0510792839391,
aigu,moderee,stimuli/660Hz,stimuli/moderee,bloc_9,prob20hthp_12trials.xlsx,3,36,80,20,0,,,,,0,8,8,8,0,10,10,9,,,,,,,,4.3,1724.7310278000077,1729.036840500019,1729.0369881300371,0.3047239000443369,1729.4809559000423,1729.4809559000423,n,0.4725839999737218,1732.1765980999917,1732.1765980999917,16,2.143,,,,,sub-066,70,100,700,bloc_loop.csv,2023-11-06_16h19.11.289,PainUncertainty,2022.2.5,143.0510792839391,
grave,forte,stimuli/330Hz,stimuli/forte,bloc_9,prob20hthp_12trials.xlsx,3,36,80,20,0,,,,,0,8,8,8,0,11,11,1,,,,,,,,3.6,1732.1765980999917,1735.7805826000404,1735.7806296300491,0.305204100033734,1736.2251075000386,1736.2251075000386,m,1.0278598999720998,1740.7094620999997,1740.7094620999997,79,3.365,,,,,sub-066,70,100,700,bloc_loop.csv,2023-11-06_16h19.11.289,PainUncertainty,2022.2.5,143.0510792839391,
aigu,moderee,stimuli/660Hz,stimuli/moderee,bloc_9,prob20hthp_12trials.xlsx,3,36,80,20,0,,,,,0,8,8,8,1,0,12,7,,,,,,,,4.2,1740.7094620999997,1744.914091200044,1744.9141806300263,0.30513819999760017,1745.3616888000397,1745.3616888000397,n,0.7099335999810137,1747.9952565000276,1747.9952565000276,4,1.852,,,,,sub-066,70,100,700,bloc_loop.csv,2023-11-06_16h19.11.289,PainUncertainty,2022.2.5,143.0510792839391,
grave,forte,stimuli/330Hz,stimuli/forte,bloc_9,prob20hthp_12trials.xlsx,3,36,80,20,0,,,,,0,8,8,8,1,1,13,1,,,,,,,,4.9,1747.9952565000276,1752.9008661000407,1752.9007904300465,0.3051116999704391,1753.3488590000197,1753.3488590000197,m,0.6793948000413366,1757.1330605000257,1757.1330605000257,94,3.025,,,,,sub-066,70,100,700,bloc_loop.csv,2023-11-06_16h19.11.289,PainUncertainty,2022.2.5,143.0510792839391,
aigu,moderee,stimuli/660Hz,stimuli/moderee,bloc_9,prob20hthp_12trials.xlsx,3,36,80,20,0,,,,,0,8,8,8,1,2,14,8,,,,,,,,4.4,1757.1330605000257,1761.5336887000012,1761.5337351300054,0.3052621999522671,1761.977832100005,1761.977832100005,n,0.5704902000143193,1765.7124697000254,1765.7124697000254,16,3.107,,,,,sub-066,70,100,700,bloc_loop.csv,2023-11-06_16h19.11.289,PainUncertainty,2022.2.5,143.0510792839391,
aigu,moderee,stimuli/660Hz,stimuli/moderee,bloc_9,prob20hthp_12trials.xlsx,3,36,80,20,0,,,,,0,8,8,8,1,3,15,6,,,,,,,,3,1765.7124697000254,1768.7154490000103,1768.7155460299923,0.3049068999825977,1769.1593442000449,1769.1593442000449,n,0.4134156999643892,1771.0993710000184,1771.0993710000184,21,1.454,,,,,sub-066,70,100,700,bloc_loop.csv,2023-11-06_16h19.11.289,PainUncertainty,2022.2.5,143.0510792839391,
grave,forte,stimuli/330Hz,stimuli/forte,bloc_9,prob20hthp_12trials.xlsx,3,36,80,20,0,,,,,0,8,8,8,1,4,16,0,,,,,,,,3.7,1771.0993710000184,1774.7996597000165,1774.7997842300333,0.29935380001552403,1775.2377639000188,1775.2377639000188,m,0.6428319999831729,1778.4801230000448,1778.4801230000448,84,2.54,,,,,sub-066,70,100,700,bloc_loop.csv,2023-11-06_16h19.11.289,PainUncertainty,2022.2.5,143.0510792839391,
grave,forte,stimuli/330Hz,stimuli/forte,bloc_9,prob20hthp_12trials.xlsx,3,36,80,20,0,,,,,0,8,8,8,1,5,17,2,,,,,,,,3,1778.4801230000448,1781.480942299997,1781.4809569299919,0.30021620000479743,1781.9255327000283,1781.9255327000283,m,0.5914008999825455,1785.494915599993,1785.494915599993,74,2.891,,,,,sub-066,70,100,700,bloc_loop.csv,2023-11-06_16h19.11.289,PainUncertainty,2022.2.5,143.0510792839391,
aigu,moderee,stimuli/660Hz,stimuli/moderee,bloc_9,prob20hthp_12trials.xlsx,3,36,80,20,0,,,,,0,8,8,8,1,6,18,10,,,,,,,,3.5,1785.494915599993,1788.9954197999905,1788.9953755300025,0.30517130001680925,1789.4397623999976,1789.4397623999976,n,0.6241112999850884,1793.0678314000252,1793.0678314000252,14,2.928,,,,,sub-066,70,100,700,bloc_loop.csv,2023-11-06_16h19.11.289,PainUncertainty,2022.2.5,143.0510792839391,
aigu,forte,stimuli/660Hz,stimuli/forte,bloc_9,prob20hthp_12trials.xlsx,3,36,80,20,0,,,,,0,8,8,8,1,7,19,11,,,,,,,,4.9,1793.0678314000252,1797.96861109999,1797.9685686300159,0.3050757000455633,1798.4127758000395,1798.4127758000395,m,0.8781207000138238,1800.641572499997,1800.641572499997,94,1.282,,,,,sub-066,70,100,700,bloc_loop.csv,2023-11-06_16h19.11.289,PainUncertainty,2022.2.5,143.0510792839391,
aigu,moderee,stimuli/660Hz,stimuli/moderee,bloc_9,prob20hthp_12trials.xlsx,3,36,80,20,0,,,,,0,8,8,8,1,8,20,9,,,,,,,,3,1800.641572499997,1803.6432111000177,1803.6435786300221,0.30460700002731755,1804.0909460000112,1804.0909460000112,n,0.5488465000526048,1808.0374166000402,1808.0374166000402,7,3.337,,,,,sub-066,70,100,700,bloc_loop.csv,2023-11-06_16h19.11.289,PainUncertainty,2022.2.5,143.0510792839391,
grave,moderee,stimuli/330Hz,stimuli/moderee,bloc_9,prob20hthp_12trials.xlsx,3,36,80,20,0,,,,,0,8,8,8,1,9,21,5,,,,,,,,4.8,1808.0374166000402,1812.838523000013,1812.8385055299964,0.305195199965965,1813.2827183000045,1813.2827183000045,n,1.2981939000310376,1816.7787053000065,1816.7787053000065,27,2.121,,,,,sub-066,70,100,700,bloc_loop.csv,2023-11-06_16h19.11.289,PainUncertainty,2022.2.5,143.0510792839391,
grave,forte,stimuli/330Hz,stimuli/forte,bloc_9,prob20hthp_12trials.xlsx,3,36,80,20,0,,,,,0,8,8,8,1,10,22,4,,,,,,,,3.6,1816.7787053000065,1820.3809819000307,1820.3810856300056,0.3051005000015721,1820.829433100007,1820.829433100007,m,1.4029249000013806,1825.134659900039,1825.134659900039,75,2.835,,,,,sub-066,70,100,700,bloc_loop.csv,2023-11-06_16h19.11.289,PainUncertainty,2022.2.5,143.0510792839391,
grave,forte,stimuli/330Hz,stimuli/forte,bloc_9,prob20hthp_12trials.xlsx,3,36,80,20,0,,,,,0,8,8,8,1,11,23,3,,,,,,,,3.1,1825.134659900039,1828.2363614999922,1828.2363444300368,0.3048079000436701,1828.6803894999903,1828.6803894999903,n,1.1038226999808103,1832.57957609999,1832.57957609999,50,2.748,,,,,sub-066,70,100,700,bloc_loop.csv,2023-11-06_16h19.11.289,PainUncertainty,2022.2.5,143.0510792839391,
aigu,forte,stimuli/660Hz,stimuli/forte,bloc_9,prob20hthp_12trials.xlsx,3,36,80,20,0,,,,,0,8,8,8,2,0,24,11,,,,,,,,4.7,1832.57957609999,1837.278762800037,1837.2787917300243,0.30524190003052354,1837.7230456999969,1837.7230456999969,m,0.8583917999640107,1842.7905982999946,1842.7905982999946,93,4.143,,,,,sub-066,70,100,700,bloc_loop.csv,2023-11-06_16h19.11.289,PainUncertainty,2022.2.5,143.0510792839391,
grave,forte,stimuli/330Hz,stimuli/forte,bloc_9,prob20hthp_12trials.xlsx,3,36,80,20,0,,,,,0,8,8,8,2,1,25,3,,,,,,,,3.5,1842.7905982999946,1846.294184600003,1846.2942536300047,0.2996677999617532,1846.7385615000385,1846.7385615000385,m,1.3244841999839991,1849.533768800029,1849.533768800029,68,1.392,,,,,sub-066,70,100,700,bloc_loop.csv,2023-11-06_16h19.11.289,PainUncertainty,2022.2.5,143.0510792839391,
aigu,moderee,stimuli/660Hz,stimuli/moderee,bloc_9,prob20hthp_12trials.xlsx,3,36,80,20,0,,,,,0,8,8,8,2,2,26,8,,,,,,,,4.6,1849.533768800029,1854.13489700004,1854.1350038300384,0.3050861000083387,1854.5792196000111,1854.5792196000111,n,0.5761001000064425,1858.465393999999,1858.465393999999,12,3.24,,,,,sub-066,70,100,700,bloc_loop.csv,2023-11-06_16h19.11.289,PainUncertainty,2022.2.5,143.0510792839391,
grave,forte,stimuli/330Hz,stimuli/forte,bloc_9,prob20hthp_12trials.xlsx,3,36,80,20,0,,,,,0,8,8,8,2,3,27,0,,,,,,,,4.1,1858.465393999999,1862.566556100035,1862.5666168300318,0.30499780003447086,1863.0106688000378,1863.0106688000378,m,0.9776684999815188,1864.9843952000374,1864.9843952000374,80,0.926,,,,,sub-066,70,100,700,bloc_loop.csv,2023-11-06_16h19.11.289,PainUncertainty,2022.2.5,143.0510792839391,
aigu,moderee,stimuli/660Hz,stimuli/moderee,bloc_9,prob20hthp_12trials.xlsx,3,36,80,20,0,,,,,0,8,8,8,2,4,28,9,,,,,,,,3.4,1864.9843952000374,1868.386697400012,1868.3868394300457,0.30480600002920255,1868.8307374000433,1868.8307374000433,n,0.604971699998714,1871.0558212000178,1871.0558212000178,30,1.544,,,,,sub-066,70,100,700,bloc_loop.csv,2023-11-06_16h19.11.289,PainUncertainty,2022.2.5,143.0510792839391,
grave,forte,stimuli/330Hz,stimuli/forte,bloc_9,prob20hthp_12trials.xlsx,3,36,80,20,0,,,,,0,8,8,8,2,5,29,2,,,,,,,,4.9,1871.0558212000178,1875.9571121000336,1875.9570895300362,0.3050743999774568,1876.4014000000316,1876.4014000000316,m,0.9188904000329785,1880.29104869999,1880.29104869999,67,2.886,,,,,sub-066,70,100,700,bloc_loop.csv,2023-11-06_16h19.11.289,PainUncertainty,2022.2.5,143.0510792839391,
aigu,moderee,stimuli/660Hz,stimuli/moderee,bloc_9,prob20hthp_12trials.xlsx,3,36,80,20,0,,,,,0,8,8,8,2,6,30,7,,,,,,,,3.7,1880.29104869999,1883.9927726000315,1883.9928994300076,0.3053710000240244,1884.4411793000181,1884.4411793000181,n,0.7110130999935791,1888.9346999000409,1888.9346999000409,9,3.718,,,,,sub-066,70,100,700,bloc_loop.csv,2023-11-06_16h19.11.289,PainUncertainty,2022.2.5,143.0510792839391,
aigu,moderee,stimuli/660Hz,stimuli/moderee,bloc_9,prob20hthp_12trials.xlsx,3,36,80,20,0,,,,,0,8,8,8,2,7,31,10,,,,,,,,3.4,1888.9346999000409,1892.3339256000472,1892.3339142300188,0.30527599999913946,1892.7823552000336,1892.7823552000336,n,1.233098800003063,1896.90773430001,1896.90773430001,24,2.823,,,,,sub-066,70,100,700,bloc_loop.csv,2023-11-06_16h19.11.289,PainUncertainty,2022.2.5,143.0510792839391,
aigu,moderee,stimuli/660Hz,stimuli/moderee,bloc_9,prob20hthp_12trials.xlsx,3,36,80,20,0,,,,,0,8,8,8,2,8,32,6,,,,,,,,3,1896.90773430001,1899.9113047000137,1899.9113255299976,0.3051881999708712,1900.3558105000411,1900.3558105000411,n,1.2475152999977581,1904.624949900026,1904.624949900026,35,2.947,,,,,sub-066,70,100,700,bloc_loop.csv,2023-11-06_16h19.11.289,PainUncertainty,2022.2.5,143.0510792839391,
grave,forte,stimuli/330Hz,stimuli/forte,bloc_9,prob20hthp_12trials.xlsx,3,36,80,20,0,,,,,0,8,8,8,2,9,33,4,,,,,,,,4.9,1904.624949900026,1909.5303766000434,1909.5303037300123,0.3053670999943279,1909.974555600027,1909.974555600027,m,0.7726913000224158,1913.843602900044,1913.843602900044,80,3.018,,,,,sub-066,70,100,700,bloc_loop.csv,2023-11-06_16h19.11.289,PainUncertainty,2022.2.5,143.0510792839391,
grave,moderee,stimuli/330Hz,stimuli/moderee,bloc_9,prob20hthp_12trials.xlsx,3,36,80,20,0,,,,,0,8,8,8,2,10,34,5,,,,,,,,3.9,1913.843602900044,1917.7468752000132,1917.74675643004,0.30094530002679676,1918.1909733000211,1918.1909733000211,n,0.692448100016918,1921.3998678000062,1921.3998678000062,34,2.441,,,,,sub-066,70,100,700,bloc_loop.csv,2023-11-06_16h19.11.289,PainUncertainty,2022.2.5,143.0510792839391,
grave,forte,stimuli/330Hz,stimuli/forte,bloc_9,prob20hthp_12trials.xlsx,3,36,80,20,0,,,,,0,8,8,8,2,11,35,1,,,,,,,,3.5,1921.3998678000062,1924.9003506000154,1924.9003999300417,0.3053148000035435,1925.349214100046,1925.349214100046,m,1.1866408999776468,1928.1293352000066,1928.1293352000066,76,1.565,,,,,sub-066,70,100,700,bloc_loop.csv,2023-11-06_16h19.11.289,PainUncertainty,2022.2.5,143.0510792839391,
