cue_,stimulus_,cue_fichier,stimulus_fichier,block_name,block_trials_file,block_n_reps,block_ntrials,block_prob_highP_highT,block_prob_highP_lowT,block_pause_after,Bloc_essai.thisRepN,Bloc_essai.thisTrialN,Bloc_essai.thisN,Bloc_essai.thisIndex,blocks.thisRepN,blocks.thisTrialN,blocks.thisN,blocks.thisIndex,trials.thisRepN,trials.thisTrialN,trials.thisN,trials.thisIndex,pause_loop.thisRepN,pause_loop.thisTrialN,pause_loop.thisN,pause_loop.thisIndex,key_resp_5.started,start_calib.started,key_resp_2.started,ISI_duration,pause.started,pause.stopped,cue.started,ISI.started,choice_pain.started,Choice.started,choice_pain.stopped,Choice.stopped,choice_pain.keys,main_text.started,confirm_text.started,ratingScale.response,ratingScale.rt,choice_pain.rt,key_resp_3.started,key_resp_6.started,participant,low_ma,high_ma,failsafe_ma,block_file,date,expName,psychopyVersion,frameRate,
aigu,moderee,stimuli/660Hz,stimuli/moderee,,,,,,,,0,0,0,2,,,,,,,,,,,,,23.251485700006015,229.60779770000954,275.0715357000008,4.4,277.91602350000176,282.31599010000355,282.3153046800056,0.2996056999982102,282.75408640000387,282.75408640000387,285.2278745000076,285.2278745000076,None,297.42380790000607,297.42380790000607,37,12.159,,,,sub-051,45,80,700,bloc_loop.csv,2023-09-20_16h28.56.961,PainUncertainty,2022.2.5,144.2901501860692,
grave,moderee,stimuli/330Hz,stimuli/moderee,,,,,,,,0,1,1,0,,,,,,,,,,,,,,,,4.4,297.42380790000607,301.824737700008,301.8248547800089,0.30494879999605473,302.2694043000083,302.2694043000083,,,n,307.01266070001293,307.01266070001293,27,4.101,0.558476399994106,,,sub-051,45,80,700,bloc_loop.csv,2023-09-20_16h28.56.961,PainUncertainty,2022.2.5,144.2901501860692,
grave,forte,stimuli/330Hz,stimuli/forte,,,,,,,,0,2,2,1,,,,,,,,,,,,,,,,3.9,307.01266070001293,310.9161096000025,310.9160675799998,0.3051067999913357,311.3603327000019,311.3603327000019,,,m,315.54461700000684,315.54461700000684,61,3.406,0.7198831999849062,,,sub-051,45,80,700,bloc_loop.csv,2023-09-20_16h28.56.961,PainUncertainty,2022.2.5,144.2901501860692,
aigu,forte,stimuli/660Hz,stimuli/forte,,,,,,,,0,3,3,3,,,,,,,,,,,,,,,,3.6,315.54461700000684,319.14654950000113,319.1467933800071,0.30476199999975506,319.5909883000131,319.5909883000131,,,m,323.89480190000904,323.89480190000904,57,3.518,0.7596389999962412,,,sub-051,45,80,700,bloc_loop.csv,2023-09-20_16h28.56.961,PainUncertainty,2022.2.5,144.2901501860692,
aigu,moderee,stimuli/660Hz,stimuli/moderee,bloc_1,prob20hthp_12trials.xlsx,4,48,20,80,0,,,,,0,0,0,0,0,0,0,6,,,,,,,,3.1,354.26469290000387,357.3662667000026,357.3663993800059,0.3047459999943385,357.8104675000068,357.8104675000068,,,n,360.95834070000274,360.95834070000274,26,2.101,0.9705740000063088,,,sub-051,45,80,700,bloc_loop.csv,2023-09-20_16h28.56.961,PainUncertainty,2022.2.5,144.2901501860692,
grave,forte,stimuli/330Hz,stimuli/forte,bloc_1,prob20hthp_12trials.xlsx,4,48,20,80,0,,,,,0,0,0,0,0,1,1,0,,,,,,,,3.7,360.95834070000274,364.659143900004,364.65937518000135,0.3010375000012573,365.1035976999992,365.1035976999992,,,m,367.1593852000078,367.1593852000078,57,1.378,0.599281399991014,,,sub-051,45,80,700,bloc_loop.csv,2023-09-20_16h28.56.961,PainUncertainty,2022.2.5,144.2901501860692,
aigu,moderee,stimuli/660Hz,stimuli/moderee,bloc_1,prob20hthp_12trials.xlsx,4,48,20,80,0,,,,,0,0,0,0,0,2,2,8,,,,,,,,3.2,367.1593852000078,370.36077189999924,370.36087948000056,0.305082399994717,370.8053790000122,370.8053790000122,,,n,373.99965710000833,373.99965710000833,24,2.483,0.636620799996308,,,sub-051,45,80,700,bloc_loop.csv,2023-09-20_16h28.56.961,PainUncertainty,2022.2.5,144.2901501860692,
grave,forte,stimuli/330Hz,stimuli/forte,bloc_1,prob20hthp_12trials.xlsx,4,48,20,80,0,,,,,0,0,0,0,0,3,3,1,,,,,,,,3.8,373.99965710000833,377.79911849999917,377.79928488001167,0.30134830001043156,378.24358040001243,378.24358040001243,,,m,382.05243670000345,382.05243670000345,56,2.996,0.7360312999953749,,,sub-051,45,80,700,bloc_loop.csv,2023-09-20_16h28.56.961,PainUncertainty,2022.2.5,144.2901501860692,
aigu,moderee,stimuli/660Hz,stimuli/moderee,bloc_1,prob20hthp_12trials.xlsx,4,48,20,80,0,,,,,0,0,0,0,0,4,4,7,,,,,,,,3.4,382.05243670000345,385.45285810000496,385.45302928001036,0.30499190000409726,385.89699230001133,385.89699230001133,,,n,388.73086930000864,388.73086930000864,29,2.24,0.5257936999987578,,,sub-051,45,80,700,bloc_loop.csv,2023-09-20_16h28.56.961,PainUncertainty,2022.2.5,144.2901501860692,
grave,forte,stimuli/330Hz,stimuli/forte,bloc_1,prob20hthp_12trials.xlsx,4,48,20,80,0,,,,,0,0,0,0,0,5,5,4,,,,,,,,3.9,388.73086930000864,392.6343718999997,392.6344011800014,0.3054534999973839,393.08128290000604,393.08128290000604,,,m,395.92401660000905,395.92401660000905,55,2.287,0.4785584000055678,,,sub-051,45,80,700,bloc_loop.csv,2023-09-20_16h28.56.961,PainUncertainty,2022.2.5,144.2901501860692,
aigu,moderee,stimuli/660Hz,stimuli/moderee,bloc_1,prob20hthp_12trials.xlsx,4,48,20,80,0,,,,,0,0,0,0,0,6,6,9,,,,,,,,3.3,395.92401660000905,399.22544310000376,399.22543538000025,0.30514699999184813,399.66972140000144,399.66972140000144,,,n,403.57647450000513,403.57647450000513,24,3.379,0.4593336999969324,,,sub-051,45,80,700,bloc_loop.csv,2023-09-20_16h28.56.961,PainUncertainty,2022.2.5,144.2901501860692,
aigu,moderee,stimuli/660Hz,stimuli/moderee,bloc_1,prob20hthp_12trials.xlsx,4,48,20,80,0,,,,,0,0,0,0,0,7,7,10,,,,,,,,4.4,403.57647450000513,407.97739630000433,407.97673378000616,0.3050037999928463,408.42067210000823,408.42067210000823,,,n,411.0725289000111,411.0725289000111,22,1.663,0.9146302000008291,,,sub-051,45,80,700,bloc_loop.csv,2023-09-20_16h28.56.961,PainUncertainty,2022.2.5,144.2901501860692,
grave,forte,stimuli/330Hz,stimuli/forte,bloc_1,prob20hthp_12trials.xlsx,4,48,20,80,0,,,,,0,0,0,0,0,8,8,3,,,,,,,,3.4,411.0725289000111,414.47719060000964,414.47716728000375,0.30522840000048745,414.92131730000256,414.92131730000256,,,m,418.80607760000566,418.80607760000566,57,2.906,0.9135138999990886,,,sub-051,45,80,700,bloc_loop.csv,2023-09-20_16h28.56.961,PainUncertainty,2022.2.5,144.2901501860692,
aigu,forte,stimuli/660Hz,stimuli/forte,bloc_1,prob20hthp_12trials.xlsx,4,48,20,80,0,,,,,0,0,0,0,0,9,9,11,,,,,,,,3.1,418.80607760000566,421.9089645000058,421.9091060800041,0.30078610000782646,422.35342250000394,422.35342250000394,,,m,425.13337630000024,425.13337630000024,60,1.933,0.7657600999955321,,,sub-051,45,80,700,bloc_loop.csv,2023-09-20_16h28.56.961,PainUncertainty,2022.2.5,144.2901501860692,
grave,moderee,stimuli/330Hz,stimuli/moderee,bloc_1,prob20hthp_12trials.xlsx,4,48,20,80,0,,,,,0,0,0,0,0,10,10,5,,,,,,,,3.4,425.13337630000024,428.5344014000002,428.53441368000347,0.3057591999968281,428.98354030000337,428.98354030000337,,,n,432.00434230000246,432.00434230000246,24,2.325,0.6250969000102486,,,sub-051,45,80,700,bloc_loop.csv,2023-09-20_16h28.56.961,PainUncertainty,2022.2.5,144.2901501860692,
grave,forte,stimuli/330Hz,stimuli/forte,bloc_1,prob20hthp_12trials.xlsx,4,48,20,80,0,,,,,0,0,0,0,0,11,11,2,,,,,,,,3.1,432.00434230000246,435.1046956000064,435.1047873800038,0.3051569999952335,435.54902800000855,435.54902800000855,,,m,438.1734265000123,438.1734265000123,57,1.434,1.1174883999919984,,,sub-051,45,80,700,bloc_loop.csv,2023-09-20_16h28.56.961,PainUncertainty,2022.2.5,144.2901501860692,
aigu,moderee,stimuli/660Hz,stimuli/moderee,bloc_1,prob20hthp_12trials.xlsx,4,48,20,80,0,,,,,0,0,0,0,1,0,12,7,,,,,,,,4.7,438.1734265000123,442.8766065000091,442.87651528001004,0.3051965999911772,443.32059040000604,443.32059040000604,,,n,445.9707975000056,445.9707975000056,25,2.142,0.4412964999937685,,,sub-051,45,80,700,bloc_loop.csv,2023-09-20_16h28.56.961,PainUncertainty,2022.2.5,144.2901501860692,
aigu,moderee,stimuli/660Hz,stimuli/moderee,bloc_1,prob20hthp_12trials.xlsx,4,48,20,80,0,,,,,0,0,0,0,1,1,13,9,,,,,,,,4.2,445.9707975000056,450.1759047000087,450.1760352800105,0.3050052000035066,450.62008390000847,450.62008390000847,,,n,454.8873122000077,454.8873122000077,26,2.975,1.2301307000016095,,,sub-051,45,80,700,bloc_loop.csv,2023-09-20_16h28.56.961,PainUncertainty,2022.2.5,144.2901501860692,
grave,moderee,stimuli/330Hz,stimuli/moderee,bloc_1,prob20hthp_12trials.xlsx,4,48,20,80,0,,,,,0,0,0,0,1,2,14,5,,,,,,,,5,454.8873122000077,459.8857999000029,459.8871346800064,0.3038778999907663,460.33377520000795,460.33377520000795,,,n,463.9946051000006,463.9946051000006,27,2.51,1.0817162000021199,,,sub-051,45,80,700,bloc_loop.csv,2023-09-20_16h28.56.961,PainUncertainty,2022.2.5,144.2901501860692,
grave,forte,stimuli/330Hz,stimuli/forte,bloc_1,prob20hthp_12trials.xlsx,4,48,20,80,0,,,,,0,0,0,0,1,3,15,1,,,,,,,,3.8,463.9946051000006,467.79617169999983,467.7961172800045,0.30553559999680147,468.24527370001306,468.24527370001306,,,m,469.68294520000927,469.68294520000927,57,0.872,0.5131379999947967,,,sub-051,45,80,700,bloc_loop.csv,2023-09-20_16h28.56.961,PainUncertainty,2022.2.5,144.2901501860692,
grave,forte,stimuli/330Hz,stimuli/forte,bloc_1,prob20hthp_12trials.xlsx,4,48,20,80,0,,,,,0,0,0,0,1,4,16,3,,,,,,,,4.1,469.68294520000927,473.7830410000024,473.78313958000797,0.3048748000001069,474.22764599999937,474.22764599999937,,,m,478.0590907000005,478.0590907000005,61,3.289,0.46299860000726767,,,sub-051,45,80,700,bloc_loop.csv,2023-09-20_16h28.56.961,PainUncertainty,2022.2.5,144.2901501860692,
grave,forte,stimuli/330Hz,stimuli/forte,bloc_1,prob20hthp_12trials.xlsx,4,48,20,80,0,,,,,0,0,0,0,1,5,17,4,,,,,,,,4.8,478.0590907000005,482.86051210000005,482.86045788000627,0.30515050000394695,483.30464159999974,483.30464159999974,,,m,485.56731410000066,485.56731410000066,61,1.747,0.45693889999529347,,,sub-051,45,80,700,bloc_loop.csv,2023-09-20_16h28.56.961,PainUncertainty,2022.2.5,144.2901501860692,
aigu,forte,stimuli/660Hz,stimuli/forte,bloc_1,prob20hthp_12trials.xlsx,4,48,20,80,0,,,,,0,0,0,0,1,6,18,11,,,,,,,,4.3,485.56731410000066,489.87024490001204,489.8687137800065,0.30141259999072645,490.31317550000676,490.31317550000676,,,m,492.77506460000586,492.77506460000586,62,1.567,0.8174435999972047,,,sub-051,45,80,700,bloc_loop.csv,2023-09-20_16h28.56.961,PainUncertainty,2022.2.5,144.2901501860692,
aigu,moderee,stimuli/660Hz,stimuli/moderee,bloc_1,prob20hthp_12trials.xlsx,4,48,20,80,0,,,,,0,0,0,0,1,7,19,8,,,,,,,,4.4,492.77506460000586,497.1746592999989,497.1747688800009,0.30499970000528265,497.6189393000095,497.6189393000095,,,n,499.96622880001087,499.96622880001087,25,1.843,0.44070859999919776,,,sub-051,45,80,700,bloc_loop.csv,2023-09-20_16h28.56.961,PainUncertainty,2022.2.5,144.2901501860692,
aigu,moderee,stimuli/660Hz,stimuli/moderee,bloc_1,prob20hthp_12trials.xlsx,4,48,20,80,0,,,,,0,0,0,0,1,8,20,10,,,,,,,,5,499.96622880001087,504.96728750001057,504.96727378000503,0.30530259999795817,505.41161049999937,505.41161049999937,,,n,509.12250300000596,509.12250300000596,23,3.114,0.5316050999972504,,,sub-051,45,80,700,bloc_loop.csv,2023-09-20_16h28.56.961,PainUncertainty,2022.2.5,144.2901501860692,
aigu,moderee,stimuli/660Hz,stimuli/moderee,bloc_1,prob20hthp_12trials.xlsx,4,48,20,80,0,,,,,0,0,0,0,1,9,21,6,,,,,,,,4.9,509.12250300000596,514.0239673000033,514.0240641800104,0.30500629999733064,514.468108400004,514.468108400004,,,n,517.6721087000042,517.6721087000042,23,2.692,0.4371376000053715,,,sub-051,45,80,700,bloc_loop.csv,2023-09-20_16h28.56.961,PainUncertainty,2022.2.5,144.2901501860692,
grave,forte,stimuli/330Hz,stimuli/forte,bloc_1,prob20hthp_12trials.xlsx,4,48,20,80,0,,,,,0,0,0,0,1,10,22,0,,,,,,,,3.6,517.6721087000042,521.2748374000075,521.2748805800132,0.3052263999998104,521.719119100002,521.719119100002,,,m,525.1330829000071,525.1330829000071,60,2.798,0.5192880999966292,,,sub-051,45,80,700,bloc_loop.csv,2023-09-20_16h28.56.961,PainUncertainty,2022.2.5,144.2901501860692,
grave,forte,stimuli/330Hz,stimuli/forte,bloc_1,prob20hthp_12trials.xlsx,4,48,20,80,0,,,,,0,0,0,0,1,11,23,2,,,,,,,,3.1,525.1330829000071,528.2345695000113,528.2344922800024,0.30519230000209063,528.6826065000059,528.6826065000059,,,m,531.1252877000079,531.1252877000079,58,1.907,0.47036550000484567,,,sub-051,45,80,700,bloc_loop.csv,2023-09-20_16h28.56.961,PainUncertainty,2022.2.5,144.2901501860692,
aigu,forte,stimuli/660Hz,stimuli/forte,bloc_1,prob20hthp_12trials.xlsx,4,48,20,80,0,,,,,0,0,0,0,2,0,24,11,,,,,,,,4.5,531.1252877000079,535.6311134999996,535.6310816800018,0.305020699990564,536.0821121000045,536.0821121000045,,,m,538.5716126000043,538.5716126000043,59,1.935,0.49504049998358823,,,sub-051,45,80,700,bloc_loop.csv,2023-09-20_16h28.56.961,PainUncertainty,2022.2.5,144.2901501860692,
grave,forte,stimuli/330Hz,stimuli/forte,bloc_1,prob20hthp_12trials.xlsx,4,48,20,80,0,,,,,0,0,0,0,2,1,25,1,,,,,,,,4.9,538.5716126000043,543.4720089000039,543.4720232800086,0.3051115000125719,543.9166250000126,543.9166250000126,,,m,546.9461929000099,546.9461929000099,64,2.483,0.4889039999980014,,,sub-051,45,80,700,bloc_loop.csv,2023-09-20_16h28.56.961,PainUncertainty,2022.2.5,144.2901501860692,
grave,forte,stimuli/330Hz,stimuli/forte,bloc_1,prob20hthp_12trials.xlsx,4,48,20,80,0,,,,,0,0,0,0,2,2,26,4,,,,,,,,4.4,546.9461929000099,551.3479221000016,551.3480542800011,0.30492429999867454,551.7923841000011,551.7923841000011,,,m,556.0383722000115,556.0383722000115,62,3.011,1.1559009999909904,,,sub-051,45,80,700,bloc_loop.csv,2023-09-20_16h28.56.961,PainUncertainty,2022.2.5,144.2901501860692,
aigu,moderee,stimuli/660Hz,stimuli/moderee,bloc_1,prob20hthp_12trials.xlsx,4,48,20,80,0,,,,,0,0,0,0,2,3,27,10,,,,,,,,4.7,556.0383722000115,560.7384274000069,560.7387305800133,0.3010486999992281,561.1823264000122,561.1823264000122,,,n,563.2447424999991,563.2447424999991,22,1.368,0.6257808999944245,,,sub-051,45,80,700,bloc_loop.csv,2023-09-20_16h28.56.961,PainUncertainty,2022.2.5,144.2901501860692,
aigu,moderee,stimuli/660Hz,stimuli/moderee,bloc_1,prob20hthp_12trials.xlsx,4,48,20,80,0,,,,,0,0,0,0,2,4,28,7,,,,,,,,3.9,563.2447424999991,567.1486648999999,567.1484829800087,0.3050320000038482,567.5927549000044,567.5927549000044,,,n,570.4512763000093,570.4512763000093,14,2.327,0.47250839999469463,,,sub-051,45,80,700,bloc_loop.csv,2023-09-20_16h28.56.961,PainUncertainty,2022.2.5,144.2901501860692,
aigu,moderee,stimuli/660Hz,stimuli/moderee,bloc_1,prob20hthp_12trials.xlsx,4,48,20,80,0,,,,,0,0,0,0,2,5,29,6,,,,,,,,3.8,570.4512763000093,574.2534618000063,574.2537568800093,0.30487219999486115,574.6977934000024,574.6977934000024,,,n,576.7302664000017,576.7302664000017,17,1.442,0.5403643999889027,,,sub-051,45,80,700,bloc_loop.csv,2023-09-20_16h28.56.961,PainUncertainty,2022.2.5,144.2901501860692,
grave,moderee,stimuli/330Hz,stimuli/moderee,bloc_1,prob20hthp_12trials.xlsx,4,48,20,80,0,,,,,0,0,0,0,2,6,30,5,,,,,,,,3,576.7302664000017,579.7334578000009,579.7335391800065,0.3048978000006173,580.1775824000069,580.1775824000069,,,n,583.395863800004,583.395863800004,19,2.695,0.45313169999280944,,,sub-051,45,80,700,bloc_loop.csv,2023-09-20_16h28.56.961,PainUncertainty,2022.2.5,144.2901501860692,
aigu,moderee,stimuli/660Hz,stimuli/moderee,bloc_1,prob20hthp_12trials.xlsx,4,48,20,80,0,,,,,0,0,0,0,2,7,31,8,,,,,,,,4.2,583.395863800004,587.5967724000075,587.5960710800049,0.304940699992585,588.0443536000093,588.0443536000093,,,n,591.6409987000079,591.6409987000079,15,3.108,0.41083579999394715,,,sub-051,45,80,700,bloc_loop.csv,2023-09-20_16h28.56.961,PainUncertainty,2022.2.5,144.2901501860692,
grave,forte,stimuli/330Hz,stimuli/forte,bloc_1,prob20hthp_12trials.xlsx,4,48,20,80,0,,,,,0,0,0,0,2,8,32,0,,,,,,,,4.4,591.6409987000079,596.0412463000102,596.0422576800105,0.3043346000049496,596.4900982000108,596.4900982000108,,,m,598.6224980000115,598.6224980000115,61,1.219,0.8559270999976434,,,sub-051,45,80,700,bloc_loop.csv,2023-09-20_16h28.56.961,PainUncertainty,2022.2.5,144.2901501860692,
grave,forte,stimuli/330Hz,stimuli/forte,bloc_1,prob20hthp_12trials.xlsx,4,48,20,80,0,,,,,0,0,0,0,2,9,33,2,,,,,,,,3.1,598.6224980000115,601.722173400005,601.7222503800061,0.3050785000086762,602.1663967000059,602.1663967000059,,,m,605.879076199999,605.879076199999,63,2.58,1.0638236999948276,,,sub-051,45,80,700,bloc_loop.csv,2023-09-20_16h28.56.961,PainUncertainty,2022.2.5,144.2901501860692,
grave,forte,stimuli/330Hz,stimuli/forte,bloc_1,prob20hthp_12trials.xlsx,4,48,20,80,0,,,,,0,0,0,0,2,10,34,3,,,,,,,,4.2,605.879076199999,610.0842552000104,610.0842970800062,0.30514949999633245,610.5286002000066,610.5286002000066,,,m,613.4863155000057,613.4863155000057,62,2.435,0.4469321999931708,,,sub-051,45,80,700,bloc_loop.csv,2023-09-20_16h28.56.961,PainUncertainty,2022.2.5,144.2901501860692,
aigu,moderee,stimuli/660Hz,stimuli/moderee,bloc_1,prob20hthp_12trials.xlsx,4,48,20,80,0,,,,,0,0,0,0,2,11,35,9,,,,,,,,4.1,613.4863155000057,617.5920612000045,617.5921155800082,0.30473049999272916,618.0363415000029,618.0363415000029,,,n,622.9455626999988,622.9455626999988,20,4.324,0.504862099987804,,,sub-051,45,80,700,bloc_loop.csv,2023-09-20_16h28.56.961,PainUncertainty,2022.2.5,144.2901501860692,
grave,forte,stimuli/330Hz,stimuli/forte,bloc_1,prob20hthp_12trials.xlsx,4,48,20,80,0,,,,,0,0,0,0,3,0,36,3,,,,,,,,4.8,622.9455626999988,627.7464525000105,627.746519180006,0.30525699999998324,628.1941284000059,628.1941284000059,,,m,630.2636455000029,630.2636455000029,62,1.532,0.47781060000124853,,,sub-051,45,80,700,bloc_loop.csv,2023-09-20_16h28.56.961,PainUncertainty,2022.2.5,144.2901501860692,
grave,forte,stimuli/330Hz,stimuli/forte,bloc_1,prob20hthp_12trials.xlsx,4,48,20,80,0,,,,,0,0,0,0,3,1,37,2,,,,,,,,4,630.2636455000029,634.2681708000018,634.2698151800054,0.299688300001435,634.7122388999996,634.7122388999996,,,m,638.237076800011,638.237076800011,60,2.977,0.48367529999813996,,,sub-051,45,80,700,bloc_loop.csv,2023-09-20_16h28.56.961,PainUncertainty,2022.2.5,144.2901501860692,
aigu,forte,stimuli/660Hz,stimuli/forte,bloc_1,prob20hthp_12trials.xlsx,4,48,20,80,0,,,,,0,0,0,0,3,2,38,11,,,,,,,,3.6,638.237076800011,641.8381140000129,641.8380900800024,0.3008555999986129,642.2830382000102,642.2830382000102,,,m,645.1570710000087,645.1570710000087,68,2.163,0.6383077999926172,,,sub-051,45,80,700,bloc_loop.csv,2023-09-20_16h28.56.961,PainUncertainty,2022.2.5,144.2901501860692,
aigu,moderee,stimuli/660Hz,stimuli/moderee,bloc_1,prob20hthp_12trials.xlsx,4,48,20,80,0,,,,,0,0,0,0,3,3,39,6,,,,,,,,3.1,645.1570710000087,648.2624887999991,648.2624961800087,0.3051080000004731,648.7066301000013,648.7066301000013,,,n,651.4691104000085,651.4691104000085,22,2.101,0.609601099989959,,,sub-051,45,80,700,bloc_loop.csv,2023-09-20_16h28.56.961,PainUncertainty,2022.2.5,144.2901501860692,
aigu,moderee,stimuli/660Hz,stimuli/moderee,bloc_1,prob20hthp_12trials.xlsx,4,48,20,80,0,,,,,0,0,0,0,3,4,40,8,,,,,,,,3.7,651.4691104000085,655.1730439000094,655.1733024800109,0.3047853000025498,655.617545000001,655.617545000001,,,n,659.0423845000041,659.0423845000041,17,2.984,0.3762603999930434,,,sub-051,45,80,700,bloc_loop.csv,2023-09-20_16h28.56.961,PainUncertainty,2022.2.5,144.2901501860692,
aigu,moderee,stimuli/660Hz,stimuli/moderee,bloc_1,prob20hthp_12trials.xlsx,4,48,20,80,0,,,,,0,0,0,0,3,5,41,9,,,,,,,,3.6,659.0423845000041,662.6462156000052,662.646234080012,0.3050308999954723,663.0902869000129,663.0902869000129,,,n,666.5063316000014,666.5063316000014,16,2.914,0.42132829999900423,,,sub-051,45,80,700,bloc_loop.csv,2023-09-20_16h28.56.961,PainUncertainty,2022.2.5,144.2901501860692,
grave,forte,stimuli/330Hz,stimuli/forte,bloc_1,prob20hthp_12trials.xlsx,4,48,20,80,0,,,,,0,0,0,0,3,6,42,1,,,,,,,,4.5,666.5063316000014,671.0106098000106,671.0086881800001,0.3014928999909898,671.4533979000116,671.4533979000116,,,m,675.6608402999991,675.6608402999991,62,2.53,1.6100289999885717,,,sub-051,45,80,700,bloc_loop.csv,2023-09-20_16h28.56.961,PainUncertainty,2022.2.5,144.2901501860692,
grave,moderee,stimuli/330Hz,stimuli/moderee,bloc_1,prob20hthp_12trials.xlsx,4,48,20,80,0,,,,,0,0,0,0,3,7,43,5,,,,,,,,4,675.6608402999991,679.6621293000062,679.6621658800053,0.3050911000027554,680.1067100000073,680.1067100000073,,,n,681.5250330000126,681.5250330000126,20,0.761,0.5911123999976553,,,sub-051,45,80,700,bloc_loop.csv,2023-09-20_16h28.56.961,PainUncertainty,2022.2.5,144.2901501860692,
aigu,moderee,stimuli/660Hz,stimuli/moderee,bloc_1,prob20hthp_12trials.xlsx,4,48,20,80,0,,,,,0,0,0,0,3,8,44,7,,,,,,,,3.7,681.5250330000126,685.2253315999988,685.2253746800037,0.3049639000091702,685.6695968999993,685.6695968999993,,,n,689.0698348000005,689.0698348000005,17,2.726,0.5990925999940373,,,sub-051,45,80,700,bloc_loop.csv,2023-09-20_16h28.56.961,PainUncertainty,2022.2.5,144.2901501860692,
grave,forte,stimuli/330Hz,stimuli/forte,bloc_1,prob20hthp_12trials.xlsx,4,48,20,80,0,,,,,0,0,0,0,3,9,45,0,,,,,,,,3.7,689.0698348000005,692.7748636000033,692.7748341800092,0.3054949000070337,693.2229026000132,693.2229026000132,,,m,695.8619987000129,695.8619987000129,66,0.989,1.571413500001654,,,sub-051,45,80,700,bloc_loop.csv,2023-09-20_16h28.56.961,PainUncertainty,2022.2.5,144.2901501860692,
aigu,moderee,stimuli/660Hz,stimuli/moderee,bloc_1,prob20hthp_12trials.xlsx,4,48,20,80,0,,,,,0,0,0,0,3,10,46,10,,,,,,,,3.8,695.8619987000129,699.6647873000038,699.6648079800128,0.30476280000584666,700.1093098000129,700.1093098000129,,,n,702.651477300009,702.651477300009,23,1.914,0.5625527000083821,,,sub-051,45,80,700,bloc_loop.csv,2023-09-20_16h28.56.961,PainUncertainty,2022.2.5,144.2901501860692,
grave,forte,stimuli/330Hz,stimuli/forte,bloc_1,prob20hthp_12trials.xlsx,4,48,20,80,0,,,,,0,0,0,0,3,11,47,4,,,,,,,,4.9,702.651477300009,707.5545603000064,707.5546059800021,0.3049853999982588,707.9986361000047,707.9986361000047,,,m,709.8905290000112,709.8905290000112,61,1.261,0.5467872000008356,,,sub-051,45,80,700,bloc_loop.csv,2023-09-20_16h28.56.961,PainUncertainty,2022.2.5,144.2901501860692,
aigu,moderee,stimuli/660Hz,stimuli/moderee,bloc_2,prob50_50_4trials.xlsx,2,8,50,50,1,,,,,0,1,1,1,0,0,0,2,,,,,,,,3.2,709.8905290000112,713.0899338000017,713.089869380003,0.30496530000527855,713.5340389000048,713.5340389000048,,,n,716.1059826000128,716.1059826000128,19,1.998,0.5064267999841832,,,sub-051,45,80,700,bloc_loop.csv,2023-09-20_16h28.56.961,PainUncertainty,2022.2.5,144.2901501860692,
grave,forte,stimuli/330Hz,stimuli/forte,bloc_2,prob50_50_4trials.xlsx,2,8,50,50,1,,,,,0,1,1,1,0,1,1,1,,,,,,,,4.6,716.1059826000128,720.7092965000047,720.7094996800064,0.30101309999008663,721.154070500008,721.154070500008,,,m,725.7585823000118,725.7585823000118,62,2.109,2.4123682999925222,,,sub-051,45,80,700,bloc_loop.csv,2023-09-20_16h28.56.961,PainUncertainty,2022.2.5,144.2901501860692,
grave,moderee,stimuli/330Hz,stimuli/moderee,bloc_2,prob50_50_4trials.xlsx,2,8,50,50,1,,,,,0,1,1,1,0,2,2,0,,,,,,,,4.5,725.7585823000118,730.2584969000018,730.2585631800088,0.3011329000000842,730.7034423000005,730.7034423000005,,,n,732.9814353000111,732.9814353000111,17,1.677,0.517642299993895,,,sub-051,45,80,700,bloc_loop.csv,2023-09-20_16h28.56.961,PainUncertainty,2022.2.5,144.2901501860692,
aigu,forte,stimuli/660Hz,stimuli/forte,bloc_2,prob50_50_4trials.xlsx,2,8,50,50,1,,,,,0,1,1,1,0,3,3,3,,,,,,,,3.3,732.9814353000111,736.2870224000071,736.2870406800124,0.3052658000087831,736.731226200005,736.731226200005,,,m,739.7256533000036,739.7256533000036,66,2.164,0.7589208999997936,,,sub-051,45,80,700,bloc_loop.csv,2023-09-20_16h28.56.961,PainUncertainty,2022.2.5,144.2901501860692,
aigu,moderee,stimuli/660Hz,stimuli/moderee,bloc_2,prob50_50_4trials.xlsx,2,8,50,50,1,,,,,0,1,1,1,1,0,4,2,,,,,,,,3.5,739.7256533000036,743.225379200012,743.2255220800056,0.3050302999909036,743.6696066000004,743.6696066000004,,,n,746.0191746000055,746.0191746000055,17,1.254,1.0420945999940159,,,sub-051,45,80,700,bloc_loop.csv,2023-09-20_16h28.56.961,PainUncertainty,2022.2.5,144.2901501860692,
grave,moderee,stimuli/330Hz,stimuli/moderee,bloc_2,prob50_50_4trials.xlsx,2,8,50,50,1,,,,,0,1,1,1,1,1,5,0,,,,,,,,3.8,746.0191746000055,749.8234892000037,749.8234772800118,0.30548730000737123,750.2704654000117,750.2704654000117,,,n,753.6422729000042,753.6422729000042,19,2.768,0.5275069999916013,,,sub-051,45,80,700,bloc_loop.csv,2023-09-20_16h28.56.961,PainUncertainty,2022.2.5,144.2901501860692,
grave,forte,stimuli/330Hz,stimuli/forte,bloc_2,prob50_50_4trials.xlsx,2,8,50,50,1,,,,,0,1,1,1,1,2,6,1,,,,,,,,3.2,753.6422729000042,756.8454685000033,756.8453974800126,0.30503540000063367,757.2893333000102,757.2893333000102,,,m,760.3862530000042,760.3862530000042,63,2.011,1.0215411999961361,,,sub-051,45,80,700,bloc_loop.csv,2023-09-20_16h28.56.961,PainUncertainty,2022.2.5,144.2901501860692,
aigu,forte,stimuli/660Hz,stimuli/forte,bloc_2,prob50_50_4trials.xlsx,2,8,50,50,1,,,,,0,1,1,1,1,3,7,3,,,,,,,,5,760.3862530000042,765.3880313000118,765.3877836800006,0.30515629998990335,765.8320752,765.8320752,,,m,769.6349813000124,769.6349813000124,64,1.067,0.7041974999883678,,,sub-051,45,80,700,bloc_loop.csv,2023-09-20_16h28.56.961,PainUncertainty,2022.2.5,144.2901501860692,
,,,,bloc_2,prob50_50_4trials.xlsx,2,8,50,50,1,,,,,0,1,1,1,,,,,0,0,0,0,,,,,,,,,,,,,,,,,,,769.6349813000124,850.9050208000117,sub-051,45,80,700,bloc_loop.csv,2023-09-20_16h28.56.961,PainUncertainty,2022.2.5,144.2901501860692,
aigu,forte,stimuli/660Hz,stimuli/forte,bloc_3,prob80hthp_12trials.xlsx,2,24,80,20,0,,,,,0,2,2,2,0,0,0,10,,,,,,,,4.1,853.03661190001,857.1418896000105,857.1419342800131,0.30528939999931026,857.5901385000034,857.5901385000034,,,m,862.1903326000029,862.1903326000029,72,2.747,1.7975604999955976,,,sub-051,45,80,700,bloc_loop.csv,2023-09-20_16h28.56.961,PainUncertainty,2022.2.5,144.2901501860692,
aigu,forte,stimuli/660Hz,stimuli/forte,bloc_3,prob80hthp_12trials.xlsx,2,24,80,20,0,,,,,0,2,2,2,0,1,1,9,,,,,,,,3.3,862.1903326000029,865.4902119000035,865.4901333799993,0.30529660001047887,865.9344813000062,865.9344813000062,,,m,867.704135100008,867.704135100008,68,1.213,0.48137570000835694,,,sub-051,45,80,700,bloc_loop.csv,2023-09-20_16h28.56.961,PainUncertainty,2022.2.5,144.2901501860692,
grave,moderee,stimuli/330Hz,stimuli/moderee,bloc_3,prob80hthp_12trials.xlsx,2,24,80,20,0,,,,,0,2,2,2,0,2,2,4,,,,,,,,3,867.704135100008,870.7060227000038,870.7061356800026,0.3050171000068076,871.1502209000028,871.1502209000028,,,n,873.6033095000021,873.6033095000021,18,1.989,0.3959030999976676,,,sub-051,45,80,700,bloc_loop.csv,2023-09-20_16h28.56.961,PainUncertainty,2022.2.5,144.2901501860692,
aigu,forte,stimuli/660Hz,stimuli/forte,bloc_3,prob80hthp_12trials.xlsx,2,24,80,20,0,,,,,0,2,2,2,0,3,3,8,,,,,,,,4.1,873.6033095000021,877.7071245000116,877.7072848800075,0.30495479999808595,878.1517501000053,878.1517501000053,,,m,879.9613689000107,879.9613689000107,68,1.33,0.4211864999961108,,,sub-051,45,80,700,bloc_loop.csv,2023-09-20_16h28.56.961,PainUncertainty,2022.2.5,144.2901501860692,
aigu,forte,stimuli/660Hz,stimuli/forte,bloc_3,prob80hthp_12trials.xlsx,2,24,80,20,0,,,,,0,2,2,2,0,4,4,7,,,,,,,,3.4,879.9613689000107,883.3603401,883.3604943800077,0.3048923000023933,883.809362,883.809362,,,m,885.2174836000049,885.2174836000049,71,0.976,0.38370710000162944,,,sub-051,45,80,700,bloc_loop.csv,2023-09-20_16h28.56.961,PainUncertainty,2022.2.5,144.2901501860692,
grave,forte,stimuli/330Hz,stimuli/forte,bloc_3,prob80hthp_12trials.xlsx,2,24,80,20,0,,,,,0,2,2,2,0,5,5,5,,,,,,,,4.6,885.2174836000049,889.8198334000044,889.8198885799997,0.3005735999904573,890.2638073999988,890.2638073999988,,,m,891.7689716000023,891.7689716000023,68,1.032,0.4016181999904802,,,sub-051,45,80,700,bloc_loop.csv,2023-09-20_16h28.56.961,PainUncertainty,2022.2.5,144.2901501860692,
grave,moderee,stimuli/330Hz,stimuli/moderee,bloc_3,prob80hthp_12trials.xlsx,2,24,80,20,0,,,,,0,2,2,2,0,6,6,2,,,,,,,,5,891.7689716000023,896.771688000008,896.7716847800097,0.30537509999703616,897.2186893000035,897.2186893000035,,,n,898.5292439000041,898.5292439000041,24,0.788,0.4503233999857912,,,sub-051,45,80,700,bloc_loop.csv,2023-09-20_16h28.56.961,PainUncertainty,2022.2.5,144.2901501860692,
aigu,forte,stimuli/660Hz,stimuli/forte,bloc_3,prob80hthp_12trials.xlsx,2,24,80,20,0,,,,,0,2,2,2,0,7,7,6,,,,,,,,3.1,898.5292439000041,901.6351139000035,901.6336337800079,0.3049396999995224,902.0775903000031,902.0775903000031,,,n,904.5701090000075,904.5701090000075,68,1.879,0.5405211000033887,,,sub-051,45,80,700,bloc_loop.csv,2023-09-20_16h28.56.961,PainUncertainty,2022.2.5,144.2901501860692,
grave,moderee,stimuli/330Hz,stimuli/moderee,bloc_3,prob80hthp_12trials.xlsx,2,24,80,20,0,,,,,0,2,2,2,0,8,8,3,,,,,,,,4.6,904.5701090000075,909.1690254000132,909.1691884800006,0.3047246000060113,909.6134388000064,909.6134388000064,,,n,912.7824289000127,912.7824289000127,23,2.366,0.7483525999996345,,,sub-051,45,80,700,bloc_loop.csv,2023-09-20_16h28.56.961,PainUncertainty,2022.2.5,144.2901501860692,
aigu,moderee,stimuli/660Hz,stimuli/moderee,bloc_3,prob80hthp_12trials.xlsx,2,24,80,20,0,,,,,0,2,2,2,0,9,9,11,,,,,,,,3.5,912.7824289000127,916.2878679999994,916.2879522800125,0.29973499999323394,916.732313200002,916.732313200002,,,n,918.7904421999992,918.7904421999992,18,1.414,0.5825594999914756,,,sub-051,45,80,700,bloc_loop.csv,2023-09-20_16h28.56.961,PainUncertainty,2022.2.5,144.2901501860692,
grave,moderee,stimuli/330Hz,stimuli/moderee,bloc_3,prob80hthp_12trials.xlsx,2,24,80,20,0,,,,,0,2,2,2,0,10,10,0,,,,,,,,4.7,918.7904421999992,923.4905807000032,923.4909493800136,0.304624700002023,923.9379756999988,923.9379756999988,,,n,926.8140608000103,926.8140608000103,19,2.281,0.5328834999963874,,,sub-051,45,80,700,bloc_loop.csv,2023-09-20_16h28.56.961,PainUncertainty,2022.2.5,144.2901501860692,
grave,moderee,stimuli/330Hz,stimuli/moderee,bloc_3,prob80hthp_12trials.xlsx,2,24,80,20,0,,,,,0,2,2,2,0,11,11,1,,,,,,,,4.9,926.8140608000103,931.713298600007,931.7133517800015,0.30495829999563284,932.157778000008,932.157778000008,,,n,935.027019000001,935.027019000001,15,2.392,0.40414769999915734,,,sub-051,45,80,700,bloc_loop.csv,2023-09-20_16h28.56.961,PainUncertainty,2022.2.5,144.2901501860692,
grave,forte,stimuli/330Hz,stimuli/forte,bloc_3,prob80hthp_12trials.xlsx,2,24,80,20,0,,,,,0,2,2,2,1,0,12,5,,,,,,,,3.4,935.027019000001,938.4294986000023,938.4295210800104,0.30532379999931436,938.8740752000012,938.8740752000012,,,m,941.7404250000109,941.7404250000109,76,1.886,0.9007366000005277,,,sub-051,45,80,700,bloc_loop.csv,2023-09-20_16h28.56.961,PainUncertainty,2022.2.5,144.2901501860692,
grave,moderee,stimuli/330Hz,stimuli/moderee,bloc_3,prob80hthp_12trials.xlsx,2,24,80,20,0,,,,,0,2,2,2,1,1,13,2,,,,,,,,3.3,941.7404250000109,945.0413683000079,945.0413964800013,0.30497789999935776,945.4854674000089,945.4854674000089,,,n,947.3475894000003,947.3475894000003,20,1.33,0.46286799998779316,,,sub-051,45,80,700,bloc_loop.csv,2023-09-20_16h28.56.961,PainUncertainty,2022.2.5,144.2901501860692,
aigu,forte,stimuli/660Hz,stimuli/forte,bloc_3,prob80hthp_12trials.xlsx,2,24,80,20,0,,,,,0,2,2,2,1,2,14,6,,,,,,,,4.7,947.3475894000003,952.0496409000043,952.0496309800131,0.3053987000021152,952.4984570000088,952.4984570000088,,,m,954.2177855000045,954.2177855000045,73,1.169,0.49459780000324827,,,sub-051,45,80,700,bloc_loop.csv,2023-09-20_16h28.56.961,PainUncertainty,2022.2.5,144.2901501860692,
aigu,forte,stimuli/660Hz,stimuli/forte,bloc_3,prob80hthp_12trials.xlsx,2,24,80,20,0,,,,,0,2,2,2,1,3,15,7,,,,,,,,3.4,954.2177855000045,957.6193249000062,957.6192294800043,0.30502569999953266,958.063364200003,958.063364200003,,,m,959.5394349000126,959.5394349000126,74,0.956,0.46988319999945816,,,sub-051,45,80,700,bloc_loop.csv,2023-09-20_16h28.56.961,PainUncertainty,2022.2.5,144.2901501860692,
aigu,forte,stimuli/660Hz,stimuli/forte,bloc_3,prob80hthp_12trials.xlsx,2,24,80,20,0,,,,,0,2,2,2,1,4,16,9,,,,,,,,3.3,959.5394349000126,962.8422146000084,962.842322080009,0.3047652000095695,963.286657500008,963.286657500008,,,m,965.8353635000094,965.8353635000094,78,2.053,0.41806449998694006,,,sub-051,45,80,700,bloc_loop.csv,2023-09-20_16h28.56.961,PainUncertainty,2022.2.5,144.2901501860692,
grave,moderee,stimuli/330Hz,stimuli/moderee,bloc_3,prob80hthp_12trials.xlsx,2,24,80,20,0,,,,,0,2,2,2,1,5,17,0,,,,,,,,4.9,965.8353635000094,970.7387601000082,970.738767180001,0.3050005999975838,971.1830921000073,971.1830921000073,,,n,972.4980572000059,972.4980572000059,16,0.82,0.4357880000025034,,,sub-051,45,80,700,bloc_loop.csv,2023-09-20_16h28.56.961,PainUncertainty,2022.2.5,144.2901501860692,
grave,moderee,stimuli/330Hz,stimuli/moderee,bloc_3,prob80hthp_12trials.xlsx,2,24,80,20,0,,,,,0,2,2,2,1,6,18,3,,,,,,,,3.7,972.4980572000059,976.197800599999,976.1980231800029,0.30492760000925045,976.6419973000011,976.6419973000011,,,n,978.8442763000057,978.8442763000057,13,1.732,0.3842873999965377,,,sub-051,45,80,700,bloc_loop.csv,2023-09-20_16h28.56.961,PainUncertainty,2022.2.5,144.2901501860692,
aigu,forte,stimuli/660Hz,stimuli/forte,bloc_3,prob80hthp_12trials.xlsx,2,24,80,20,0,,,,,0,2,2,2,1,7,19,10,,,,,,,,4,978.8442763000057,982.8443785000127,982.844515480005,0.3050630999932764,983.2922843000124,983.2922843000124,,,m,984.5165684000094,984.5165684000094,70,0.74,0.40516789999674074,,,sub-051,45,80,700,bloc_loop.csv,2023-09-20_16h28.56.961,PainUncertainty,2022.2.5,144.2901501860692,
grave,moderee,stimuli/330Hz,stimuli/moderee,bloc_3,prob80hthp_12trials.xlsx,2,24,80,20,0,,,,,0,2,2,2,1,8,20,1,,,,,,,,4.8,984.5165684000094,989.3178717000119,989.3178941800055,0.3016066999989562,989.7630416000029,989.7630416000029,,,n,993.3675294000132,993.3675294000132,7,3.158,0.38865189999341965,,,sub-051,45,80,700,bloc_loop.csv,2023-09-20_16h28.56.961,PainUncertainty,2022.2.5,144.2901501860692,
aigu,moderee,stimuli/660Hz,stimuli/moderee,bloc_3,prob80hthp_12trials.xlsx,2,24,80,20,0,,,,,0,2,2,2,1,9,21,11,,,,,,,,3.5,993.3675294000132,996.8668888000102,996.8668311800051,0.30523689999245107,997.3112121000013,997.3112121000013,,,n,999.6962092000031,999.6962092000031,11,1.81,0.5054638000001432,,,sub-051,45,80,700,bloc_loop.csv,2023-09-20_16h28.56.961,PainUncertainty,2022.2.5,144.2901501860692,
aigu,forte,stimuli/660Hz,stimuli/forte,bloc_3,prob80hthp_12trials.xlsx,2,24,80,20,0,,,,,0,2,2,2,1,10,22,8,,,,,,,,3.7,999.6962092000031,1003.3953787000064,1003.3954086800135,0.3051608999958262,1003.8397017000098,1003.8397017000098,,,m,1005.5146479000105,1005.5146479000105,68,0.969,0.6215712999983225,,,sub-051,45,80,700,bloc_loop.csv,2023-09-20_16h28.56.961,PainUncertainty,2022.2.5,144.2901501860692,
grave,moderee,stimuli/330Hz,stimuli/moderee,bloc_3,prob80hthp_12trials.xlsx,2,24,80,20,0,,,,,0,2,2,2,1,11,23,4,,,,,,,,4.2,1005.5146479000105,1009.7160612000007,1009.7160721800086,0.30518290000327397,1010.1627168000123,1010.1627168000123,,,n,1011.6168903000071,1011.6168903000071,18,0.963,0.4264416999940295,,,sub-051,45,80,700,bloc_loop.csv,2023-09-20_16h28.56.961,PainUncertainty,2022.2.5,144.2901501860692,
aigu,moderee,stimuli/660Hz,stimuli/moderee,bloc_4,prob50_50_4trials.xlsx,2,8,50,50,1,,,,,0,3,3,3,0,0,0,2,,,,,,,,4.7,1011.6168903000071,1016.3205773000082,1016.3205840800132,0.30521419999422505,1016.7649923999998,1016.7649923999998,,,n,1020.1669699000049,1020.1669699000049,15,2.623,0.6954157000000123,,,sub-051,45,80,700,bloc_loop.csv,2023-09-20_16h28.56.961,PainUncertainty,2022.2.5,144.2901501860692,
grave,forte,stimuli/330Hz,stimuli/forte,bloc_4,prob50_50_4trials.xlsx,2,8,50,50,1,,,,,0,3,3,3,0,1,1,1,,,,,,,,4.3,1020.1669699000049,1024.467699300003,1024.4676054800134,0.2990754000056768,1024.9096583000064,1024.9096583000064,,,m,1026.4633194000053,1026.4633194000053,74,1.03,0.44441579999693204,,,sub-051,45,80,700,bloc_loop.csv,2023-09-20_16h28.56.961,PainUncertainty,2022.2.5,144.2901501860692,
grave,moderee,stimuli/330Hz,stimuli/moderee,bloc_4,prob50_50_4trials.xlsx,2,8,50,50,1,,,,,0,3,3,3,0,2,2,0,,,,,,,,3.2,1026.4633194000053,1029.6624252000038,1029.662467380002,0.30545379999966826,1030.1114106000023,1030.1114106000023,,,n,1031.7512671000004,1031.7512671000004,17,1.004,0.5633528999896953,,,sub-051,45,80,700,bloc_loop.csv,2023-09-20_16h28.56.961,PainUncertainty,2022.2.5,144.2901501860692,
aigu,forte,stimuli/660Hz,stimuli/forte,bloc_4,prob50_50_4trials.xlsx,2,8,50,50,1,,,,,0,3,3,3,0,3,3,3,,,,,,,,4.8,1031.7512671000004,1036.552062200004,1036.552071980003,0.30520610000530723,1037.000297999999,1037.000297999999,,,m,1038.829681400006,1038.829681400006,69,1.213,0.5639693999983137,,,sub-051,45,80,700,bloc_loop.csv,2023-09-20_16h28.56.961,PainUncertainty,2022.2.5,144.2901501860692,
grave,forte,stimuli/330Hz,stimuli/forte,bloc_4,prob50_50_4trials.xlsx,2,8,50,50,1,,,,,0,3,3,3,1,0,4,1,,,,,,,,3.7,1038.829681400006,1042.5323788000096,1042.532582780003,0.30482150000170805,1042.9766664000053,1042.9766664000053,,,m,1045.0159311000025,1045.0159311000025,72,1.523,0.435782400003518,,,sub-051,45,80,700,bloc_loop.csv,2023-09-20_16h28.56.961,PainUncertainty,2022.2.5,144.2901501860692,
grave,moderee,stimuli/330Hz,stimuli/moderee,bloc_4,prob50_50_4trials.xlsx,2,8,50,50,1,,,,,0,3,3,3,1,1,5,0,,,,,,,,4.6,1045.0159311000025,1049.6161125000071,1049.6162349800056,0.30501390001154505,1050.0647578000062,1050.0647578000062,,,n,1053.467250600006,1053.467250600006,13,2.865,0.46544129999529105,,,sub-051,45,80,700,bloc_loop.csv,2023-09-20_16h28.56.961,PainUncertainty,2022.2.5,144.2901501860692,
aigu,forte,stimuli/660Hz,stimuli/forte,bloc_4,prob50_50_4trials.xlsx,2,8,50,50,1,,,,,0,3,3,3,1,2,6,3,,,,,,,,3.4,1053.467250600006,1056.8674051999988,1056.86748348001,0.305167700003949,1057.3134025000036,1057.3134025000036,,,m,1058.9006101000123,1058.9006101000123,69,0.997,0.5226238999894122,,,sub-051,45,80,700,bloc_loop.csv,2023-09-20_16h28.56.961,PainUncertainty,2022.2.5,144.2901501860692,
aigu,moderee,stimuli/660Hz,stimuli/moderee,bloc_4,prob50_50_4trials.xlsx,2,8,50,50,1,,,,,0,3,3,3,1,3,7,2,,,,,,,,3.3,1058.9006101000123,1062.2011197000102,1062.2009675800132,0.3052752000075998,1062.6456624999992,1062.6456624999992,,,n,1066.4684376000077,1066.4684376000077,18,1.322,0.4689520999963861,,,sub-051,45,80,700,bloc_loop.csv,2023-09-20_16h28.56.961,PainUncertainty,2022.2.5,144.2901501860692,
,,,,bloc_4,prob50_50_4trials.xlsx,2,8,50,50,1,,,,,0,3,3,3,,,,,0,0,0,0,,,,,,,,,,,,,,,,,,,1066.4684376000077,1104.7898213000008,sub-051,45,80,700,bloc_loop.csv,2023-09-20_16h28.56.961,PainUncertainty,2022.2.5,144.2901501860692,
aigu,moderee,stimuli/660Hz,stimuli/moderee,bloc_5,prob20hthp_12trials.xlsx,2,24,20,80,0,,,,,0,4,4,4,0,0,0,7,,,,,,,,4.6,1105.7372025000077,1110.3386560000072,1110.3386342800136,0.3019915999902878,1110.7837407000043,1110.7837407000043,,,n,1114.8605463999993,1114.8605463999993,8,3.046,0.9610680999903707,,,sub-051,45,80,700,bloc_loop.csv,2023-09-20_16h28.56.961,PainUncertainty,2022.2.5,144.2901501860692,
grave,forte,stimuli/330Hz,stimuli/forte,bloc_5,prob20hthp_12trials.xlsx,2,24,20,80,0,,,,,0,4,4,4,0,1,1,0,,,,,,,,3.4,1114.8605463999993,1118.2631581000023,1118.2631958800107,0.3051692000008188,1118.7114313000056,1118.7114313000056,,,m,1121.3482048000005,1121.3482048000005,68,2.095,0.48478860000614077,,,sub-051,45,80,700,bloc_loop.csv,2023-09-20_16h28.56.961,PainUncertainty,2022.2.5,144.2901501860692,
grave,forte,stimuli/330Hz,stimuli/forte,bloc_5,prob20hthp_12trials.xlsx,2,24,20,80,0,,,,,0,4,4,4,0,2,2,3,,,,,,,,4.9,1121.3482048000005,1126.2502959000121,1126.2503612800124,0.3051578000013251,1126.6945636000019,1126.6945636000019,,,m,1128.2354347000073,1128.2354347000073,70,1.121,0.3690181999991182,,,sub-051,45,80,700,bloc_loop.csv,2023-09-20_16h28.56.961,PainUncertainty,2022.2.5,144.2901501860692,
grave,forte,stimuli/330Hz,stimuli/forte,bloc_5,prob20hthp_12trials.xlsx,2,24,20,80,0,,,,,0,4,4,4,0,3,3,2,,,,,,,,4.2,1128.2354347000073,1132.4385573000036,1132.4386478800066,0.30110189999686554,1132.8829380000097,1132.8829380000097,,,m,1134.211657500011,1134.211657500011,69,0.92,0.3456943999917712,,,sub-051,45,80,700,bloc_loop.csv,2023-09-20_16h28.56.961,PainUncertainty,2022.2.5,144.2901501860692,
grave,forte,stimuli/330Hz,stimuli/forte,bloc_5,prob20hthp_12trials.xlsx,2,24,20,80,0,,,,,0,4,4,4,0,4,4,4,,,,,,,,4,1134.211657500011,1138.2169054000115,1138.2169068800054,0.3052834999980405,1138.66121820001,1138.66121820001,,,m,1141.4527798000054,1141.4527798000054,74,2.322,0.3863402999995742,,,sub-051,45,80,700,bloc_loop.csv,2023-09-20_16h28.56.961,PainUncertainty,2022.2.5,144.2901501860692,
aigu,moderee,stimuli/660Hz,stimuli/moderee,bloc_5,prob20hthp_12trials.xlsx,2,24,20,80,0,,,,,0,4,4,4,0,5,5,9,,,,,,,,3.2,1141.4527798000054,1144.655292200012,1144.6551984800085,0.3053615999961039,1145.0996003000037,1145.0996003000037,,,n,1147.028289400012,1147.028289400012,13,1.413,0.4454120000009425,,,sub-051,45,80,700,bloc_loop.csv,2023-09-20_16h28.56.961,PainUncertainty,2022.2.5,144.2901501860692,
aigu,moderee,stimuli/660Hz,stimuli/moderee,bloc_5,prob20hthp_12trials.xlsx,2,24,20,80,0,,,,,0,4,4,4,0,6,6,6,,,,,,,,4.5,1147.028289400012,1151.5311470000015,1151.5311292800093,0.30506690000765957,1151.9756736999989,1151.9756736999989,,,n,1154.7457724000124,1154.7457724000124,5,2.266,0.43187749999924563,,,sub-051,45,80,700,bloc_loop.csv,2023-09-20_16h28.56.961,PainUncertainty,2022.2.5,144.2901501860692,
grave,forte,stimuli/330Hz,stimuli/forte,bloc_5,prob20hthp_12trials.xlsx,2,24,20,80,0,,,,,0,4,4,4,0,7,7,1,,,,,,,,5,1154.7457724000124,1159.7495890999999,1159.7475900800114,0.3047412999876542,1160.1916003000078,1160.1916003000078,,,m,1163.2017657000106,1163.2017657000106,69,2.462,0.47306920000119135,,,sub-051,45,80,700,bloc_loop.csv,2023-09-20_16h28.56.961,PainUncertainty,2022.2.5,144.2901501860692,
grave,moderee,stimuli/330Hz,stimuli/moderee,bloc_5,prob20hthp_12trials.xlsx,2,24,20,80,0,,,,,0,4,4,4,0,8,8,5,,,,,,,,3.8,1163.2017657000106,1167.0050554000045,1167.0050204800123,0.3052820999873802,1167.4492589000001,1167.4492589000001,,,n,1169.176413100009,1169.176413100009,12,1.115,0.5394470999890473,,,sub-051,45,80,700,bloc_loop.csv,2023-09-20_16h28.56.961,PainUncertainty,2022.2.5,144.2901501860692,
aigu,forte,stimuli/660Hz,stimuli/forte,bloc_5,prob20hthp_12trials.xlsx,2,24,20,80,0,,,,,0,4,4,4,0,9,9,11,,,,,,,,3.6,1169.176413100009,1172.7765144000005,1172.7767165800092,0.3050560999981826,1173.2234930000122,1173.2234930000122,,,m,1176.1420685000048,1176.1420685000048,74,2.391,0.4615178999956697,,,sub-051,45,80,700,bloc_loop.csv,2023-09-20_16h28.56.961,PainUncertainty,2022.2.5,144.2901501860692,
aigu,moderee,stimuli/660Hz,stimuli/moderee,bloc_5,prob20hthp_12trials.xlsx,2,24,20,80,0,,,,,0,4,4,4,0,10,10,10,,,,,,,,3.3,1176.1420685000048,1179.4439390000043,1179.4440805800027,0.30526259999896865,1179.8884489000047,1179.8884489000047,,,n,1182.4398390999995,1182.4398390999995,15,1.978,0.5107865000027232,,,sub-051,45,80,700,bloc_loop.csv,2023-09-20_16h28.56.961,PainUncertainty,2022.2.5,144.2901501860692,
aigu,moderee,stimuli/660Hz,stimuli/moderee,bloc_5,prob20hthp_12trials.xlsx,2,24,20,80,0,,,,,0,4,4,4,0,11,11,8,,,,,,,,3.3,1182.4398390999995,1185.7437357000017,1185.7437123800105,0.3052542000077665,1186.1898703000043,1186.1898703000043,,,n,1189.7091971000045,1189.7091971000045,13,2.788,0.667883999994956,,,sub-051,45,80,700,bloc_loop.csv,2023-09-20_16h28.56.961,PainUncertainty,2022.2.5,144.2901501860692,
aigu,moderee,stimuli/660Hz,stimuli/moderee,bloc_5,prob20hthp_12trials.xlsx,2,24,20,80,0,,,,,0,4,4,4,1,0,12,9,,,,,,,,3.6,1189.7091971000045,1193.313634200007,1193.3136677800126,0.30648860000655986,1193.7619024000014,1193.7619024000014,,,n,1196.6945875000092,1196.6945875000092,9,1.983,0.8832383999833837,,,sub-051,45,80,700,bloc_loop.csv,2023-09-20_16h28.56.961,PainUncertainty,2022.2.5,144.2901501860692,
aigu,moderee,stimuli/660Hz,stimuli/moderee,bloc_5,prob20hthp_12trials.xlsx,2,24,20,80,0,,,,,0,4,4,4,1,1,13,8,,,,,,,,3.9,1196.6945875000092,1200.5993220000091,1200.599357880003,0.3050645000039367,1201.0472771000059,1201.0472771000059,,,n,1204.4423597000132,1204.4423597000132,12,2.677,0.6686353999975836,,,sub-051,45,80,700,bloc_loop.csv,2023-09-20_16h28.56.961,PainUncertainty,2022.2.5,144.2901501860692,
aigu,moderee,stimuli/660Hz,stimuli/moderee,bloc_5,prob20hthp_12trials.xlsx,2,24,20,80,0,,,,,0,4,4,4,1,2,14,7,,,,,,,,4.6,1204.4423597000132,1209.0450164000067,1209.0450673800137,0.30525829999533016,1209.491526800004,1209.491526800004,,,n,1212.2274832000112,1212.2274832000112,10,2.213,0.4384305999992648,,,sub-051,45,80,700,bloc_loop.csv,2023-09-20_16h28.56.961,PainUncertainty,2022.2.5,144.2901501860692,
grave,forte,stimuli/330Hz,stimuli/forte,bloc_5,prob20hthp_12trials.xlsx,2,24,20,80,0,,,,,0,4,4,4,1,3,15,3,,,,,,,,3.5,1212.2274832000112,1215.7265625,1215.7267355800054,0.3046239999966929,1216.1703089000075,1216.1703089000075,,,m,1218.2998890000017,1218.2998890000017,69,1.358,0.6978112999931909,,,sub-051,45,80,700,bloc_loop.csv,2023-09-20_16h28.56.961,PainUncertainty,2022.2.5,144.2901501860692,
aigu,moderee,stimuli/660Hz,stimuli/moderee,bloc_5,prob20hthp_12trials.xlsx,2,24,20,80,0,,,,,0,4,4,4,1,4,16,6,,,,,,,,3,1218.2998890000017,1221.3031164999993,1221.3031896800007,0.3051248999981908,1221.747593600012,1221.747593600012,,,n,1223.6205362000037,1223.6205362000037,13,0.966,0.8237606000038795,,,sub-051,45,80,700,bloc_loop.csv,2023-09-20_16h28.56.961,PainUncertainty,2022.2.5,144.2901501860692,
grave,forte,stimuli/330Hz,stimuli/forte,bloc_5,prob20hthp_12trials.xlsx,2,24,20,80,0,,,,,0,4,4,4,1,5,17,4,,,,,,,,4.2,1223.6205362000037,1227.8273614000063,1227.8252490800137,0.30460519999905955,1228.2691440000053,1228.2691440000053,,,m,1229.8989309000026,1229.8989309000026,68,0.97,0.5976809999992838,,,sub-051,45,80,700,bloc_loop.csv,2023-09-20_16h28.56.961,PainUncertainty,2022.2.5,144.2901501860692,
grave,forte,stimuli/330Hz,stimuli/forte,bloc_5,prob20hthp_12trials.xlsx,2,24,20,80,0,,,,,0,4,4,4,1,6,18,2,,,,,,,,4.2,1229.8989309000026,1234.103290900006,1234.1033114799998,0.3054719999927329,1234.550418400002,1234.550418400002,,,m,1236.8031799000019,1236.8031799000019,71,1.635,0.538689399996656,,,sub-051,45,80,700,bloc_loop.csv,2023-09-20_16h28.56.961,PainUncertainty,2022.2.5,144.2901501860692,
aigu,moderee,stimuli/660Hz,stimuli/moderee,bloc_5,prob20hthp_12trials.xlsx,2,24,20,80,0,,,,,0,4,4,4,1,7,19,10,,,,,,,,4.5,1236.8031799000019,1241.3055078000034,1241.305515880004,0.3053522999980487,1241.7539453000063,1241.7539453000063,,,n,1244.4584552000015,1244.4584552000015,11,1.955,0.6643247999891173,,,sub-051,45,80,700,bloc_loop.csv,2023-09-20_16h28.56.961,PainUncertainty,2022.2.5,144.2901501860692,
grave,forte,stimuli/330Hz,stimuli/forte,bloc_5,prob20hthp_12trials.xlsx,2,24,20,80,0,,,,,0,4,4,4,1,8,20,1,,,,,,,,3.1,1244.4584552000015,1247.5635697000107,1247.5635878800008,0.3052562999946531,1248.0086977000028,1248.0086977000028,,,m,1250.1304207000067,1250.1304207000067,78,1.123,0.9324021999927936,,,sub-051,45,80,700,bloc_loop.csv,2023-09-20_16h28.56.961,PainUncertainty,2022.2.5,144.2901501860692,
aigu,forte,stimuli/660Hz,stimuli/forte,bloc_5,prob20hthp_12trials.xlsx,2,24,20,80,0,,,,,0,4,4,4,1,9,21,11,,,,,,,,4.1,1250.1304207000067,1254.230697600011,1254.230710180002,0.3000705000013113,1254.6749461,1254.6749461,,,m,1257.6881400999991,1257.6881400999991,72,2.436,0.5272782999963965,,,sub-051,45,80,700,bloc_loop.csv,2023-09-20_16h28.56.961,PainUncertainty,2022.2.5,144.2901501860692,
grave,forte,stimuli/330Hz,stimuli/forte,bloc_5,prob20hthp_12trials.xlsx,2,24,20,80,0,,,,,0,4,4,4,1,10,22,0,,,,,,,,4.7,1257.6881400999991,1262.3912635000015,1262.3912736800035,0.3051294000033522,1262.8355252000038,1262.8355252000038,,,m,1265.1516999000014,1265.1516999000014,74,1.747,0.49842289999651257,,,sub-051,45,80,700,bloc_loop.csv,2023-09-20_16h28.56.961,PainUncertainty,2022.2.5,144.2901501860692,
grave,moderee,stimuli/330Hz,stimuli/moderee,bloc_5,prob20hthp_12trials.xlsx,2,24,20,80,0,,,,,0,4,4,4,1,11,23,5,,,,,,,,5,1265.1516999000014,1270.1564704000048,1270.1566427800049,0.3049135000037495,1270.6039287000021,1270.6039287000021,,,n,1274.369741100003,1274.369741100003,8,3.198,0.48400060000130907,,,sub-051,45,80,700,bloc_loop.csv,2023-09-20_16h28.56.961,PainUncertainty,2022.2.5,144.2901501860692,
grave,forte,stimuli/330Hz,stimuli/forte,bloc_6,prob50_50_4trials.xlsx,2,8,50,50,0,,,,,0,5,5,5,0,0,0,1,,,,,,,,3.7,1274.369741100003,1278.0737413000024,1278.0738016800083,0.3052992000011727,1278.5183441000117,1278.5183441000117,,,m,1280.794715600001,1280.794715600001,61,1.434,0.7677867000020342,,,sub-051,45,80,700,bloc_loop.csv,2023-09-20_16h28.56.961,PainUncertainty,2022.2.5,144.2901501860692,
grave,moderee,stimuli/330Hz,stimuli/moderee,bloc_6,prob50_50_4trials.xlsx,2,8,50,50,0,,,,,0,5,5,5,0,1,1,0,,,,,,,,3.4,1280.794715600001,1284.199400700003,1284.1995556800016,0.3047342999925604,1284.64779860001,1284.64779860001,,,n,1286.0835137000104,1286.0835137000104,12,0.907,0.47012009998434223,,,sub-051,45,80,700,bloc_loop.csv,2023-09-20_16h28.56.961,PainUncertainty,2022.2.5,144.2901501860692,
aigu,moderee,stimuli/660Hz,stimuli/moderee,bloc_6,prob50_50_4trials.xlsx,2,8,50,50,0,,,,,0,5,5,5,0,2,2,2,,,,,,,,3.7,1286.0835137000104,1289.7833956000104,1289.7834998800013,0.30479510000441223,1290.229982200006,1290.229982200006,,,n,1292.60306400001,1292.60306400001,10,1.825,0.4815144999884069,,,sub-051,45,80,700,bloc_loop.csv,2023-09-20_16h28.56.961,PainUncertainty,2022.2.5,144.2901501860692,
aigu,forte,stimuli/660Hz,stimuli/forte,bloc_6,prob50_50_4trials.xlsx,2,8,50,50,0,,,,,0,5,5,5,0,3,3,3,,,,,,,,4.2,1292.60306400001,1296.8054762000102,1296.8057852800034,0.30552110000280663,1297.2529442000086,1297.2529442000086,,,m,1300.0361409000034,1300.0361409000034,74,2.206,0.49231759998656344,,,sub-051,45,80,700,bloc_loop.csv,2023-09-20_16h28.56.961,PainUncertainty,2022.2.5,144.2901501860692,
aigu,moderee,stimuli/660Hz,stimuli/moderee,bloc_6,prob50_50_4trials.xlsx,2,8,50,50,0,,,,,0,5,5,5,1,0,4,2,,,,,,,,3,1300.0361409000034,1303.0356519000052,1303.0357251800074,0.3051279000064824,1303.4840799000085,1303.4840799000085,,,n,1311.0933117000095,1311.0933117000095,15,7.047,0.48781429999507964,,,sub-051,45,80,700,bloc_loop.csv,2023-09-20_16h28.56.961,PainUncertainty,2022.2.5,144.2901501860692,
grave,forte,stimuli/330Hz,stimuli/forte,bloc_6,prob50_50_4trials.xlsx,2,8,50,50,0,,,,,0,5,5,5,1,1,5,1,,,,,,,,3.8,1311.0933117000095,1314.8976365999988,1314.897598580012,0.30501519999234006,1315.3419380000123,1315.3419380000123,,,m,1317.340551900008,1317.340551900008,66,1.403,0.5142983999976423,,,sub-051,45,80,700,bloc_loop.csv,2023-09-20_16h28.56.961,PainUncertainty,2022.2.5,144.2901501860692,
grave,moderee,stimuli/330Hz,stimuli/moderee,bloc_6,prob50_50_4trials.xlsx,2,8,50,50,0,,,,,0,5,5,5,1,2,6,0,,,,,,,,4.8,1317.340551900008,1322.1414759000036,1322.1415100800136,0.30491809999512043,1322.5856383000064,1322.5856383000064,,,n,1325.921777200012,1325.921777200012,15,2.795,0.46586999999999534,,,sub-051,45,80,700,bloc_loop.csv,2023-09-20_16h28.56.961,PainUncertainty,2022.2.5,144.2901501860692,
aigu,forte,stimuli/660Hz,stimuli/forte,bloc_6,prob50_50_4trials.xlsx,2,8,50,50,0,,,,,0,5,5,5,1,3,7,3,,,,,,,,4.8,1325.921777200012,1330.7259054000024,1330.725832980001,0.3053327999950852,1331.1726526999992,1331.1726526999992,,,m,1332.680340100007,1332.680340100007,64,0.902,0.4896680999954697,,,sub-051,45,80,700,bloc_loop.csv,2023-09-20_16h28.56.961,PainUncertainty,2022.2.5,144.2901501860692,
grave,moderee,stimuli/330Hz,stimuli/moderee,bloc_7,prob80hthp_12trials.xlsx,2,24,80,20,1,,,,,0,6,6,6,0,0,0,1,,,,,,,,3.6,1332.680340100007,1336.2819639000081,1336.282025280007,0.30520599998999387,1336.72673200001,1336.72673200001,,,n,1339.8253473000077,1339.8253473000077,15,2.601,0.4210694999928819,,,sub-051,45,80,700,bloc_loop.csv,2023-09-20_16h28.56.961,PainUncertainty,2022.2.5,144.2901501860692,
aigu,forte,stimuli/660Hz,stimuli/forte,bloc_7,prob80hthp_12trials.xlsx,2,24,80,20,1,,,,,0,6,6,6,0,1,1,9,,,,,,,,4.2,1339.8253473000077,1344.0262298000016,1344.026267180007,0.30534809999517165,1344.4746525000082,1344.4746525000082,,,m,1347.3023080999992,1347.3023080999992,72,2.19,0.5603097999846796,,,sub-051,45,80,700,bloc_loop.csv,2023-09-20_16h28.56.961,PainUncertainty,2022.2.5,144.2901501860692,
grave,moderee,stimuli/330Hz,stimuli/moderee,bloc_7,prob80hthp_12trials.xlsx,2,24,80,20,1,,,,,0,6,6,6,0,2,2,0,,,,,,,,3.6,1347.3023080999992,1350.9022011000052,1350.9022450800026,0.30502340001112316,1351.346360800002,1351.346360800002,,,n,1354.1738881000056,1354.1738881000056,15,2.255,0.5205456999974558,,,sub-051,45,80,700,bloc_loop.csv,2023-09-20_16h28.56.961,PainUncertainty,2022.2.5,144.2901501860692,
grave,moderee,stimuli/330Hz,stimuli/moderee,bloc_7,prob80hthp_12trials.xlsx,2,24,80,20,1,,,,,0,6,6,6,0,3,3,2,,,,,,,,4.8,1354.1738881000056,1358.979033200012,1358.9791004800122,0.3052049999969313,1359.4232794000127,1359.4232794000127,,,n,1362.5617554000055,1362.5617554000055,15,2.608,0.4720540999987861,,,sub-051,45,80,700,bloc_loop.csv,2023-09-20_16h28.56.961,PainUncertainty,2022.2.5,144.2901501860692,
aigu,moderee,stimuli/660Hz,stimuli/moderee,bloc_7,prob80hthp_12trials.xlsx,2,24,80,20,1,,,,,0,6,6,6,0,4,4,11,,,,,,,,4.2,1362.5617554000055,1366.764818200012,1366.764791280008,0.3051345000130823,1367.2129196000024,1367.2129196000024,,,n,1369.498940400008,1369.498940400008,14,1.727,0.48019339999882504,,,sub-051,45,80,700,bloc_loop.csv,2023-09-20_16h28.56.961,PainUncertainty,2022.2.5,144.2901501860692,
aigu,forte,stimuli/660Hz,stimuli/forte,bloc_7,prob80hthp_12trials.xlsx,2,24,80,20,1,,,,,0,6,6,6,0,5,5,7,,,,,,,,3.9,1369.498940400008,1373.399446800002,1373.3979842800095,0.3026026000006823,1373.8420486000105,1373.8420486000105,,,m,1377.2947232000006,1377.2947232000006,59,1.503,1.8904732999944827,,,sub-051,45,80,700,bloc_loop.csv,2023-09-20_16h28.56.961,PainUncertainty,2022.2.5,144.2901501860692,
grave,forte,stimuli/330Hz,stimuli/forte,bloc_7,prob80hthp_12trials.xlsx,2,24,80,20,1,,,,,0,6,6,6,0,6,6,5,,,,,,,,4.1,1377.2947232000006,1381.3984273000096,1381.3984885800078,0.30504279999877326,1381.8497505000123,1381.8497505000123,,,m,1383.5910501000035,1383.5910501000035,67,0.941,0.7223067000013543,,,sub-051,45,80,700,bloc_loop.csv,2023-09-20_16h28.56.961,PainUncertainty,2022.2.5,144.2901501860692,
grave,moderee,stimuli/330Hz,stimuli/moderee,bloc_7,prob80hthp_12trials.xlsx,2,24,80,20,1,,,,,0,6,6,6,0,7,7,3,,,,,,,,4.6,1383.5910501000035,1388.191218100008,1388.1913084800094,0.3050927000003867,1388.639759800004,1388.639759800004,,,n,1391.7262105000118,1391.7262105000118,18,2.117,0.8786455000081332,,,sub-051,45,80,700,bloc_loop.csv,2023-09-20_16h28.56.961,PainUncertainty,2022.2.5,144.2901501860692,
aigu,forte,stimuli/660Hz,stimuli/forte,bloc_7,prob80hthp_12trials.xlsx,2,24,80,20,1,,,,,0,6,6,6,0,8,8,10,,,,,,,,3.1,1391.7262105000118,1394.8304816000018,1394.8305330800126,0.30660149999312125,1395.2802121000132,1395.2802121000132,,,m,1396.5823460000101,1396.5823460000101,70,0.677,0.5474565999902552,,,sub-051,45,80,700,bloc_loop.csv,2023-09-20_16h28.56.961,PainUncertainty,2022.2.5,144.2901501860692,
grave,moderee,stimuli/330Hz,stimuli/moderee,bloc_7,prob80hthp_12trials.xlsx,2,24,80,20,1,,,,,0,6,6,6,0,9,9,4,,,,,,,,3.1,1396.5823460000101,1399.6852377000032,1399.685312980006,0.30518019999726675,1400.1295375000045,1400.1295375000045,,,n,1402.385648399999,1402.385648399999,15,1.74,0.4330117999925278,,,sub-051,45,80,700,bloc_loop.csv,2023-09-20_16h28.56.961,PainUncertainty,2022.2.5,144.2901501860692,
aigu,forte,stimuli/660Hz,stimuli/forte,bloc_7,prob80hthp_12trials.xlsx,2,24,80,20,1,,,,,0,6,6,6,0,10,10,8,,,,,,,,4.3,1402.385648399999,1406.6866033000115,1406.686496580011,0.3047552999923937,1407.1308865000028,1407.1308865000028,,,m,1409.413791900006,1409.413791900006,66,1.739,0.4924440000031609,,,sub-051,45,80,700,bloc_loop.csv,2023-09-20_16h28.56.961,PainUncertainty,2022.2.5,144.2901501860692,
aigu,forte,stimuli/660Hz,stimuli/forte,bloc_7,prob80hthp_12trials.xlsx,2,24,80,20,1,,,,,0,6,6,6,0,11,11,6,,,,,,,,4.5,1409.413791900006,1413.916214500001,1413.9162442800066,0.30507079999370035,1414.3608635000128,1414.3608635000128,,,m,1415.9657185000106,1415.9657185000106,70,1.031,0.5117795999976806,,,sub-051,45,80,700,bloc_loop.csv,2023-09-20_16h28.56.961,PainUncertainty,2022.2.5,144.2901501860692,
aigu,forte,stimuli/660Hz,stimuli/forte,bloc_7,prob80hthp_12trials.xlsx,2,24,80,20,1,,,,,0,6,6,6,1,0,12,10,,,,,,,,3.1,1415.9657185000106,1419.069531800007,1419.0696386800032,0.3052106000104686,1419.5138705999998,1419.5138705999998,,,m,1421.208983000004,1421.208983000004,71,1.1,0.5227556000027107,,,sub-051,45,80,700,bloc_loop.csv,2023-09-20_16h28.56.961,PainUncertainty,2022.2.5,144.2901501860692,
aigu,moderee,stimuli/660Hz,stimuli/moderee,bloc_7,prob80hthp_12trials.xlsx,2,24,80,20,1,,,,,0,6,6,6,1,1,13,11,,,,,,,,3,1421.208983000004,1424.2095405,1424.2096622800077,0.3047028000000864,1424.6535329000035,1424.6535329000035,,,n,1427.2176917000033,1427.2176917000033,16,1.997,0.49620099998719525,,,sub-051,45,80,700,bloc_loop.csv,2023-09-20_16h28.56.961,PainUncertainty,2022.2.5,144.2901501860692,
aigu,forte,stimuli/660Hz,stimuli/forte,bloc_7,prob80hthp_12trials.xlsx,2,24,80,20,1,,,,,0,6,6,6,1,2,14,7,,,,,,,,4.5,1427.2176917000033,1431.7166967000085,1431.716927980006,0.30496429999766406,1432.161064,1432.161064,,,m,1434.6480731000047,1434.6480731000047,79,1.968,0.4452591000008397,,,sub-051,45,80,700,bloc_loop.csv,2023-09-20_16h28.56.961,PainUncertainty,2022.2.5,144.2901501860692,
grave,moderee,stimuli/330Hz,stimuli/moderee,bloc_7,prob80hthp_12trials.xlsx,2,24,80,20,1,,,,,0,6,6,6,1,3,15,1,,,,,,,,3.3,1434.6480731000047,1437.9537937999994,1437.9538473800117,0.3050587000034284,1438.3978524000122,1438.3978524000122,,,n,1440.4628673000116,1440.4628673000116,17,1.607,0.3903856000106316,,,sub-051,45,80,700,bloc_loop.csv,2023-09-20_16h28.56.961,PainUncertainty,2022.2.5,144.2901501860692,
grave,moderee,stimuli/330Hz,stimuli/moderee,bloc_7,prob80hthp_12trials.xlsx,2,24,80,20,1,,,,,0,6,6,6,1,4,16,2,,,,,,,,3,1440.4628673000116,1443.4683974000072,1443.4685225800117,0.3049896999873454,1443.9125425000093,1443.9125425000093,,,n,1447.4789227,1447.4789227,11,3.128,0.36198940000031143,,,sub-051,45,80,700,bloc_loop.csv,2023-09-20_16h28.56.961,PainUncertainty,2022.2.5,144.2901501860692,
aigu,forte,stimuli/660Hz,stimuli/forte,bloc_7,prob80hthp_12trials.xlsx,2,24,80,20,1,,,,,0,6,6,6,1,5,17,8,,,,,,,,3.4,1447.4789227,1450.879201600008,1450.880754780001,0.29949849999684375,1451.323735900005,1451.323735900005,,,m,1453.4857633000065,1453.4857633000065,69,1.693,0.4186842999915825,,,sub-051,45,80,700,bloc_loop.csv,2023-09-20_16h28.56.961,PainUncertainty,2022.2.5,144.2901501860692,
aigu,forte,stimuli/660Hz,stimuli/forte,bloc_7,prob80hthp_12trials.xlsx,2,24,80,20,1,,,,,0,6,6,6,1,6,18,6,,,,,,,,4.5,1453.4857633000065,1457.9908926000062,1457.9916258800135,0.30544359999476,1458.4389966000017,1458.4389966000017,,,m,1460.2153698000038,1460.2153698000038,73,0.983,0.7270074999978533,,,sub-051,45,80,700,bloc_loop.csv,2023-09-20_16h28.56.961,PainUncertainty,2022.2.5,144.2901501860692,
aigu,forte,stimuli/660Hz,stimuli/forte,bloc_7,prob80hthp_12trials.xlsx,2,24,80,20,1,,,,,0,6,6,6,1,7,19,9,,,,,,,,4.8,1460.2153698000038,1465.0194665000017,1465.0193991800102,0.3051090000080876,1465.463510600006,1465.463510600006,,,m,1468.8112727000116,1468.8112727000116,74,2.252,1.037534200004302,,,sub-051,45,80,700,bloc_loop.csv,2023-09-20_16h28.56.961,PainUncertainty,2022.2.5,144.2901501860692,
grave,forte,stimuli/330Hz,stimuli/forte,bloc_7,prob80hthp_12trials.xlsx,2,24,80,20,1,,,,,0,6,6,6,1,8,20,5,,,,,,,,4,1468.8112727000116,1472.8119307000015,1472.8119022800006,0.30520260000776034,1473.2565032999992,1473.2565032999992,,,m,1474.5340585000085,1474.5340585000085,68,0.802,0.3941939999931492,,,sub-051,45,80,700,bloc_loop.csv,2023-09-20_16h28.56.961,PainUncertainty,2022.2.5,144.2901501860692,
grave,moderee,stimuli/330Hz,stimuli/moderee,bloc_7,prob80hthp_12trials.xlsx,2,24,80,20,1,,,,,0,6,6,6,1,9,21,3,,,,,,,,3.4,1474.5340585000085,1477.9379073000018,1477.9381970800082,0.2995039999950677,1478.382410700011,1478.382410700011,,,n,1479.6625907000125,1479.6625907000125,18,0.76,0.45824499998707324,,,sub-051,45,80,700,bloc_loop.csv,2023-09-20_16h28.56.961,PainUncertainty,2022.2.5,144.2901501860692,
grave,moderee,stimuli/330Hz,stimuli/moderee,bloc_7,prob80hthp_12trials.xlsx,2,24,80,20,1,,,,,0,6,6,6,1,10,22,0,,,,,,,,4.3,1479.6625907000125,1483.9660730000032,1483.966155380002,0.30500650001340546,1484.4145303000114,1484.4145303000114,,,n,1487.316995400004,1487.316995400004,13,2.42,0.4275879999913741,,,sub-051,45,80,700,bloc_loop.csv,2023-09-20_16h28.56.961,PainUncertainty,2022.2.5,144.2901501860692,
grave,moderee,stimuli/330Hz,stimuli/moderee,bloc_7,prob80hthp_12trials.xlsx,2,24,80,20,1,,,,,0,6,6,6,1,11,23,4,,,,,,,,4.9,1487.316995400004,1492.2170923000085,1492.217113480007,0.3049834999983432,1492.6613072000036,1492.6613072000036,,,n,1497.6127153999987,1497.6127153999987,12,2.491,0.4266986000002362,,,sub-051,45,80,700,bloc_loop.csv,2023-09-20_16h28.56.961,PainUncertainty,2022.2.5,144.2901501860692,
,,,,bloc_7,prob80hthp_12trials.xlsx,2,24,80,20,1,,,,,0,6,6,6,,,,,0,0,0,0,,,,,,,,,,,,,,,,,,,1497.6127153999987,1521.727352700007,sub-051,45,80,700,bloc_loop.csv,2023-09-20_16h28.56.961,PainUncertainty,2022.2.5,144.2901501860692,
grave,moderee,stimuli/330Hz,stimuli/moderee,bloc_8,prob50_50_4trials.xlsx,3,12,50,50,0,,,,,0,7,7,7,0,0,0,0,,,,,,,,3.8,1522.6165251000057,1526.4158301999996,1526.4158613800014,0.30507220000436064,1526.860173100009,1526.860173100009,,,n,1529.4220825000084,1529.4220825000084,13,2.106,0.3893048999889288,,,sub-051,45,80,700,bloc_loop.csv,2023-09-20_16h28.56.961,PainUncertainty,2022.2.5,144.2901501860692,
aigu,moderee,stimuli/660Hz,stimuli/moderee,bloc_8,prob50_50_4trials.xlsx,3,12,50,50,0,,,,,0,7,7,7,0,1,1,2,,,,,,,,4.6,1529.4220825000084,1534.0275481999997,1534.027609880001,0.30510149999463465,1534.471674600005,1534.471674600005,,,n,1537.413796000008,1537.413796000008,13,2.49,0.37334970000665635,,,sub-051,45,80,700,bloc_loop.csv,2023-09-20_16h28.56.961,PainUncertainty,2022.2.5,144.2901501860692,
aigu,forte,stimuli/660Hz,stimuli/forte,bloc_8,prob50_50_4trials.xlsx,3,12,50,50,0,,,,,0,7,7,7,0,2,2,3,,,,,,,,4.2,1537.413796000008,1541.6187063000107,1541.6188318800037,0.30501540000841487,1542.0634972000116,1542.0634972000116,,,m,1543.3876927000092,1543.3876927000092,70,0.643,0.6193022999941604,,,sub-051,45,80,700,bloc_loop.csv,2023-09-20_16h28.56.961,PainUncertainty,2022.2.5,144.2901501860692,
grave,forte,stimuli/330Hz,stimuli/forte,bloc_8,prob50_50_4trials.xlsx,3,12,50,50,0,,,,,0,7,7,7,0,3,3,1,,,,,,,,4.1,1543.3876927000092,1547.4874782000115,1547.4874600800017,0.305063899999368,1547.9316266000096,1547.9316266000096,,,m,1549.2524860000121,1549.2524860000121,66,0.754,0.5047447999968426,,,sub-051,45,80,700,bloc_loop.csv,2023-09-20_16h28.56.961,PainUncertainty,2022.2.5,144.2901501860692,
grave,forte,stimuli/330Hz,stimuli/forte,bloc_8,prob50_50_4trials.xlsx,3,12,50,50,0,,,,,0,7,7,7,1,0,4,1,,,,,,,,4.3,1549.2524860000121,1553.557566500007,1553.557614780008,0.3050492999900598,1554.0018319000083,1554.0018319000083,,,m,1555.5169058000029,1555.5169058000029,70,0.97,0.4857742000021972,,,sub-051,45,80,700,bloc_loop.csv,2023-09-20_16h28.56.961,PainUncertainty,2022.2.5,144.2901501860692,
aigu,forte,stimuli/660Hz,stimuli/forte,bloc_8,prob50_50_4trials.xlsx,3,12,50,50,0,,,,,0,7,7,7,1,1,5,3,,,,,,,,3.7,1555.5169058000029,1559.218187400009,1559.2181163800037,0.3048067999916384,1559.6621844000038,1559.6621844000038,,,m,1561.6379644000117,1561.6379644000117,66,1.268,0.632134400002542,,,sub-051,45,80,700,bloc_loop.csv,2023-09-20_16h28.56.961,PainUncertainty,2022.2.5,144.2901501860692,
grave,moderee,stimuli/330Hz,stimuli/moderee,bloc_8,prob50_50_4trials.xlsx,3,12,50,50,0,,,,,0,7,7,7,1,2,6,0,,,,,,,,4.9,1561.6379644000117,1566.5382885,1566.538748580008,0.30068739999842364,1566.9830183000013,1566.9830183000013,,,n,1569.2435605000064,1569.2435605000064,10,1.809,0.4003299000032712,,,sub-051,45,80,700,bloc_loop.csv,2023-09-20_16h28.56.961,PainUncertainty,2022.2.5,144.2901501860692,
aigu,moderee,stimuli/660Hz,stimuli/moderee,bloc_8,prob50_50_4trials.xlsx,3,12,50,50,0,,,,,0,7,7,7,1,3,7,2,,,,,,,,4.4,1569.2435605000064,1573.6436335000035,1573.6437935800118,0.304677799998899,1574.0878987000033,1574.0878987000033,,,n,1577.9058951000043,1577.9058951000043,11,2.092,0.6335016999946674,,,sub-051,45,80,700,bloc_loop.csv,2023-09-20_16h28.56.961,PainUncertainty,2022.2.5,144.2901501860692,
aigu,moderee,stimuli/660Hz,stimuli/moderee,bloc_8,prob50_50_4trials.xlsx,3,12,50,50,0,,,,,0,7,7,7,2,0,8,2,,,,,,,,4.4,1577.9058951000043,1582.3110476000002,1582.311083280007,0.3050861999945482,1582.7552330000035,1582.7552330000035,,,n,1585.8313826000085,1585.8313826000085,12,2.566,0.4503444000001764,,,sub-051,45,80,700,bloc_loop.csv,2023-09-20_16h28.56.961,PainUncertainty,2022.2.5,144.2901501860692,
grave,moderee,stimuli/330Hz,stimuli/moderee,bloc_8,prob50_50_4trials.xlsx,3,12,50,50,0,,,,,0,7,7,7,2,1,9,0,,,,,,,,3.3,1585.8313826000085,1589.1316475000058,1589.1319298799995,0.30491649999748915,1589.579927400002,1589.579927400002,,,n,1592.9413693000097,1592.9413693000097,9,2.844,0.4471073000022443,,,sub-051,45,80,700,bloc_loop.csv,2023-09-20_16h28.56.961,PainUncertainty,2022.2.5,144.2901501860692,
grave,forte,stimuli/330Hz,stimuli/forte,bloc_8,prob50_50_4trials.xlsx,3,12,50,50,0,,,,,0,7,7,7,2,2,10,1,,,,,,,,3.7,1592.9413693000097,1596.6460555000085,1596.6460433800007,0.30495710000104737,1597.0905907000124,1597.0905907000124,,,m,1598.855593900007,1598.855593900007,73,1.192,0.511268399990513,,,sub-051,45,80,700,bloc_loop.csv,2023-09-20_16h28.56.961,PainUncertainty,2022.2.5,144.2901501860692,
aigu,forte,stimuli/660Hz,stimuli/forte,bloc_8,prob50_50_4trials.xlsx,3,12,50,50,0,,,,,0,7,7,7,2,3,11,3,,,,,,,,4.5,1598.855593900007,1603.3551103000063,1603.355229780011,0.3050329999969108,1603.7993342000118,1603.7993342000118,,,m,1606.3963864000107,1606.3963864000107,72,2.05,0.4804035999986809,,,sub-051,45,80,700,bloc_loop.csv,2023-09-20_16h28.56.961,PainUncertainty,2022.2.5,144.2901501860692,
grave,forte,stimuli/330Hz,stimuli/forte,bloc_9,prob20hthp_12trials.xlsx,3,36,80,20,0,,,,,0,8,8,8,0,0,0,3,,,,,,,,4.1,1606.3963864000107,1610.5018764000124,1610.5017678800127,0.3052027999947313,1610.9460724000091,1610.9460724000091,,,m,1612.2307213000022,1612.2307213000022,76,0.719,0.4809417999931611,,,sub-051,45,80,700,bloc_loop.csv,2023-09-20_16h28.56.961,PainUncertainty,2022.2.5,144.2901501860692,
aigu,moderee,stimuli/660Hz,stimuli/moderee,bloc_9,prob20hthp_12trials.xlsx,3,36,80,20,0,,,,,0,8,8,8,0,1,1,9,,,,,,,,3.4,1612.2307213000022,1615.6343427000102,1615.6344006800123,0.30545109999366105,1616.083094200003,1616.083094200003,,,n,1617.4237083000044,1617.4237083000044,16,0.789,0.4709415999968769,,,sub-051,45,80,700,bloc_loop.csv,2023-09-20_16h28.56.961,PainUncertainty,2022.2.5,144.2901501860692,
grave,forte,stimuli/330Hz,stimuli/forte,bloc_9,prob20hthp_12trials.xlsx,3,36,80,20,0,,,,,0,8,8,8,0,2,2,2,,,,,,,,3.2,1617.4237083000044,1620.6280276000034,1620.6280245800067,0.30512620000808965,1621.0722491000051,1621.0722491000051,,,m,1623.17770510001,1623.17770510001,73,1.483,0.5381324000045424,,,sub-051,45,80,700,bloc_loop.csv,2023-09-20_16h28.56.961,PainUncertainty,2022.2.5,144.2901501860692,
grave,moderee,stimuli/330Hz,stimuli/moderee,bloc_9,prob20hthp_12trials.xlsx,3,36,80,20,0,,,,,0,8,8,8,0,3,3,5,,,,,,,,4.1,1623.17770510001,1627.282186299999,1627.2819858800126,0.3046996999910334,1627.7259314000112,1627.7259314000112,,,n,1629.7753758000035,1629.7753758000035,10,1.42,0.5678091999870958,,,sub-051,45,80,700,bloc_loop.csv,2023-09-20_16h28.56.961,PainUncertainty,2022.2.5,144.2901501860692,
aigu,moderee,stimuli/660Hz,stimuli/moderee,bloc_9,prob20hthp_12trials.xlsx,3,36,80,20,0,,,,,0,8,8,8,0,4,4,6,,,,,,,,3.4,1629.7753758000035,1633.1780919000012,1633.1783641800052,0.304832499998156,1633.6223083000077,1633.6223083000077,,,n,1637.191465900003,1637.191465900003,11,3.003,0.4956176999985473,,,sub-051,45,80,700,bloc_loop.csv,2023-09-20_16h28.56.961,PainUncertainty,2022.2.5,144.2901501860692,
aigu,moderee,stimuli/660Hz,stimuli/moderee,bloc_9,prob20hthp_12trials.xlsx,3,36,80,20,0,,,,,0,8,8,8,0,5,5,10,,,,,,,,3.7,1637.191465900003,1640.8942951000063,1640.8942710800097,0.3051860999985365,1641.342462600005,1641.342462600005,,,n,1642.7823673000094,1642.7823673000094,9,0.921,0.4648206999991089,,,sub-051,45,80,700,bloc_loop.csv,2023-09-20_16h28.56.961,PainUncertainty,2022.2.5,144.2901501860692,
aigu,moderee,stimuli/660Hz,stimuli/moderee,bloc_9,prob20hthp_12trials.xlsx,3,36,80,20,0,,,,,0,8,8,8,0,6,6,7,,,,,,,,3,1642.7823673000094,1645.784226600008,1645.784186180003,0.30511570000089705,1646.2317355000123,1646.2317355000123,,,n,1647.6243516000104,1647.6243516000104,11,0.919,0.41475009999703616,,,sub-051,45,80,700,bloc_loop.csv,2023-09-20_16h28.56.961,PainUncertainty,2022.2.5,144.2901501860692,
aigu,moderee,stimuli/660Hz,stimuli/moderee,bloc_9,prob20hthp_12trials.xlsx,3,36,80,20,0,,,,,0,8,8,8,0,7,7,8,,,,,,,,4.2,1647.6243516000104,1651.8261624000006,1651.8262953800063,0.30495730000257026,1652.2747922000126,1652.2747922000126,,,n,1655.1851755000098,1655.1851755000098,15,2.129,0.7041237999947043,,,sub-051,45,80,700,bloc_loop.csv,2023-09-20_16h28.56.961,PainUncertainty,2022.2.5,144.2901501860692,
aigu,forte,stimuli/660Hz,stimuli/forte,bloc_9,prob20hthp_12trials.xlsx,3,36,80,20,0,,,,,0,8,8,8,0,8,8,11,,,,,,,,3.2,1655.1851755000098,1658.3900920000015,1658.3900872800064,0.30508560000453144,1658.838677000007,1658.838677000007,,,m,1661.8946708000003,1661.8946708000003,67,2.368,0.6222119999874849,,,sub-051,45,80,700,bloc_loop.csv,2023-09-20_16h28.56.961,PainUncertainty,2022.2.5,144.2901501860692,
grave,forte,stimuli/330Hz,stimuli/forte,bloc_9,prob20hthp_12trials.xlsx,3,36,80,20,0,,,,,0,8,8,8,0,9,9,4,,,,,,,,4,1661.8946708000003,1665.8979217000015,1665.898052880008,0.30078999999386724,1666.3422770000034,1666.3422770000034,,,m,1669.5015497000131,1669.5015497000131,71,2.455,0.6465615000051912,,,sub-051,45,80,700,bloc_loop.csv,2023-09-20_16h28.56.961,PainUncertainty,2022.2.5,144.2901501860692,
grave,forte,stimuli/330Hz,stimuli/forte,bloc_9,prob20hthp_12trials.xlsx,3,36,80,20,0,,,,,0,8,8,8,0,10,10,1,,,,,,,,4.8,1669.5015497000131,1674.3014555000118,1674.301590280002,0.3050029000005452,1674.748009700008,1674.748009700008,,,m,1676.8697594000114,1676.8697594000114,76,1.524,0.5340839999989839,,,sub-051,45,80,700,bloc_loop.csv,2023-09-20_16h28.56.961,PainUncertainty,2022.2.5,144.2901501860692,
grave,forte,stimuli/330Hz,stimuli/forte,bloc_9,prob20hthp_12trials.xlsx,3,36,80,20,0,,,,,0,8,8,8,0,11,11,0,,,,,,,,3.4,1676.8697594000114,1680.2739457999996,1680.274056080007,0.3051267000118969,1680.7182326000038,1680.7182326000038,,,m,1682.7487630000105,1682.7487630000105,73,1.496,0.4695596999954432,,,sub-051,45,80,700,bloc_loop.csv,2023-09-20_16h28.56.961,PainUncertainty,2022.2.5,144.2901501860692,
grave,forte,stimuli/330Hz,stimuli/forte,bloc_9,prob20hthp_12trials.xlsx,3,36,80,20,0,,,,,0,8,8,8,1,0,12,1,,,,,,,,3.8,1682.7487630000105,1686.5530488000077,1686.5531283799996,0.30476360001193825,1687.0013645,1687.0013645,,,m,1688.3408251000074,1688.3408251000074,70,0.768,0.5208447999903001,,,sub-051,45,80,700,bloc_loop.csv,2023-09-20_16h28.56.961,PainUncertainty,2022.2.5,144.2901501860692,
grave,forte,stimuli/330Hz,stimuli/forte,bloc_9,prob20hthp_12trials.xlsx,3,36,80,20,0,,,,,0,8,8,8,1,1,13,4,,,,,,,,3.2,1688.3408251000074,1691.5460908000096,1691.5460878800136,0.30514369999582414,1691.990334800008,1691.990334800008,,,m,1694.237312199999,1694.237312199999,74,1.817,0.37822529999539256,,,sub-051,45,80,700,bloc_loop.csv,2023-09-20_16h28.56.961,PainUncertainty,2022.2.5,144.2901501860692,
aigu,forte,stimuli/660Hz,stimuli/forte,bloc_9,prob20hthp_12trials.xlsx,3,36,80,20,0,,,,,0,8,8,8,1,2,14,11,,,,,,,,3.3,1694.237312199999,1697.5399751000077,1697.5399216800056,0.30515549999836367,1697.9840172000113,1697.9840172000113,,,m,1700.023383800013,1700.023383800013,72,1.49,0.4747217999974964,,,sub-051,45,80,700,bloc_loop.csv,2023-09-20_16h28.56.961,PainUncertainty,2022.2.5,144.2901501860692,
aigu,moderee,stimuli/660Hz,stimuli/moderee,bloc_9,prob20hthp_12trials.xlsx,3,36,80,20,0,,,,,0,8,8,8,1,3,15,8,,,,,,,,4.9,1700.023383800013,1704.9227305000095,1704.9227857800056,0.3051851999916835,1705.3672793000005,1705.3672793000005,,,n,1706.67073350001,1706.67073350001,13,0.698,0.5314986999874236,,,sub-051,45,80,700,bloc_loop.csv,2023-09-20_16h28.56.961,PainUncertainty,2022.2.5,144.2901501860692,
grave,forte,stimuli/330Hz,stimuli/forte,bloc_9,prob20hthp_12trials.xlsx,3,36,80,20,0,,,,,0,8,8,8,1,4,16,2,,,,,,,,4.4,1706.67073350001,1711.076270000005,1711.0762018800074,0.30523660000471864,1711.522514100012,1711.522514100012,,,m,1713.750879500003,1713.750879500003,69,1.658,0.49478589999489486,,,sub-051,45,80,700,bloc_loop.csv,2023-09-20_16h28.56.961,PainUncertainty,2022.2.5,144.2901501860692,
aigu,moderee,stimuli/660Hz,stimuli/moderee,bloc_9,prob20hthp_12trials.xlsx,3,36,80,20,0,,,,,0,8,8,8,1,5,17,7,,,,,,,,3.9,1713.750879500003,1717.6533492000017,1717.6534450800013,0.3051124999910826,1718.097514500012,1718.097514500012,,,n,1719.6158446000045,1719.6158446000045,13,0.71,0.7241221000003861,,,sub-051,45,80,700,bloc_loop.csv,2023-09-20_16h28.56.961,PainUncertainty,2022.2.5,144.2901501860692,
grave,forte,stimuli/330Hz,stimuli/forte,bloc_9,prob20hthp_12trials.xlsx,3,36,80,20,0,,,,,0,8,8,8,1,6,18,0,,,,,,,,5,1719.6158446000045,1724.6200838000077,1724.6200772800134,0.30447419999109115,1725.0636818000057,1725.0636818000057,,,m,1726.8218766000064,1726.8218766000064,73,1.149,0.5364018999971449,,,sub-051,45,80,700,bloc_loop.csv,2023-09-20_16h28.56.961,PainUncertainty,2022.2.5,144.2901501860692,
aigu,moderee,stimuli/660Hz,stimuli/moderee,bloc_9,prob20hthp_12trials.xlsx,3,36,80,20,0,,,,,0,8,8,8,1,7,19,6,,,,,,,,3.1,1726.8218766000064,1729.9256156000047,1729.9255401800096,0.30545749999873806,1730.3698776000092,1730.3698776000092,,,n,1732.0479663000006,1732.0479663000006,10,1.133,0.4699620000028517,,,sub-051,45,80,700,bloc_loop.csv,2023-09-20_16h28.56.961,PainUncertainty,2022.2.5,144.2901501860692,
grave,forte,stimuli/330Hz,stimuli/forte,bloc_9,prob20hthp_12trials.xlsx,3,36,80,20,0,,,,,0,8,8,8,1,8,20,3,,,,,,,,3.9,1732.0479663000006,1735.9472902000125,1735.9472434800032,0.29964520000794437,1736.3920001000079,1736.3920001000079,,,m,1738.7285494000098,1738.7285494000098,64,1.539,0.7231506999960402,,,sub-051,45,80,700,bloc_loop.csv,2023-09-20_16h28.56.961,PainUncertainty,2022.2.5,144.2901501860692,
aigu,moderee,stimuli/660Hz,stimuli/moderee,bloc_9,prob20hthp_12trials.xlsx,3,36,80,20,0,,,,,0,8,8,8,1,9,21,9,,,,,,,,4.8,1738.7285494000098,1743.53137170001,1743.5313857800124,0.30514109999057837,1743.975565700006,1743.975565700006,,,n,1746.0766476999997,1746.0766476999997,13,1.552,0.48139570000057574,,,sub-051,45,80,700,bloc_loop.csv,2023-09-20_16h28.56.961,PainUncertainty,2022.2.5,144.2901501860692,
grave,moderee,stimuli/330Hz,stimuli/moderee,bloc_9,prob20hthp_12trials.xlsx,3,36,80,20,0,,,,,0,8,8,8,1,10,22,5,,,,,,,,5,1746.0766476999997,1751.0808940999996,1751.0810087800114,0.3049701999989338,1751.525559600006,1751.525559600006,,,n,1754.499542800011,1754.499542800011,14,2.477,0.43989939999300987,,,sub-051,45,80,700,bloc_loop.csv,2023-09-20_16h28.56.961,PainUncertainty,2022.2.5,144.2901501860692,
aigu,moderee,stimuli/660Hz,stimuli/moderee,bloc_9,prob20hthp_12trials.xlsx,3,36,80,20,0,,,,,0,8,8,8,1,11,23,10,,,,,,,,4.6,1754.499542800011,1759.102638700002,1759.1026689800115,0.3053220999863697,1759.547078500007,1759.547078500007,,,n,1763.240662000011,1763.240662000011,14,2.871,0.7374734000040917,,,sub-051,45,80,700,bloc_loop.csv,2023-09-20_16h28.56.961,PainUncertainty,2022.2.5,144.2901501860692,
aigu,forte,stimuli/660Hz,stimuli/forte,bloc_9,prob20hthp_12trials.xlsx,3,36,80,20,0,,,,,0,8,8,8,2,0,24,11,,,,,,,,3.2,1763.240662000011,1766.4443001000036,1766.4444071800012,0.30470239999704063,1766.888245500013,1766.888245500013,,,m,1769.2160569000116,1769.2160569000116,62,1.726,0.5341593999910401,,,sub-051,45,80,700,bloc_loop.csv,2023-09-20_16h28.56.961,PainUncertainty,2022.2.5,144.2901501860692,
grave,moderee,stimuli/330Hz,stimuli/moderee,bloc_9,prob20hthp_12trials.xlsx,3,36,80,20,0,,,,,0,8,8,8,2,1,25,5,,,,,,,,4.8,1769.2160569000116,1774.0211718000064,1774.0212010800083,0.30498860000807326,1774.4676760000002,1774.4676760000002,,,n,1778.1181959000096,1778.1181959000096,15,3.159,0.42527749999135267,,,sub-051,45,80,700,bloc_loop.csv,2023-09-20_16h28.56.961,PainUncertainty,2022.2.5,144.2901501860692,
aigu,moderee,stimuli/660Hz,stimuli/moderee,bloc_9,prob20hthp_12trials.xlsx,3,36,80,20,0,,,,,0,8,8,8,2,2,26,8,,,,,,,,3.1,1778.1181959000096,1781.2241692000098,1781.2238600800106,0.30511760000081267,1781.6724590000085,1781.6724590000085,,,n,1783.1026058999996,1783.1026058999996,19,0.837,0.5295267999899806,,,sub-051,45,80,700,bloc_loop.csv,2023-09-20_16h28.56.961,PainUncertainty,2022.2.5,144.2901501860692,
aigu,moderee,stimuli/660Hz,stimuli/moderee,bloc_9,prob20hthp_12trials.xlsx,3,36,80,20,0,,,,,0,8,8,8,2,3,27,9,,,,,,,,5,1783.1026058999996,1788.106803600007,1788.10686038,0.3046343000023626,1788.5511152000108,1788.5511152000108,,,n,1792.40350890001,1792.40350890001,11,3.35,0.445907499990426,,,sub-051,45,80,700,bloc_loop.csv,2023-09-20_16h28.56.961,PainUncertainty,2022.2.5,144.2901501860692,
aigu,moderee,stimuli/660Hz,stimuli/moderee,bloc_9,prob20hthp_12trials.xlsx,3,36,80,20,0,,,,,0,8,8,8,2,4,28,7,,,,,,,,3,1792.40350890001,1795.406456800003,1795.4058135800065,0.30076490000647027,1795.8499169999996,1795.8499169999996,,,n,1798.3464168000064,1798.3464168000064,8,1.976,0.4658158999955049,,,sub-051,45,80,700,bloc_loop.csv,2023-09-20_16h28.56.961,PainUncertainty,2022.2.5,144.2901501860692,
aigu,moderee,stimuli/660Hz,stimuli/moderee,bloc_9,prob20hthp_12trials.xlsx,3,36,80,20,0,,,,,0,8,8,8,2,5,29,6,,,,,,,,4.9,1798.3464168000064,1803.246884200009,1803.246995680011,0.30472240000381134,1803.6911152000102,1803.6911152000102,,,n,1805.3772006000072,1805.3772006000072,8,1.19,0.4233978999982355,,,sub-051,45,80,700,bloc_loop.csv,2023-09-20_16h28.56.961,PainUncertainty,2022.2.5,144.2901501860692,
grave,forte,stimuli/330Hz,stimuli/forte,bloc_9,prob20hthp_12trials.xlsx,3,36,80,20,0,,,,,0,8,8,8,2,6,30,2,,,,,,,,3.3,1805.3772006000072,1808.6781319000002,1808.6779757800018,0.3056912000029115,1809.1229047000088,1809.1229047000088,,,m,1810.8429009000101,1810.8429009000101,64,1.177,0.48774340000818484,,,sub-051,45,80,700,bloc_loop.csv,2023-09-20_16h28.56.961,PainUncertainty,2022.2.5,144.2901501860692,
grave,forte,stimuli/330Hz,stimuli/forte,bloc_9,prob20hthp_12trials.xlsx,3,36,80,20,0,,,,,0,8,8,8,2,7,31,4,,,,,,,,3.1,1810.8429009000101,1813.9424911000096,1813.9425455799997,0.30513219999556895,1814.3867204000126,1814.3867204000126,,,m,1815.827925400008,1815.827925400008,64,0.949,0.44319560000440106,,,sub-051,45,80,700,bloc_loop.csv,2023-09-20_16h28.56.961,PainUncertainty,2022.2.5,144.2901501860692,
grave,forte,stimuli/330Hz,stimuli/forte,bloc_9,prob20hthp_12trials.xlsx,3,36,80,20,0,,,,,0,8,8,8,2,8,32,3,,,,,,,,3.5,1815.827925400008,1819.3324036000122,1819.332404080013,0.30587320000631735,1819.7795323000028,1819.7795323000028,,,m,1823.5627003000118,1823.5627003000118,68,2.053,1.677510399997118,,,sub-051,45,80,700,bloc_loop.csv,2023-09-20_16h28.56.961,PainUncertainty,2022.2.5,144.2901501860692,
grave,forte,stimuli/330Hz,stimuli/forte,bloc_9,prob20hthp_12trials.xlsx,3,36,80,20,0,,,,,0,8,8,8,2,9,33,0,,,,,,,,3.5,1823.5627003000118,1827.062424600008,1827.062732280005,0.30466039999737404,1827.506678900012,1827.506678900012,,,m,1828.8370339000103,1828.8370339000103,67,0.766,0.5050517999916337,,,sub-051,45,80,700,bloc_loop.csv,2023-09-20_16h28.56.961,PainUncertainty,2022.2.5,144.2901501860692,
grave,forte,stimuli/330Hz,stimuli/forte,bloc_9,prob20hthp_12trials.xlsx,3,36,80,20,0,,,,,0,8,8,8,2,10,34,1,,,,,,,,4.4,1828.8370339000103,1833.236729000011,1833.2367701800017,0.30527660000370815,1833.6845389000082,1833.6845389000082,,,m,1835.708857000005,1835.708857000005,70,1.369,0.5701938999991398,,,sub-051,45,80,700,bloc_loop.csv,2023-09-20_16h28.56.961,PainUncertainty,2022.2.5,144.2901501860692,
aigu,moderee,stimuli/660Hz,stimuli/moderee,bloc_9,prob20hthp_12trials.xlsx,3,36,80,20,0,,,,,0,8,8,8,2,11,35,10,,,,,,,,4.3,1835.708857000005,1840.0081060000084,1840.0080611800136,0.3050751999981003,1840.4522742000117,1840.4522742000117,,,n,1842.0829871000024,1842.0829871000024,16,1.136,0.4697876999998698,,,sub-051,45,80,700,bloc_loop.csv,2023-09-20_16h28.56.961,PainUncertainty,2022.2.5,144.2901501860692,
