cue_,stimulus_,cue_fichier,stimulus_fichier,block_name,block_trials_file,block_n_reps,block_ntrials,block_prob_highP_highT,block_prob_highP_lowT,block_pause_after,Bloc_essai.thisRepN,Bloc_essai.thisTrialN,Bloc_essai.thisN,Bloc_essai.thisIndex,blocks.thisRepN,blocks.thisTrialN,blocks.thisN,blocks.thisIndex,trials.thisRepN,trials.thisTrialN,trials.thisN,trials.thisIndex,pause_loop.thisRepN,pause_loop.thisTrialN,pause_loop.thisN,pause_loop.thisIndex,key_resp_5.started,start_calib.started,key_resp_2.started,ISI_duration,pause.started,pause.stopped,cue.started,ISI.started,choice_pain.started,Choice.started,choice_pain.keys,choice_pain.rt,main_text.started,confirm_text.started,ratingScale.response,ratingScale.rt,key_resp_3.started,key_resp_6.started,participant,low_ma,high_ma,failsafe_ma,block_file,date,expName,psychopyVersion,frameRate,
aigu,moderee,stimuli/660Hz,stimuli/moderee,,,,,,,,0,0,0,2,,,,,,,,,,,,,29.12636290000046,188.50988150000012,197.233143200001,3.2,198.50006170000051,201.71160939999936,201.7128946600002,0.3038488000001962,202.15057809999962,202.15057809999962,m,1.5691201000008732,209.02776760000052,209.02776760000052,31,5.23,,,sub-015,60,115,700,bloc_loop.csv,2023-06-05_17h02.44.436,PainUncertainty,2022.2.5,142.7394847376046,
aigu,forte,stimuli/660Hz,stimuli/forte,,,,,,,,0,1,1,3,,,,,,,,,,,,,,,,4,209.02776760000052,213.02723400000104,213.0273302800004,0.3051993000008224,213.4752681000009,213.4752681000009,m,1.1605884000000515,218.3138665000006,218.3138665000006,51,3.601,,,sub-015,60,115,700,bloc_loop.csv,2023-06-05_17h02.44.436,PainUncertainty,2022.2.5,142.7394847376046,
grave,moderee,stimuli/330Hz,stimuli/moderee,,,,,,,,0,2,2,0,,,,,,,,,,,,,,,,3.4,218.3138665000006,221.71771070000068,221.72223846000054,0.3041263000013714,222.1598783999998,222.1598783999998,n,0.5878763999990042,226.51365869999972,226.51365869999972,25,3.691,,,sub-015,60,115,700,bloc_loop.csv,2023-06-05_17h02.44.436,PainUncertainty,2022.2.5,142.7394847376046,
grave,forte,stimuli/330Hz,stimuli/forte,,,,,,,,0,3,3,1,,,,,,,,,,,,,,,,3.6,226.51365869999972,230.1192207999993,230.11921268000043,0.2998336000000563,230.56412939999973,230.56412939999973,m,0.8248246000002837,233.44318139999996,233.44318139999996,79,2.027,,,sub-015,60,115,700,bloc_loop.csv,2023-06-05_17h02.44.436,PainUncertainty,2022.2.5,142.7394847376046,
grave,forte,stimuli/330Hz,stimuli/forte,bloc_1,prob20hthp_12trials.xlsx,4,48,20,80,0,,,,,0,0,0,0,0,0,0,3,,,,,,,,4.9,262.25606510000034,267.15881210000043,267.1587283800007,0.3049190000001545,267.60263080000004,267.60263080000004,m,0.791165099999489,269.336685100001,269.336685100001,70,0.874,,,sub-015,60,115,700,bloc_loop.csv,2023-06-05_17h02.44.436,PainUncertainty,2022.2.5,142.7394847376046,
grave,moderee,stimuli/330Hz,stimuli/moderee,bloc_1,prob20hthp_12trials.xlsx,4,48,20,80,0,,,,,0,0,0,0,0,1,1,5,,,,,,,,3.6,269.336685100001,272.936886200001,272.93690088000113,0.305136399998446,273.38125349999973,273.38125349999973,n,0.8095079999984591,276.0679175000005,276.0679175000005,21,1.803,,,sub-015,60,115,700,bloc_loop.csv,2023-06-05_17h02.44.436,PainUncertainty,2022.2.5,142.7394847376046,
grave,forte,stimuli/330Hz,stimuli/forte,bloc_1,prob20hthp_12trials.xlsx,4,48,20,80,0,,,,,0,0,0,0,0,2,2,2,,,,,,,,3,276.0679175000005,279.0700152999998,279.06995058000103,0.30546529999992345,279.5163200999996,279.5163200999996,m,0.8735292000001209,282.63686229999985,282.63686229999985,78,2.164,,,sub-015,60,115,700,bloc_loop.csv,2023-06-05_17h02.44.436,PainUncertainty,2022.2.5,142.7394847376046,
aigu,moderee,stimuli/660Hz,stimuli/moderee,bloc_1,prob20hthp_12trials.xlsx,4,48,20,80,0,,,,,0,0,0,0,0,3,3,9,,,,,,,,4.7,282.63686229999985,287.34166430000005,287.34168308000045,0.3052095000002737,287.78562389999934,287.78562389999934,n,0.7513742999999522,291.7460811000001,291.7460811000001,10,3.142,,,sub-015,60,115,700,bloc_loop.csv,2023-06-05_17h02.44.436,PainUncertainty,2022.2.5,142.7394847376046,
aigu,moderee,stimuli/660Hz,stimuli/moderee,bloc_1,prob20hthp_12trials.xlsx,4,48,20,80,0,,,,,0,0,0,0,0,4,4,6,,,,,,,,4.5,291.7460811000001,296.2460355000003,296.24582317999995,0.2995958999999857,296.68968719999975,296.68968719999975,n,0.6781544000004942,298.8598383000008,298.8598383000008,19,1.42,,,sub-015,60,115,700,bloc_loop.csv,2023-06-05_17h02.44.436,PainUncertainty,2022.2.5,142.7394847376046,
aigu,forte,stimuli/660Hz,stimuli/forte,bloc_1,prob20hthp_12trials.xlsx,4,48,20,80,0,,,,,0,0,0,0,0,5,5,11,,,,,,,,3.2,298.8598383000008,302.06545410000035,302.06557398000115,0.3050117999991926,302.50963989999946,302.50963989999946,m,0.6909620000005816,305.4290636000005,305.4290636000005,80,2.157,,,sub-015,60,115,700,bloc_loop.csv,2023-06-05_17h02.44.436,PainUncertainty,2022.2.5,142.7394847376046,
aigu,moderee,stimuli/660Hz,stimuli/moderee,bloc_1,prob20hthp_12trials.xlsx,4,48,20,80,0,,,,,0,0,0,0,0,6,6,7,,,,,,,,3.2,305.4290636000005,308.62870190000103,308.6287781800009,0.3050017999994452,309.0731135999995,309.0731135999995,n,0.4864049999996496,311.8404690999996,311.8404690999996,14,2.21,,,sub-015,60,115,700,bloc_loop.csv,2023-06-05_17h02.44.436,PainUncertainty,2022.2.5,142.7394847376046,
grave,forte,stimuli/330Hz,stimuli/forte,bloc_1,prob20hthp_12trials.xlsx,4,48,20,80,0,,,,,0,0,0,0,0,7,7,4,,,,,,,,4.5,311.8404690999996,316.3452553999996,316.3451095799999,0.30518859999938286,316.7893906999998,316.7893906999998,m,0.5770725999991555,319.0650157,319.0650157,76,1.614,,,sub-015,60,115,700,bloc_loop.csv,2023-06-05_17h02.44.436,PainUncertainty,2022.2.5,142.7394847376046,
aigu,moderee,stimuli/660Hz,stimuli/moderee,bloc_1,prob20hthp_12trials.xlsx,4,48,20,80,0,,,,,0,0,0,0,0,8,8,10,,,,,,,,4.4,319.0650157,323.4645295999999,323.46460018,0.3001090999987355,323.90877,323.90877,n,0.5588621999995667,327.1357251999998,327.1357251999998,25,2.615,,,sub-015,60,115,700,bloc_loop.csv,2023-06-05_17h02.44.436,PainUncertainty,2022.2.5,142.7394847376046,
aigu,moderee,stimuli/660Hz,stimuli/moderee,bloc_1,prob20hthp_12trials.xlsx,4,48,20,80,0,,,,,0,0,0,0,0,9,9,8,,,,,,,,3,327.1357251999998,330.13833089999935,330.13840458000124,0.30518169999959355,330.5824637000005,330.5824637000005,n,0.6147321999997075,334.66560430000027,334.66560430000027,21,3.386,,,sub-015,60,115,700,bloc_loop.csv,2023-06-05_17h02.44.436,PainUncertainty,2022.2.5,142.7394847376046,
grave,forte,stimuli/330Hz,stimuli/forte,bloc_1,prob20hthp_12trials.xlsx,4,48,20,80,0,,,,,0,0,0,0,0,10,10,1,,,,,,,,3,334.66560430000027,337.6670787000003,337.66703837999995,0.30510809999941557,338.1111720000008,338.1111720000008,m,0.8426159999999072,342.76978770000096,342.76978770000096,78,3.761,,,sub-015,60,115,700,bloc_loop.csv,2023-06-05_17h02.44.436,PainUncertainty,2022.2.5,142.7394847376046,
grave,forte,stimuli/330Hz,stimuli/forte,bloc_1,prob20hthp_12trials.xlsx,4,48,20,80,0,,,,,0,0,0,0,0,11,11,0,,,,,,,,3.1,342.76978770000096,345.8694668999997,345.8696026799997,0.3051099999993312,346.32095760000084,346.32095760000084,m,0.5780532999997376,348.87631750000037,348.87631750000037,80,1.9,,,sub-015,60,115,700,bloc_loop.csv,2023-06-05_17h02.44.436,PainUncertainty,2022.2.5,142.7394847376046,
aigu,moderee,stimuli/660Hz,stimuli/moderee,bloc_1,prob20hthp_12trials.xlsx,4,48,20,80,0,,,,,0,0,0,0,1,0,12,8,,,,,,,,4.4,348.87631750000037,353.28041010000015,353.28045128000014,0.3051429000006465,353.72800989999996,353.72800989999996,n,0.5974002999992081,355.6705127000005,355.6705127000005,20,1.26,,,sub-015,60,115,700,bloc_loop.csv,2023-06-05_17h02.44.436,PainUncertainty,2022.2.5,142.7394847376046,
grave,forte,stimuli/330Hz,stimuli/forte,bloc_1,prob20hthp_12trials.xlsx,4,48,20,80,0,,,,,0,0,0,0,1,1,13,3,,,,,,,,3.6,355.6705127000005,359.2763709999999,359.274433880001,0.30045699999936915,359.7199521000002,359.7199521000002,m,0.7075237999997626,362.72067849999985,362.72067849999985,74,2.223,,,sub-015,60,115,700,bloc_loop.csv,2023-06-05_17h02.44.436,PainUncertainty,2022.2.5,142.7394847376046,
grave,forte,stimuli/330Hz,stimuli/forte,bloc_1,prob20hthp_12trials.xlsx,4,48,20,80,0,,,,,0,0,0,0,1,2,14,0,,,,,,,,3.2,362.72067849999985,365.92047430000093,365.9205337800002,0.30522430000019085,366.364717800001,366.364717800001,m,0.5652172999998584,369.92849600000045,369.92849600000045,80,2.921,,,sub-015,60,115,700,bloc_loop.csv,2023-06-05_17h02.44.436,PainUncertainty,2022.2.5,142.7394847376046,
aigu,moderee,stimuli/660Hz,stimuli/moderee,bloc_1,prob20hthp_12trials.xlsx,4,48,20,80,0,,,,,0,0,0,0,1,3,15,7,,,,,,,,3.4,369.92849600000045,373.3310708000008,373.33106538000067,0.30516499999976077,373.77535460000036,373.77535460000036,n,0.49635979999948177,375.52351120000094,375.52351120000094,18,1.171,,,sub-015,60,115,700,bloc_loop.csv,2023-06-05_17h02.44.436,PainUncertainty,2022.2.5,142.7394847376046,
grave,forte,stimuli/330Hz,stimuli/forte,bloc_1,prob20hthp_12trials.xlsx,4,48,20,80,0,,,,,0,0,0,0,1,4,16,2,,,,,,,,3.3,375.52351120000094,378.82502209999984,378.8248611799998,0.3051003000000492,379.26938809999956,379.26938809999956,m,0.6440536999998585,382.2694900000006,382.2694900000006,82,2.277,,,sub-015,60,115,700,bloc_loop.csv,2023-06-05_17h02.44.436,PainUncertainty,2022.2.5,142.7394847376046,
aigu,moderee,stimuli/660Hz,stimuli/moderee,bloc_1,prob20hthp_12trials.xlsx,4,48,20,80,0,,,,,0,0,0,0,1,5,17,10,,,,,,,,4.9,382.2694900000006,387.1730764999993,387.17302748000003,0.3052026000004844,387.61722250000093,387.61722250000093,n,0.46709499999997206,389.0130415000003,389.0130415000003,23,0.865,,,sub-015,60,115,700,bloc_loop.csv,2023-06-05_17h02.44.436,PainUncertainty,2022.2.5,142.7394847376046,
aigu,moderee,stimuli/660Hz,stimuli/moderee,bloc_1,prob20hthp_12trials.xlsx,4,48,20,80,0,,,,,0,0,0,0,1,6,18,6,,,,,,,,4.8,389.0130415000003,393.8126926999994,393.8128486800004,0.30521070000031614,394.2570990000004,394.2570990000004,n,0.44568450000042503,396.59026950000043,396.59026950000043,20,1.81,,,sub-015,60,115,700,bloc_loop.csv,2023-06-05_17h02.44.436,PainUncertainty,2022.2.5,142.7394847376046,
grave,forte,stimuli/330Hz,stimuli/forte,bloc_1,prob20hthp_12trials.xlsx,4,48,20,80,0,,,,,0,0,0,0,1,7,19,1,,,,,,,,3.1,396.59026950000043,399.695374500001,399.69551867999945,0.3050309999998717,400.1395513999996,400.1395513999996,m,0.7677304999997432,402.40739100000064,402.40739100000064,77,1.42,,,sub-015,60,115,700,bloc_loop.csv,2023-06-05_17h02.44.436,PainUncertainty,2022.2.5,142.7394847376046,
grave,moderee,stimuli/330Hz,stimuli/moderee,bloc_1,prob20hthp_12trials.xlsx,4,48,20,80,0,,,,,0,0,0,0,1,8,20,5,,,,,,,,4.2,402.40739100000064,406.61300049999954,406.6129899800006,0.30497060000016063,407.05734739999934,407.05734739999934,n,1.4980883000007452,412.71952389999933,412.71952389999933,16,4.087,,,sub-015,60,115,700,bloc_loop.csv,2023-06-05_17h02.44.436,PainUncertainty,2022.2.5,142.7394847376046,
grave,forte,stimuli/330Hz,stimuli/forte,bloc_1,prob20hthp_12trials.xlsx,4,48,20,80,0,,,,,0,0,0,0,1,9,21,4,,,,,,,,4.1,412.71952389999933,416.82284009999967,416.82313038000103,0.30444790000001376,417.2669227000006,417.2669227000006,m,0.6564189000000624,419.99025600000095,419.99025600000095,74,1.989,,,sub-015,60,115,700,bloc_loop.csv,2023-06-05_17h02.44.436,PainUncertainty,2022.2.5,142.7394847376046,
aigu,moderee,stimuli/660Hz,stimuli/moderee,bloc_1,prob20hthp_12trials.xlsx,4,48,20,80,0,,,,,0,0,0,0,1,10,22,9,,,,,,,,4.6,419.99025600000095,424.5948707999996,424.5947386800006,0.30002740000054473,425.03922670000065,425.03922670000065,n,0.5871326999986195,427.6803689999997,427.6803689999997,16,1.975,,,sub-015,60,115,700,bloc_loop.csv,2023-06-05_17h02.44.436,PainUncertainty,2022.2.5,142.7394847376046,
aigu,forte,stimuli/660Hz,stimuli/forte,bloc_1,prob20hthp_12trials.xlsx,4,48,20,80,0,,,,,0,0,0,0,1,11,23,11,,,,,,,,4.4,427.6803689999997,432.08158510000067,432.0818289799998,0.3053247999996529,432.52990750000026,432.52990750000026,m,0.7871830000003683,435.68685860000005,435.68685860000005,86,2.308,,,sub-015,60,115,700,bloc_loop.csv,2023-06-05_17h02.44.436,PainUncertainty,2022.2.5,142.7394847376046,
grave,forte,stimuli/330Hz,stimuli/forte,bloc_1,prob20hthp_12trials.xlsx,4,48,20,80,0,,,,,0,0,0,0,2,0,24,0,,,,,,,,3.5,435.68685860000005,439.18627990000095,439.1864109799997,0.305015199999616,439.63057389999994,439.63057389999994,m,0.7126580999993166,441.93713670000034,441.93713670000034,82,1.518,,,sub-015,60,115,700,bloc_loop.csv,2023-06-05_17h02.44.436,PainUncertainty,2022.2.5,142.7394847376046,
aigu,moderee,stimuli/660Hz,stimuli/moderee,bloc_1,prob20hthp_12trials.xlsx,4,48,20,80,0,,,,,0,0,0,0,2,1,25,8,,,,,,,,3.5,441.93713670000034,445.43712380000034,445.43731928000017,0.3048923000005743,445.8812796000002,445.8812796000002,n,0.8060208999995666,448.3473604999999,448.3473604999999,17,1.581,,,sub-015,60,115,700,bloc_loop.csv,2023-06-05_17h02.44.436,PainUncertainty,2022.2.5,142.7394847376046,
grave,forte,stimuli/330Hz,stimuli/forte,bloc_1,prob20hthp_12trials.xlsx,4,48,20,80,0,,,,,0,0,0,0,2,2,26,2,,,,,,,,3.7,448.3473604999999,452.04905619999954,452.0490118799997,0.3056209000005765,452.49709540000003,452.49709540000003,m,0.6001090999998269,455.26943589999973,455.26943589999973,74,2.095,,,sub-015,60,115,700,bloc_loop.csv,2023-06-05_17h02.44.436,PainUncertainty,2022.2.5,142.7394847376046,
aigu,moderee,stimuli/660Hz,stimuli/moderee,bloc_1,prob20hthp_12trials.xlsx,4,48,20,80,0,,,,,0,0,0,0,2,3,27,10,,,,,,,,3.4,455.26943589999973,458.6683575999996,458.66843648000105,0.3051030000005994,459.11420650000036,459.11420650000036,n,0.6801814999998896,462.49116649999996,462.49116649999996,8,2.644,,,sub-015,60,115,700,bloc_loop.csv,2023-06-05_17h02.44.436,PainUncertainty,2022.2.5,142.7394847376046,
grave,moderee,stimuli/330Hz,stimuli/moderee,bloc_1,prob20hthp_12trials.xlsx,4,48,20,80,0,,,,,0,0,0,0,2,4,28,5,,,,,,,,3.6,462.49116649999996,466.092389200001,466.0924259800002,0.29978029999983846,466.5356809999994,466.5356809999994,n,0.736391200000071,468.6131167000003,468.6131167000003,10,1.249,,,sub-015,60,115,700,bloc_loop.csv,2023-06-05_17h02.44.436,PainUncertainty,2022.2.5,142.7394847376046,
aigu,moderee,stimuli/660Hz,stimuli/moderee,bloc_1,prob20hthp_12trials.xlsx,4,48,20,80,0,,,,,0,0,0,0,2,5,29,6,,,,,,,,4,468.6131167000003,472.6141217000004,472.61414778,0.30523379999976896,473.05826089999937,473.05826089999937,n,0.734915799999726,476.1131863999999,476.1131863999999,16,2.248,,,sub-015,60,115,700,bloc_loop.csv,2023-06-05_17h02.44.436,PainUncertainty,2022.2.5,142.7394847376046,
grave,forte,stimuli/330Hz,stimuli/forte,bloc_1,prob20hthp_12trials.xlsx,4,48,20,80,0,,,,,0,0,0,0,2,6,30,1,,,,,,,,3.6,476.1131863999999,479.71219310000015,479.7122927799999,0.30488490000061574,480.1563705999997,480.1563705999997,m,0.8072280999986106,482.8099806000009,482.8099806000009,83,1.769,,,sub-015,60,115,700,bloc_loop.csv,2023-06-05_17h02.44.436,PainUncertainty,2022.2.5,142.7394847376046,
aigu,moderee,stimuli/660Hz,stimuli/moderee,bloc_1,prob20hthp_12trials.xlsx,4,48,20,80,0,,,,,0,0,0,0,2,7,31,7,,,,,,,,4.9,482.8099806000009,487.7132259000009,487.71321577999953,0.30080180000004475,488.15771010000026,488.15771010000026,n,0.6258634000005259,490.96331439999994,490.96331439999994,15,2.095,,,sub-015,60,115,700,bloc_loop.csv,2023-06-05_17h02.44.436,PainUncertainty,2022.2.5,142.7394847376046,
grave,forte,stimuli/330Hz,stimuli/forte,bloc_1,prob20hthp_12trials.xlsx,4,48,20,80,0,,,,,0,0,0,0,2,8,32,3,,,,,,,,4.6,490.96331439999994,495.5687199999993,495.56874948000115,0.30510320000030333,496.01687370000036,496.01687370000036,m,0.6675965999984328,498.0756662999993,498.0756662999993,80,1.317,,,sub-015,60,115,700,bloc_loop.csv,2023-06-05_17h02.44.436,PainUncertainty,2022.2.5,142.7394847376046,
aigu,moderee,stimuli/660Hz,stimuli/moderee,bloc_1,prob20hthp_12trials.xlsx,4,48,20,80,0,,,,,0,0,0,0,2,9,33,9,,,,,,,,4.9,498.0756662999993,502.9792823000007,502.97938488000074,0.30517970000073547,503.427106000001,503.427106000001,n,1.6108057000001281,506.51413239999965,506.51413239999965,16,1.407,,,sub-015,60,115,700,bloc_loop.csv,2023-06-05_17h02.44.436,PainUncertainty,2022.2.5,142.7394847376046,
aigu,forte,stimuli/660Hz,stimuli/forte,bloc_1,prob20hthp_12trials.xlsx,4,48,20,80,0,,,,,0,0,0,0,2,10,34,11,,,,,,,,3.2,506.51413239999965,509.71594410000034,509.715922780001,0.30507010000110313,510.1600522000008,510.1600522000008,m,0.9592009999996662,514.0101926999996,514.0101926999996,82,2.83,,,sub-015,60,115,700,bloc_loop.csv,2023-06-05_17h02.44.436,PainUncertainty,2022.2.5,142.7394847376046,
grave,forte,stimuli/330Hz,stimuli/forte,bloc_1,prob20hthp_12trials.xlsx,4,48,20,80,0,,,,,0,0,0,0,2,11,35,4,,,,,,,,4.2,514.0101926999996,518.210074300001,518.2100866799999,0.299424300001192,518.6489504000001,518.6489504000001,m,0.748394800000824,521.4433506000005,521.4433506000005,77,1.997,,,sub-015,60,115,700,bloc_loop.csv,2023-06-05_17h02.44.436,PainUncertainty,2022.2.5,142.7394847376046,
grave,forte,stimuli/330Hz,stimuli/forte,bloc_1,prob20hthp_12trials.xlsx,4,48,20,80,0,,,,,0,0,0,0,3,0,36,2,,,,,,,,3.9,521.4433506000005,525.3430657999997,525.3429393800004,0.30044900000029884,525.7876876000009,525.7876876000009,m,0.5904549999995652,528.2848336999996,528.2848336999996,80,1.83,,,sub-015,60,115,700,bloc_loop.csv,2023-06-05_17h02.44.436,PainUncertainty,2022.2.5,142.7394847376046,
aigu,moderee,stimuli/660Hz,stimuli/moderee,bloc_1,prob20hthp_12trials.xlsx,4,48,20,80,0,,,,,0,0,0,0,3,1,37,6,,,,,,,,4,528.2848336999996,532.2880894000009,532.2882599800002,0.30540900000050897,532.7366973000007,532.7366973000007,n,1.1639071999998123,535.3995188000008,535.3995188000008,18,1.44,,,sub-015,60,115,700,bloc_loop.csv,2023-06-05_17h02.44.436,PainUncertainty,2022.2.5,142.7394847376046,
aigu,moderee,stimuli/660Hz,stimuli/moderee,bloc_1,prob20hthp_12trials.xlsx,4,48,20,80,0,,,,,0,0,0,0,3,2,38,7,,,,,,,,3.3,535.3995188000008,538.6994018000005,538.6993691800005,0.30516549999993003,539.1478705000009,539.1478705000009,n,0.5610071999999491,540.9128966999997,540.9128966999997,14,1.122,,,sub-015,60,115,700,bloc_loop.csv,2023-06-05_17h02.44.436,PainUncertainty,2022.2.5,142.7394847376046,
grave,forte,stimuli/330Hz,stimuli/forte,bloc_1,prob20hthp_12trials.xlsx,4,48,20,80,0,,,,,0,0,0,0,3,3,39,0,,,,,,,,4.1,540.9128966999997,545.0119114999998,545.0120999800008,0.3048689999995986,545.4584335,545.4584335,m,0.7434158999985812,547.2259637000006,547.2259637000006,82,0.963,,,sub-015,60,115,700,bloc_loop.csv,2023-06-05_17h02.44.436,PainUncertainty,2022.2.5,142.7394847376046,
grave,forte,stimuli/330Hz,stimuli/forte,bloc_1,prob20hthp_12trials.xlsx,4,48,20,80,0,,,,,0,0,0,0,3,4,40,4,,,,,,,,5,547.2259637000006,552.2285066999993,552.2284863800003,0.30482089999895834,552.6729384999999,552.6729384999999,m,0.47932030000083614,557.151483900001,557.151483900001,85,3.948,,,sub-015,60,115,700,bloc_loop.csv,2023-06-05_17h02.44.436,PainUncertainty,2022.2.5,142.7394847376046,
grave,forte,stimuli/330Hz,stimuli/forte,bloc_1,prob20hthp_12trials.xlsx,4,48,20,80,0,,,,,0,0,0,0,3,5,41,1,,,,,,,,4.6,557.151483900001,561.7572526999993,561.7573010799995,0.3052585999994335,562.2041229000006,562.2041229000006,m,0.45310849999987113,564.1850990000003,564.1850990000003,78,1.476,,,sub-015,60,115,700,bloc_loop.csv,2023-06-05_17h02.44.436,PainUncertainty,2022.2.5,142.7394847376046,
aigu,forte,stimuli/660Hz,stimuli/forte,bloc_1,prob20hthp_12trials.xlsx,4,48,20,80,0,,,,,0,0,0,0,3,6,42,11,,,,,,,,3.9,564.1850990000003,568.0841285999995,568.0842242799997,0.3051199000001361,568.5283648999994,568.5283648999994,m,1.2615046999981132,571.8758264999997,571.8758264999997,79,2.018,,,sub-015,60,115,700,bloc_loop.csv,2023-06-05_17h02.44.436,PainUncertainty,2022.2.5,142.7394847376046,
aigu,moderee,stimuli/660Hz,stimuli/moderee,bloc_1,prob20hthp_12trials.xlsx,4,48,20,80,0,,,,,0,0,0,0,3,7,43,9,,,,,,,,4.2,571.8758264999997,576.0785990000004,576.0785594800006,0.30504950000067765,576.5229445000004,576.5229445000004,n,0.6256540999984281,578.9388966000006,578.9388966000006,19,1.733,,,sub-015,60,115,700,bloc_loop.csv,2023-06-05_17h02.44.436,PainUncertainty,2022.2.5,142.7394847376046,
aigu,moderee,stimuli/660Hz,stimuli/moderee,bloc_1,prob20hthp_12trials.xlsx,4,48,20,80,0,,,,,0,0,0,0,3,8,44,10,,,,,,,,4.1,578.9388966000006,583.0443130000003,583.0443847800004,0.3066455999996833,583.4944059999998,583.4944059999998,n,0.5646538000000874,585.0145291999997,585.0145291999997,20,0.88,,,sub-015,60,115,700,bloc_loop.csv,2023-06-05_17h02.44.436,PainUncertainty,2022.2.5,142.7394847376046,
grave,forte,stimuli/330Hz,stimuli/forte,bloc_1,prob20hthp_12trials.xlsx,4,48,20,80,0,,,,,0,0,0,0,3,9,45,3,,,,,,,,3.1,585.0145291999997,588.1143964000003,588.1144007800001,0.30516420000094513,588.5585843999997,588.5585843999997,m,0.5138441999988572,589.858892100001,589.858892100001,80,0.719,,,sub-015,60,115,700,bloc_loop.csv,2023-06-05_17h02.44.436,PainUncertainty,2022.2.5,142.7394847376046,
aigu,moderee,stimuli/660Hz,stimuli/moderee,bloc_1,prob20hthp_12trials.xlsx,4,48,20,80,0,,,,,0,0,0,0,3,10,46,8,,,,,,,,4,589.858892100001,593.8585980999997,593.8586341800008,0.30508499999996275,594.3060848999994,594.3060848999994,n,0.5975732999995671,596.0433364,596.0433364,20,1.079,,,sub-015,60,115,700,bloc_loop.csv,2023-06-05_17h02.44.436,PainUncertainty,2022.2.5,142.7394847376046,
grave,moderee,stimuli/330Hz,stimuli/moderee,bloc_1,prob20hthp_12trials.xlsx,4,48,20,80,0,,,,,0,0,0,0,3,11,47,5,,,,,,,,4.9,596.0433364,600.9427661999998,600.9444754799995,0.2995809999993071,601.3873542000001,601.3873542000001,n,0.6719692999995459,603.876798700001,603.876798700001,17,1.756,,,sub-015,60,115,700,bloc_loop.csv,2023-06-05_17h02.44.436,PainUncertainty,2022.2.5,142.7394847376046,
aigu,moderee,stimuli/660Hz,stimuli/moderee,bloc_2,prob50_50_4trials.xlsx,2,8,50,50,1,,,,,0,1,1,1,0,0,0,2,,,,,,,,5,603.876798700001,608.8811532,608.8811871799996,0.30493679999926826,609.3251818999997,609.3251818999997,n,1.0214390999990428,612.9382716,612.9382716,12,2.525,,,sub-015,60,115,700,bloc_loop.csv,2023-06-05_17h02.44.436,PainUncertainty,2022.2.5,142.7394847376046,
grave,moderee,stimuli/330Hz,stimuli/moderee,bloc_2,prob50_50_4trials.xlsx,2,8,50,50,1,,,,,0,1,1,1,0,1,1,0,,,,,,,,3.9,612.9382716,616.8401548000002,616.8401685800006,0.3049941999997827,617.2843331000004,617.2843331000004,n,0.7486535999996704,620.5485649000002,620.5485649000002,13,2.435,,,sub-015,60,115,700,bloc_loop.csv,2023-06-05_17h02.44.436,PainUncertainty,2022.2.5,142.7394847376046,
grave,forte,stimuli/330Hz,stimuli/forte,bloc_2,prob50_50_4trials.xlsx,2,8,50,50,1,,,,,0,1,1,1,0,2,2,1,,,,,,,,4.7,620.5485649000002,625.2509262000003,625.2509612800011,0.3049442999999883,625.6950696000004,625.6950696000004,m,0.7351392000000487,628.1891496999997,628.1891496999997,86,1.698,,,sub-015,60,115,700,bloc_loop.csv,2023-06-05_17h02.44.436,PainUncertainty,2022.2.5,142.7394847376046,
aigu,forte,stimuli/660Hz,stimuli/forte,bloc_2,prob50_50_4trials.xlsx,2,8,50,50,1,,,,,0,1,1,1,0,3,3,3,,,,,,,,4.3,628.1891496999997,632.4949340000003,632.4948785799995,0.30505599999924016,632.9392085,632.9392085,m,0.9811989999998332,635.0146124000003,635.0146124000003,90,1.012,,,sub-015,60,115,700,bloc_loop.csv,2023-06-05_17h02.44.436,PainUncertainty,2022.2.5,142.7394847376046,
aigu,moderee,stimuli/660Hz,stimuli/moderee,bloc_2,prob50_50_4trials.xlsx,2,8,50,50,1,,,,,0,1,1,1,1,0,4,2,,,,,,,,4.4,635.0146124000003,639.4192875000008,639.4192612800005,0.3052993000001152,639.8634686999994,639.8634686999994,n,0.7191103999994084,643.4069486000008,643.4069486000008,11,2.747,,,sub-015,60,115,700,bloc_loop.csv,2023-06-05_17h02.44.436,PainUncertainty,2022.2.5,142.7394847376046,
grave,forte,stimuli/330Hz,stimuli/forte,bloc_2,prob50_50_4trials.xlsx,2,8,50,50,1,,,,,0,1,1,1,1,1,5,1,,,,,,,,4.8,643.4069486000008,648.2123355000003,648.2124362800012,0.30548019999878306,648.6566719000002,648.6566719000002,m,0.7842909999999392,650.7764723,650.7764723,85,1.259,,,sub-015,60,115,700,bloc_loop.csv,2023-06-05_17h02.44.436,PainUncertainty,2022.2.5,142.7394847376046,
grave,moderee,stimuli/330Hz,stimuli/moderee,bloc_2,prob50_50_4trials.xlsx,2,8,50,50,1,,,,,0,1,1,1,1,2,6,0,,,,,,,,5,650.7764723,655.7755928999995,655.7757013800008,0.3048415000012028,656.2198088999994,656.2198088999994,n,0.721702799999548,658.287017300001,658.287017300001,11,1.275,,,sub-015,60,115,700,bloc_loop.csv,2023-06-05_17h02.44.436,PainUncertainty,2022.2.5,142.7394847376046,
aigu,forte,stimuli/660Hz,stimuli/forte,bloc_2,prob50_50_4trials.xlsx,2,8,50,50,1,,,,,0,1,1,1,1,3,7,3,,,,,,,,5,658.287017300001,663.2909872,663.291061480001,0.30455090000032214,663.7348029999994,663.7348029999994,m,0.6295281000002433,667.7587318000005,667.7587318000005,82,1.366,,,sub-015,60,115,700,bloc_loop.csv,2023-06-05_17h02.44.436,PainUncertainty,2022.2.5,142.7394847376046,
,,,,bloc_2,prob50_50_4trials.xlsx,2,8,50,50,1,,,,,0,1,1,1,,,,,0,0,0,0,,,,,,,,,,,,,,,,,667.7587318000005,729.1595770000004,sub-015,60,115,700,bloc_loop.csv,2023-06-05_17h02.44.436,PainUncertainty,2022.2.5,142.7394847376046,
aigu,forte,stimuli/660Hz,stimuli/forte,bloc_3,prob80hthp_12trials.xlsx,2,24,80,20,0,,,,,0,2,2,2,0,0,0,8,,,,,,,,3.8,731.3371057999993,735.1398762000008,735.1401445800009,0.30453639999905135,735.5836132000004,735.5836132000004,m,1.2552768000005017,737.8248660000008,737.8248660000008,80,0.926,,,sub-015,60,115,700,bloc_loop.csv,2023-06-05_17h02.44.436,PainUncertainty,2022.2.5,142.7394847376046,
aigu,forte,stimuli/660Hz,stimuli/forte,bloc_3,prob80hthp_12trials.xlsx,2,24,80,20,0,,,,,0,2,2,2,0,1,1,9,,,,,,,,4,737.8248660000008,741.8281982999997,741.8281939800006,0.30499309999868274,742.2755813000003,742.2755813000003,m,0.8430692999991152,744.524118700001,744.524118700001,76,1.344,,,sub-015,60,115,700,bloc_loop.csv,2023-06-05_17h02.44.436,PainUncertainty,2022.2.5,142.7394847376046,
aigu,forte,stimuli/660Hz,stimuli/forte,bloc_3,prob80hthp_12trials.xlsx,2,24,80,20,0,,,,,0,2,2,2,0,2,2,6,,,,,,,,4,744.524118700001,748.5300578999995,748.5301222799997,0.30515139999988605,748.9745978999999,748.9745978999999,m,0.6971594999995432,751.2532492999999,751.2532492999999,78,1.492,,,sub-015,60,115,700,bloc_loop.csv,2023-06-05_17h02.44.436,PainUncertainty,2022.2.5,142.7394847376046,
grave,moderee,stimuli/330Hz,stimuli/moderee,bloc_3,prob80hthp_12trials.xlsx,2,24,80,20,0,,,,,0,2,2,2,0,3,3,0,,,,,,,,4.1,751.2532492999999,755.357664000001,755.3576845800005,0.3052107999992586,755.8061089000003,755.8061089000003,n,0.791014800000994,758.2719438000004,758.2719438000004,12,1.607,,,sub-015,60,115,700,bloc_loop.csv,2023-06-05_17h02.44.436,PainUncertainty,2022.2.5,142.7394847376046,
grave,moderee,stimuli/330Hz,stimuli/moderee,bloc_3,prob80hthp_12trials.xlsx,2,24,80,20,0,,,,,0,2,2,2,0,4,4,2,,,,,,,,3.2,758.2719438000004,761.4766098,761.4765309800011,0.30480100000022503,761.9203684000004,761.9203684000004,n,0.7047305999985838,764.2643394999996,764.2643394999996,12,1.559,,,sub-015,60,115,700,bloc_loop.csv,2023-06-05_17h02.44.436,PainUncertainty,2022.2.5,142.7394847376046,
aigu,forte,stimuli/660Hz,stimuli/forte,bloc_3,prob80hthp_12trials.xlsx,2,24,80,20,0,,,,,0,2,2,2,0,5,5,7,,,,,,,,4.9,764.2643394999996,769.1651770000008,769.1651927800001,0.2999296999987564,769.6094171000004,769.6094171000004,m,0.7112411999987671,771.6013901999995,771.6013901999995,80,1.197,,,sub-015,60,115,700,bloc_loop.csv,2023-06-05_17h02.44.436,PainUncertainty,2022.2.5,142.7394847376046,
grave,moderee,stimuli/330Hz,stimuli/moderee,bloc_3,prob80hthp_12trials.xlsx,2,24,80,20,0,,,,,0,2,2,2,0,6,6,3,,,,,,,,3.6,771.6013901999995,775.2068921999999,775.2069550799995,0.30487259999972594,775.6511544999994,775.6511544999994,n,0.6300090000004275,778.0410535999999,778.0410535999999,20,1.706,,,sub-015,60,115,700,bloc_loop.csv,2023-06-05_17h02.44.436,PainUncertainty,2022.2.5,142.7394847376046,
aigu,moderee,stimuli/660Hz,stimuli/moderee,bloc_3,prob80hthp_12trials.xlsx,2,24,80,20,0,,,,,0,2,2,2,0,7,7,11,,,,,,,,4.7,778.0410535999999,782.7425056000011,782.7427212800001,0.30480270000043674,783.1891701999994,783.1891701999994,n,0.6423098999985086,784.8827643000004,784.8827643000004,20,0.998,,,sub-015,60,115,700,bloc_loop.csv,2023-06-05_17h02.44.436,PainUncertainty,2022.2.5,142.7394847376046,
grave,moderee,stimuli/330Hz,stimuli/moderee,bloc_3,prob80hthp_12trials.xlsx,2,24,80,20,0,,,,,0,2,2,2,0,8,8,4,,,,,,,,4.6,784.8827643000004,789.4871414000008,789.4872190800004,0.30477940000128,789.9347988000009,789.9347988000009,n,0.6423300000005838,791.4700745000009,791.4700745000009,13,0.816,,,sub-015,60,115,700,bloc_loop.csv,2023-06-05_17h02.44.436,PainUncertainty,2022.2.5,142.7394847376046,
grave,forte,stimuli/330Hz,stimuli/forte,bloc_3,prob80hthp_12trials.xlsx,2,24,80,20,0,,,,,0,2,2,2,0,9,9,5,,,,,,,,3.7,791.4700745000009,795.1746626999993,795.1748050800004,0.30488119999972696,795.6187639,795.6187639,m,0.7512571999995998,797.6725738999994,797.6725738999994,81,1.218,,,sub-015,60,115,700,bloc_loop.csv,2023-06-05_17h02.44.436,PainUncertainty,2022.2.5,142.7394847376046,
grave,moderee,stimuli/330Hz,stimuli/moderee,bloc_3,prob80hthp_12trials.xlsx,2,24,80,20,0,,,,,0,2,2,2,0,10,10,1,,,,,,,,3.6,797.6725738999994,801.2726318999994,801.2727562799998,0.299357300000338,801.7112096000001,801.7112096000001,n,0.9355884999986301,803.537083700001,803.537083700001,11,0.824,,,sub-015,60,115,700,bloc_loop.csv,2023-06-05_17h02.44.436,PainUncertainty,2022.2.5,142.7394847376046,
aigu,forte,stimuli/660Hz,stimuli/forte,bloc_3,prob80hthp_12trials.xlsx,2,24,80,20,0,,,,,0,2,2,2,0,11,11,10,,,,,,,,3.7,803.537083700001,807.2388859000002,807.2389504800001,0.304931900000156,807.682784300001,807.682784300001,m,0.7282512000001589,809.6101782999995,809.6101782999995,84,1.151,,,sub-015,60,115,700,bloc_loop.csv,2023-06-05_17h02.44.436,PainUncertainty,2022.2.5,142.7394847376046,
aigu,forte,stimuli/660Hz,stimuli/forte,bloc_3,prob80hthp_12trials.xlsx,2,24,80,20,0,,,,,0,2,2,2,1,0,12,9,,,,,,,,4.6,809.6101782999995,814.2121365000003,814.2119500800006,0.3049694000001182,814.6559417999997,814.6559417999997,m,0.8581338999993022,817.1386702,817.1386702,78,1.573,,,sub-015,60,115,700,bloc_loop.csv,2023-06-05_17h02.44.436,PainUncertainty,2022.2.5,142.7394847376046,
aigu,forte,stimuli/660Hz,stimuli/forte,bloc_3,prob80hthp_12trials.xlsx,2,24,80,20,0,,,,,0,2,2,2,1,1,13,7,,,,,,,,3.7,817.1386702,820.8444770000006,820.844421980001,0.3051403000008577,821.288826,821.288826,m,0.667582099998981,823.0553378000004,823.0553378000004,86,1.023,,,sub-015,60,115,700,bloc_loop.csv,2023-06-05_17h02.44.436,PainUncertainty,2022.2.5,142.7394847376046,
grave,moderee,stimuli/330Hz,stimuli/moderee,bloc_3,prob80hthp_12trials.xlsx,2,24,80,20,0,,,,,0,2,2,2,1,2,14,3,,,,,,,,4.2,823.0553378000004,827.2548786000007,827.2549177799999,0.30505799999991723,827.7037117,827.7037117,n,1.352809399999387,830.6301980000007,830.6301980000007,18,1.516,,,sub-015,60,115,700,bloc_loop.csv,2023-06-05_17h02.44.436,PainUncertainty,2022.2.5,142.7394847376046,
aigu,moderee,stimuli/660Hz,stimuli/moderee,bloc_3,prob80hthp_12trials.xlsx,2,24,80,20,0,,,,,0,2,2,2,1,3,15,11,,,,,,,,4.5,830.6301980000007,835.1308583000009,835.1310241800008,0.304913599999054,835.5752623999997,835.5752623999997,n,0.9579923999990569,837.6179725000002,837.6179725000002,18,1.003,,,sub-015,60,115,700,bloc_loop.csv,2023-06-05_17h02.44.436,PainUncertainty,2022.2.5,142.7394847376046,
grave,forte,stimuli/330Hz,stimuli/forte,bloc_3,prob80hthp_12trials.xlsx,2,24,80,20,0,,,,,0,2,2,2,1,4,16,5,,,,,,,,4,837.6179725000002,841.6177379000001,841.617859480001,0.305397099999027,842.0668631999997,842.0668631999997,m,1.0417398999998113,845.3705506000006,845.3705506000006,85,2.188,,,sub-015,60,115,700,bloc_loop.csv,2023-06-05_17h02.44.436,PainUncertainty,2022.2.5,142.7394847376046,
grave,moderee,stimuli/330Hz,stimuli/moderee,bloc_3,prob80hthp_12trials.xlsx,2,24,80,20,0,,,,,0,2,2,2,1,5,17,0,,,,,,,,3.9,845.3705506000006,849.271477100001,849.2714759800008,0.305102899999838,849.7161142999994,849.7161142999994,n,0.7248178999980155,852.3688720000009,852.3688720000009,17,1.871,,,sub-015,60,115,700,bloc_loop.csv,2023-06-05_17h02.44.436,PainUncertainty,2022.2.5,142.7394847376046,
grave,moderee,stimuli/330Hz,stimuli/moderee,bloc_3,prob80hthp_12trials.xlsx,2,24,80,20,0,,,,,0,2,2,2,1,6,18,2,,,,,,,,4.8,852.3688720000009,857.1682567000007,857.1682948799996,0.3049674999983836,857.6124149000007,857.6124149000007,n,0.7061998999997741,859.4206955000009,859.4206955000009,12,1.032,,,sub-015,60,115,700,bloc_loop.csv,2023-06-05_17h02.44.436,PainUncertainty,2022.2.5,142.7394847376046,
aigu,forte,stimuli/660Hz,stimuli/forte,bloc_3,prob80hthp_12trials.xlsx,2,24,80,20,0,,,,,0,2,2,2,1,7,19,10,,,,,,,,3.7,859.4206955000009,863.1206872000002,863.1207058799998,0.3051163000000088,863.5649909000003,863.5649909000003,m,1.3205732999995234,866.1790223000007,866.1790223000007,81,1.24,,,sub-015,60,115,700,bloc_loop.csv,2023-06-05_17h02.44.436,PainUncertainty,2022.2.5,142.7394847376046,
aigu,forte,stimuli/660Hz,stimuli/forte,bloc_3,prob80hthp_12trials.xlsx,2,24,80,20,0,,,,,0,2,2,2,1,8,20,8,,,,,,,,5,866.1790223000007,871.1838169000002,871.1840461800009,0.3050533000005089,871.6280487999993,871.6280487999993,m,0.8080837999987125,873.7742218000003,873.7742218000003,79,1.267,,,sub-015,60,115,700,bloc_loop.csv,2023-06-05_17h02.44.436,PainUncertainty,2022.2.5,142.7394847376046,
grave,moderee,stimuli/330Hz,stimuli/moderee,bloc_3,prob80hthp_12trials.xlsx,2,24,80,20,0,,,,,0,2,2,2,1,9,21,1,,,,,,,,3.2,873.7742218000003,876.9762021999995,876.9763772800004,0.30512719999933324,877.4205762000001,877.4205762000001,n,0.5211390999993455,880.0891873,880.0891873,11,2.067,,,sub-015,60,115,700,bloc_loop.csv,2023-06-05_17h02.44.436,PainUncertainty,2022.2.5,142.7394847376046,
aigu,forte,stimuli/660Hz,stimuli/forte,bloc_3,prob80hthp_12trials.xlsx,2,24,80,20,0,,,,,0,2,2,2,1,10,22,6,,,,,,,,4.1,880.0891873,884.1927698,884.192698380001,0.2994358999985707,884.6354745000008,884.6354745000008,m,0.9453676999983145,887.6803822000002,887.6803822000002,79,2.031,,,sub-015,60,115,700,bloc_loop.csv,2023-06-05_17h02.44.436,PainUncertainty,2022.2.5,142.7394847376046,
grave,moderee,stimuli/330Hz,stimuli/moderee,bloc_3,prob80hthp_12trials.xlsx,2,24,80,20,0,,,,,0,2,2,2,1,11,23,4,,,,,,,,3.5,887.6803822000002,891.1863209000003,891.1863295800001,0.30515379999997094,891.6304679999994,891.6304679999994,n,1.523414799999955,895.4166710000009,895.4166710000009,18,2.185,,,sub-015,60,115,700,bloc_loop.csv,2023-06-05_17h02.44.436,PainUncertainty,2022.2.5,142.7394847376046,
aigu,forte,stimuli/660Hz,stimuli/forte,bloc_4,prob50_50_4trials.xlsx,2,8,50,50,1,,,,,0,3,3,3,0,0,0,3,,,,,,,,3.2,895.4166710000009,898.617850300001,898.6178284799996,0.3049940000000788,899.0618945000006,899.0618945000006,m,0.7515336999986175,901.6344907000002,901.6344907000002,82,1.747,,,sub-015,60,115,700,bloc_loop.csv,2023-06-05_17h02.44.436,PainUncertainty,2022.2.5,142.7394847376046,
aigu,moderee,stimuli/660Hz,stimuli/moderee,bloc_4,prob50_50_4trials.xlsx,2,8,50,50,1,,,,,0,3,3,3,0,1,1,2,,,,,,,,3.5,901.6344907000002,905.1393922000007,905.1392105800012,0.3054753000014898,905.5839704000009,905.5839704000009,n,0.6919462000005296,907.165383900001,907.165383900001,14,0.81,,,sub-015,60,115,700,bloc_loop.csv,2023-06-05_17h02.44.436,PainUncertainty,2022.2.5,142.7394847376046,
grave,forte,stimuli/330Hz,stimuli/forte,bloc_4,prob50_50_4trials.xlsx,2,8,50,50,1,,,,,0,3,3,3,0,2,2,1,,,,,,,,4.4,907.165383900001,911.56423,911.5646757800012,0.2998496999989584,912.0087616000001,912.0087616000001,m,1.1625770999999077,914.8529675999998,914.8529675999998,85,1.601,,,sub-015,60,115,700,bloc_loop.csv,2023-06-05_17h02.44.436,PainUncertainty,2022.2.5,142.7394847376046,
grave,moderee,stimuli/330Hz,stimuli/moderee,bloc_4,prob50_50_4trials.xlsx,2,8,50,50,1,,,,,0,3,3,3,0,3,3,0,,,,,,,,4.3,914.8529675999998,919.1549985000001,919.1552946800009,0.2996392000004562,919.5999542999998,919.5999542999998,n,0.6643683999991481,921.6446386999996,921.6446386999996,13,1.328,,,sub-015,60,115,700,bloc_loop.csv,2023-06-05_17h02.44.436,PainUncertainty,2022.2.5,142.7394847376046,
aigu,moderee,stimuli/660Hz,stimuli/moderee,bloc_4,prob50_50_4trials.xlsx,2,8,50,50,1,,,,,0,3,3,3,1,0,4,2,,,,,,,,4.1,921.6446386999996,925.7465241999998,925.7464785800009,0.30512909999924887,926.1940071999998,926.1940071999998,n,0.6454303999998956,928.1185769000003,928.1185769000003,9,1.198,,,sub-015,60,115,700,bloc_loop.csv,2023-06-05_17h02.44.436,PainUncertainty,2022.2.5,142.7394847376046,
grave,forte,stimuli/330Hz,stimuli/forte,bloc_4,prob50_50_4trials.xlsx,2,8,50,50,1,,,,,0,3,3,3,1,1,5,1,,,,,,,,3.8,928.1185769000003,931.9204592000006,931.9205542799998,0.3050084999995306,932.3648112999999,932.3648112999999,m,0.7418963000000076,935.4253908999999,935.4253908999999,84,2.24,,,sub-015,60,115,700,bloc_loop.csv,2023-06-05_17h02.44.436,PainUncertainty,2022.2.5,142.7394847376046,
grave,moderee,stimuli/330Hz,stimuli/moderee,bloc_4,prob50_50_4trials.xlsx,2,8,50,50,1,,,,,0,3,3,3,1,2,6,0,,,,,,,,4.8,935.4253908999999,940.2270248999994,940.2269895800007,0.30501949999961653,940.6713801000005,940.6713801000005,n,0.6027256999987003,943.145629300001,943.145629300001,16,1.803,,,sub-015,60,115,700,bloc_loop.csv,2023-06-05_17h02.44.436,PainUncertainty,2022.2.5,142.7394847376046,
aigu,forte,stimuli/660Hz,stimuli/forte,bloc_4,prob50_50_4trials.xlsx,2,8,50,50,1,,,,,0,3,3,3,1,3,7,3,,,,,,,,3.7,943.145629300001,946.8461595999997,946.8461177800007,0.3048559999988356,947.2898946000005,947.2898946000005,m,1.0330276999993657,951.7859169000003,951.7859169000003,90,1.435,,,sub-015,60,115,700,bloc_loop.csv,2023-06-05_17h02.44.436,PainUncertainty,2022.2.5,142.7394847376046,
,,,,bloc_4,prob50_50_4trials.xlsx,2,8,50,50,1,,,,,0,3,3,3,,,,,0,0,0,0,,,,,,,,,,,,,,,,,951.7859169000003,959.3403600000001,sub-015,60,115,700,bloc_loop.csv,2023-06-05_17h02.44.436,PainUncertainty,2022.2.5,142.7394847376046,
aigu,moderee,stimuli/660Hz,stimuli/moderee,bloc_5,prob20hthp_12trials.xlsx,2,24,20,80,0,,,,,0,4,4,4,0,0,0,8,,,,,,,,4,961.4646501000007,965.4660765000008,965.4661321800002,0.3050538999996206,965.9147300000004,965.9147300000004,n,0.4800286999980017,969.1519453000001,969.1519453000001,14,2.678,,,sub-015,60,115,700,bloc_loop.csv,2023-06-05_17h02.44.436,PainUncertainty,2022.2.5,142.7394847376046,
grave,forte,stimuli/330Hz,stimuli/forte,bloc_5,prob20hthp_12trials.xlsx,2,24,20,80,0,,,,,0,4,4,4,0,1,1,4,,,,,,,,3.5,969.1519453000001,972.6545380999996,972.6544756800001,0.3053292999993573,973.1030002999996,973.1030002999996,m,0.6288445999998657,977.3204989999995,977.3204989999995,81,3.504,,,sub-015,60,115,700,bloc_loop.csv,2023-06-05_17h02.44.436,PainUncertainty,2022.2.5,142.7394847376046,
aigu,moderee,stimuli/660Hz,stimuli/moderee,bloc_5,prob20hthp_12trials.xlsx,2,24,20,80,0,,,,,0,4,4,4,0,2,2,6,,,,,,,,3.2,977.3204989999995,980.5234966000007,980.5233647800003,0.30506470000000263,980.9676340000005,980.9676340000005,n,0.46770740000101796,984.1759863000007,984.1759863000007,12,2.664,,,sub-015,60,115,700,bloc_loop.csv,2023-06-05_17h02.44.436,PainUncertainty,2022.2.5,142.7394847376046,
grave,forte,stimuli/330Hz,stimuli/forte,bloc_5,prob20hthp_12trials.xlsx,2,24,20,80,0,,,,,0,4,4,4,0,3,3,3,,,,,,,,4.3,984.1759863000007,988.4762976000002,988.4775276799999,0.30406480000056035,988.9239355000009,988.9239355000009,m,0.6665263999984745,992.4729790000001,992.4729790000001,79,2.817,,,sub-015,60,115,700,bloc_loop.csv,2023-06-05_17h02.44.436,PainUncertainty,2022.2.5,142.7394847376046,
grave,forte,stimuli/330Hz,stimuli/forte,bloc_5,prob20hthp_12trials.xlsx,2,24,20,80,0,,,,,0,4,4,4,0,4,4,0,,,,,,,,4.3,992.4729790000001,996.7758114999997,996.7757576800002,0.30479399999967427,997.2204192999998,997.2204192999998,m,0.67385749999994,999.1856862000004,999.1856862000004,84,1.227,,,sub-015,60,115,700,bloc_loop.csv,2023-06-05_17h02.44.436,PainUncertainty,2022.2.5,142.7394847376046,
grave,forte,stimuli/330Hz,stimuli/forte,bloc_5,prob20hthp_12trials.xlsx,2,24,20,80,0,,,,,0,4,4,4,0,5,5,2,,,,,,,,3.1,999.1856862000004,1002.2902517000002,1002.2902901799996,0.30518839999967895,1002.7412380000005,1002.7412380000005,m,0.8412000000007538,1006.1864953999993,1006.1864953999993,85,2.532,,,sub-015,60,115,700,bloc_loop.csv,2023-06-05_17h02.44.436,PainUncertainty,2022.2.5,142.7394847376046,
aigu,moderee,stimuli/660Hz,stimuli/moderee,bloc_5,prob20hthp_12trials.xlsx,2,24,20,80,0,,,,,0,4,4,4,0,6,6,9,,,,,,,,5,1006.1864953999993,1011.1868047999997,1011.1868731800012,0.3056603000004543,1011.6352119000003,1011.6352119000003,n,0.5228834999998071,1014.1793644999998,1014.1793644999998,12,0.907,,,sub-015,60,115,700,bloc_loop.csv,2023-06-05_17h02.44.436,PainUncertainty,2022.2.5,142.7394847376046,
grave,forte,stimuli/330Hz,stimuli/forte,bloc_5,prob20hthp_12trials.xlsx,2,24,20,80,0,,,,,0,4,4,4,0,7,7,1,,,,,,,,4.3,1014.1793644999998,1018.4794320000001,1018.4794391799994,0.3051756999993813,1018.9237207000006,1018.9237207000006,m,0.5770451999997022,1020.6055539999998,1020.6055539999998,79,1.038,,,sub-015,60,115,700,bloc_loop.csv,2023-06-05_17h02.44.436,PainUncertainty,2022.2.5,142.7394847376046,
aigu,moderee,stimuli/660Hz,stimuli/moderee,bloc_5,prob20hthp_12trials.xlsx,2,24,20,80,0,,,,,0,4,4,4,0,8,8,10,,,,,,,,4.1,1020.6055539999998,1024.7094567000004,1024.7094074799995,0.3051501999998436,1025.1536907000009,1025.1536907000009,n,0.5217565000002651,1026.4892703999994,1026.4892703999994,11,0.741,,,sub-015,60,115,700,bloc_loop.csv,2023-06-05_17h02.44.436,PainUncertainty,2022.2.5,142.7394847376046,
aigu,forte,stimuli/660Hz,stimuli/forte,bloc_5,prob20hthp_12trials.xlsx,2,24,20,80,0,,,,,0,4,4,4,0,9,9,11,,,,,,,,4.9,1026.4892703999994,1031.3909764,1031.3908430800009,0.30489099999977043,1031.834877700001,1031.834877700001,m,0.48020739999992657,1033.7932357000009,1033.7932357000009,83,1.399,,,sub-015,60,115,700,bloc_loop.csv,2023-06-05_17h02.44.436,PainUncertainty,2022.2.5,142.7394847376046,
aigu,moderee,stimuli/660Hz,stimuli/moderee,bloc_5,prob20hthp_12trials.xlsx,2,24,20,80,0,,,,,0,4,4,4,0,10,10,7,,,,,,,,3.4,1033.7932357000009,1037.1970302999998,1037.1969867800005,0.3052278999984992,1037.6412208000002,1037.6412208000002,n,0.9046194999991712,1039.6275575,1039.6275575,17,1.016,,,sub-015,60,115,700,bloc_loop.csv,2023-06-05_17h02.44.436,PainUncertainty,2022.2.5,142.7394847376046,
grave,moderee,stimuli/330Hz,stimuli/moderee,bloc_5,prob20hthp_12trials.xlsx,2,24,20,80,0,,,,,0,4,4,4,0,11,11,5,,,,,,,,4.3,1039.6275575,1043.9270355999997,1043.9268988800002,0.3053576999991492,1044.371201,1044.371201,n,0.4812144999996235,1045.5744544000008,1045.5744544000008,10,0.662,,,sub-015,60,115,700,bloc_loop.csv,2023-06-05_17h02.44.436,PainUncertainty,2022.2.5,142.7394847376046,
aigu,moderee,stimuli/660Hz,stimuli/moderee,bloc_5,prob20hthp_12trials.xlsx,2,24,20,80,0,,,,,0,4,4,4,1,0,12,6,,,,,,,,4,1045.5744544000008,1049.5734814999996,1049.5735091800004,0.30150440000033996,1050.018047900001,1050.018047900001,n,0.49608449999868753,1052.3341062,1052.3341062,12,1.767,,,sub-015,60,115,700,bloc_loop.csv,2023-06-05_17h02.44.436,PainUncertainty,2022.2.5,142.7394847376046,
grave,moderee,stimuli/330Hz,stimuli/moderee,bloc_5,prob20hthp_12trials.xlsx,2,24,20,80,0,,,,,0,4,4,4,1,1,13,5,,,,,,,,3.8,1052.3341062,1056.136892800001,1056.13684618,0.3052365000003192,1056.581384000001,1056.581384000001,n,0.6299579999995331,1057.9770690999994,1057.9770690999994,10,0.705,,,sub-015,60,115,700,bloc_loop.csv,2023-06-05_17h02.44.436,PainUncertainty,2022.2.5,142.7394847376046,
aigu,moderee,stimuli/660Hz,stimuli/moderee,bloc_5,prob20hthp_12trials.xlsx,2,24,20,80,0,,,,,0,4,4,4,1,2,14,8,,,,,,,,3.8,1057.9770690999994,1061.7761996999998,1061.776303880001,0.30520090000027267,1062.2205704999997,1062.2205704999997,n,0.4963877999998658,1064.0849564,1064.0849564,14,1.286,,,sub-015,60,115,700,bloc_loop.csv,2023-06-05_17h02.44.436,PainUncertainty,2022.2.5,142.7394847376046,
grave,forte,stimuli/330Hz,stimuli/forte,bloc_5,prob20hthp_12trials.xlsx,2,24,20,80,0,,,,,0,4,4,4,1,3,15,4,,,,,,,,3.3,1064.0849564,1067.3882040000008,1067.3883368800005,0.3049888000005012,1067.8322535999996,1067.8322535999996,m,0.5216119999986404,1069.2303489999995,1069.2303489999995,80,0.816,,,sub-015,60,115,700,bloc_loop.csv,2023-06-05_17h02.44.436,PainUncertainty,2022.2.5,142.7394847376046,
aigu,forte,stimuli/660Hz,stimuli/forte,bloc_5,prob20hthp_12trials.xlsx,2,24,20,80,0,,,,,0,4,4,4,1,4,16,11,,,,,,,,3.2,1069.2303489999995,1072.4303311000003,1072.430411780001,0.3048686000001908,1072.8749257,1072.8749257,m,0.6284132000000682,1075.2089701000004,1075.2089701000004,88,1.642,,,sub-015,60,115,700,bloc_loop.csv,2023-06-05_17h02.44.436,PainUncertainty,2022.2.5,142.7394847376046,
grave,forte,stimuli/330Hz,stimuli/forte,bloc_5,prob20hthp_12trials.xlsx,2,24,20,80,0,,,,,0,4,4,4,1,5,17,0,,,,,,,,3.8,1075.2089701000004,1079.0144352000007,1079.0145917800007,0.30539499999940745,1079.4591887999995,1079.4591887999995,m,0.5563817999991443,1081.5377525000004,1081.5377525000004,83,1.462,,,sub-015,60,115,700,bloc_loop.csv,2023-06-05_17h02.44.436,PainUncertainty,2022.2.5,142.7394847376046,
grave,forte,stimuli/330Hz,stimuli/forte,bloc_5,prob20hthp_12trials.xlsx,2,24,20,80,0,,,,,0,4,4,4,1,6,18,2,,,,,,,,4.3,1081.5377525000004,1085.8416835000007,1085.8416742800007,0.3053464000004169,1086.2931707999996,1086.2931707999996,m,0.6263407999995252,1088.2049052000002,1088.2049052000002,85,1.205,,,sub-015,60,115,700,bloc_loop.csv,2023-06-05_17h02.44.436,PainUncertainty,2022.2.5,142.7394847376046,
aigu,moderee,stimuli/660Hz,stimuli/moderee,bloc_5,prob20hthp_12trials.xlsx,2,24,20,80,0,,,,,0,4,4,4,1,7,19,10,,,,,,,,3.1,1088.2049052000002,1091.3075100999995,1091.3076984799998,0.30491069999879983,1091.7517437999995,1091.7517437999995,n,0.4962123999994219,1093.9919351000008,1093.9919351000008,18,1.677,,,sub-015,60,115,700,bloc_loop.csv,2023-06-05_17h02.44.436,PainUncertainty,2022.2.5,142.7394847376046,
aigu,moderee,stimuli/660Hz,stimuli/moderee,bloc_5,prob20hthp_12trials.xlsx,2,24,20,80,0,,,,,0,4,4,4,1,8,20,7,,,,,,,,3.5,1093.9919351000008,1097.4959058999993,1097.4959811800006,0.30089440000119794,1097.942070000001,1097.942070000001,n,0.46783680000044114,1099.5841280000004,1099.5841280000004,10,1.122,,,sub-015,60,115,700,bloc_loop.csv,2023-06-05_17h02.44.436,PainUncertainty,2022.2.5,142.7394847376046,
aigu,moderee,stimuli/660Hz,stimuli/moderee,bloc_5,prob20hthp_12trials.xlsx,2,24,20,80,0,,,,,0,4,4,4,1,9,21,9,,,,,,,,4.1,1099.5841280000004,1103.6841292999998,1103.6841239800003,0.30519789999925706,1104.1282391000004,1104.1282391000004,n,0.5337822999990749,1106.3473476,1106.3473476,14,1.616,,,sub-015,60,115,700,bloc_loop.csv,2023-06-05_17h02.44.436,PainUncertainty,2022.2.5,142.7394847376046,
grave,forte,stimuli/330Hz,stimuli/forte,bloc_5,prob20hthp_12trials.xlsx,2,24,20,80,0,,,,,0,4,4,4,1,10,22,3,,,,,,,,3.6,1106.3473476,1109.9487265999996,1109.9487724800008,0.3056821999998647,1110.3971942000007,1110.3971942000007,m,0.7530119000002742,1112.5158315000008,1112.5158315000008,80,1.31,,,sub-015,60,115,700,bloc_loop.csv,2023-06-05_17h02.44.436,PainUncertainty,2022.2.5,142.7394847376046,
grave,forte,stimuli/330Hz,stimuli/forte,bloc_5,prob20hthp_12trials.xlsx,2,24,20,80,0,,,,,0,4,4,4,1,11,23,1,,,,,,,,4.8,1112.5158315000008,1117.3177274999998,1117.3177657799995,0.3053297000005841,1117.7659167000002,1117.7659167000002,m,0.5610472999997,1120.0140585000008,1120.0140585000008,81,1.6,,,sub-015,60,115,700,bloc_loop.csv,2023-06-05_17h02.44.436,PainUncertainty,2022.2.5,142.7394847376046,
aigu,moderee,stimuli/660Hz,stimuli/moderee,bloc_6,prob50_50_4trials.xlsx,2,8,50,50,0,,,,,0,5,5,5,0,0,0,2,,,,,,,,3.3,1120.0140585000008,1123.3188081000008,1123.318939380001,0.304650699999911,1123.7626361000002,1123.7626361000002,n,0.43546079999941867,1125.8156075000006,1125.8156075000006,14,1.544,,,sub-015,60,115,700,bloc_loop.csv,2023-06-05_17h02.44.436,PainUncertainty,2022.2.5,142.7394847376046,
grave,forte,stimuli/330Hz,stimuli/forte,bloc_6,prob50_50_4trials.xlsx,2,8,50,50,0,,,,,0,5,5,5,0,1,1,1,,,,,,,,3,1125.8156075000006,1128.8189574999997,1128.8191339800003,0.3050754000014422,1129.2632119999998,1129.2632119999998,m,0.46655619999910414,1131.0117515000002,1131.0117515000002,85,1.198,,,sub-015,60,115,700,bloc_loop.csv,2023-06-05_17h02.44.436,PainUncertainty,2022.2.5,142.7394847376046,
grave,moderee,stimuli/330Hz,stimuli/moderee,bloc_6,prob50_50_4trials.xlsx,2,8,50,50,0,,,,,0,5,5,5,0,2,2,0,,,,,,,,3.1,1131.0117515000002,1134.1117954000001,1134.1119034800001,0.3047416000008525,1134.5557088999994,1134.5557088999994,n,0.4853337000004103,1136.1413592000008,1136.1413592000008,13,1.031,,,sub-015,60,115,700,bloc_loop.csv,2023-06-05_17h02.44.436,PainUncertainty,2022.2.5,142.7394847376046,
aigu,forte,stimuli/660Hz,stimuli/forte,bloc_6,prob50_50_4trials.xlsx,2,8,50,50,0,,,,,0,5,5,5,0,3,3,3,,,,,,,,3.8,1136.1413592000008,1139.9454619000007,1139.945599880001,0.29953670000031707,1140.3904932999994,1140.3904932999994,m,0.504318900000726,1142.5823858999993,1142.5823858999993,78,1.636,,,sub-015,60,115,700,bloc_loop.csv,2023-06-05_17h02.44.436,PainUncertainty,2022.2.5,142.7394847376046,
aigu,forte,stimuli/660Hz,stimuli/forte,bloc_6,prob50_50_4trials.xlsx,2,8,50,50,0,,,,,0,5,5,5,1,0,4,3,,,,,,,,4.1,1142.5823858999993,1146.6826271999998,1146.682749280001,0.30268189999878814,1147.1285382999995,1147.1285382999995,m,0.4623346999997011,1148.3383754000006,1148.3383754000006,80,0.669,,,sub-015,60,115,700,bloc_loop.csv,2023-06-05_17h02.44.436,PainUncertainty,2022.2.5,142.7394847376046,
grave,moderee,stimuli/330Hz,stimuli/moderee,bloc_6,prob50_50_4trials.xlsx,2,8,50,50,0,,,,,0,5,5,5,1,1,5,0,,,,,,,,4.6,1148.3383754000006,1152.9405826000002,1152.9405295799995,0.30497729999842704,1153.3886710999996,1153.3886710999996,n,0.4746286000008695,1156.6348008000004,1156.6348008000004,16,2.69,,,sub-015,60,115,700,bloc_loop.csv,2023-06-05_17h02.44.436,PainUncertainty,2022.2.5,142.7394847376046,
grave,forte,stimuli/330Hz,stimuli/forte,bloc_6,prob50_50_4trials.xlsx,2,8,50,50,0,,,,,0,5,5,5,1,2,6,1,,,,,,,,3.8,1156.6348008000004,1160.4339474000008,1160.4340717800012,0.300311299999521,1160.8788320000003,1160.8788320000003,m,0.5288566999988689,1163.3011033000002,1163.3011033000002,83,1.81,,,sub-015,60,115,700,bloc_loop.csv,2023-06-05_17h02.44.436,PainUncertainty,2022.2.5,142.7394847376046,
aigu,moderee,stimuli/660Hz,stimuli/moderee,bloc_6,prob50_50_4trials.xlsx,2,8,50,50,0,,,,,0,5,5,5,1,3,7,2,,,,,,,,3.3,1163.3011033000002,1166.6014615999993,1166.6014522800003,0.3055029999995895,1167.0461720000003,1167.0461720000003,n,0.47995219999938854,1168.5576801999996,1168.5576801999996,10,0.95,,,sub-015,60,115,700,bloc_loop.csv,2023-06-05_17h02.44.436,PainUncertainty,2022.2.5,142.7394847376046,
aigu,forte,stimuli/660Hz,stimuli/forte,bloc_7,prob80hthp_12trials.xlsx,2,24,80,20,1,,,,,0,6,6,6,0,0,0,7,,,,,,,,4.3,1168.5576801999996,1172.8589905000008,1172.85910588,0.3049539999992703,1173.303399800001,1173.303399800001,m,1.5678398000000016,1176.5818872,1176.5818872,83,1.657,,,sub-015,60,115,700,bloc_loop.csv,2023-06-05_17h02.44.436,PainUncertainty,2022.2.5,142.7394847376046,
aigu,forte,stimuli/660Hz,stimuli/forte,bloc_7,prob80hthp_12trials.xlsx,2,24,80,20,1,,,,,0,6,6,6,0,1,1,10,,,,,,,,4.7,1176.5818872,1181.2840008000003,1181.2839569800005,0.3049627000000328,1181.7279204000006,1181.7279204000006,m,0.6503343000003952,1184.4482589,1184.4482589,86,1.997,,,sub-015,60,115,700,bloc_loop.csv,2023-06-05_17h02.44.436,PainUncertainty,2022.2.5,142.7394847376046,
grave,moderee,stimuli/330Hz,stimuli/moderee,bloc_7,prob80hthp_12trials.xlsx,2,24,80,20,1,,,,,0,6,6,6,0,2,2,2,,,,,,,,3.2,1184.4482589,1187.6525576999993,1187.652590280001,0.29902619999847957,1188.0909355000003,1188.0909355000003,n,0.4476395000001503,1189.3717978000004,1189.3717978000004,15,0.761,,,sub-015,60,115,700,bloc_loop.csv,2023-06-05_17h02.44.436,PainUncertainty,2022.2.5,142.7394847376046,
grave,forte,stimuli/330Hz,stimuli/forte,bloc_7,prob80hthp_12trials.xlsx,2,24,80,20,1,,,,,0,6,6,6,0,3,3,5,,,,,,,,3.2,1189.3717978000004,1192.5767145999998,1192.5767711800006,0.30508519999966666,1193.0209336000007,1193.0209336000007,m,0.44482369999968796,1194.8392538999997,1194.8392538999997,83,1.299,,,sub-015,60,115,700,bloc_loop.csv,2023-06-05_17h02.44.436,PainUncertainty,2022.2.5,142.7394847376046,
aigu,moderee,stimuli/660Hz,stimuli/moderee,bloc_7,prob80hthp_12trials.xlsx,2,24,80,20,1,,,,,0,6,6,6,0,4,4,11,,,,,,,,4.5,1194.8392538999997,1199.3414242,1199.3414190800002,0.30512520000047516,1199.7856911,1199.7856911,n,0.4522591000004468,1202.8459519000007,1202.8459519000007,14,2.547,,,sub-015,60,115,700,bloc_loop.csv,2023-06-05_17h02.44.436,PainUncertainty,2022.2.5,142.7394847376046,
grave,moderee,stimuli/330Hz,stimuli/moderee,bloc_7,prob80hthp_12trials.xlsx,2,24,80,20,1,,,,,0,6,6,6,0,5,5,1,,,,,,,,3.5,1202.8459519000007,1206.3491534000004,1206.3492479799995,0.30524809999951685,1206.7934925999998,1206.7934925999998,n,0.5366034999988187,1208.8571718000003,1208.8571718000003,13,1.447,,,sub-015,60,115,700,bloc_loop.csv,2023-06-05_17h02.44.436,PainUncertainty,2022.2.5,142.7394847376046,
aigu,forte,stimuli/660Hz,stimuli/forte,bloc_7,prob80hthp_12trials.xlsx,2,24,80,20,1,,,,,0,6,6,6,0,6,6,8,,,,,,,,4.3,1208.8571718000003,1213.1629711000005,1213.1630325800004,0.3047071999990294,1213.6066879999998,1213.6066879999998,m,0.49352819999876374,1215.0902196000006,1215.0902196000006,80,0.942,,,sub-015,60,115,700,bloc_loop.csv,2023-06-05_17h02.44.436,PainUncertainty,2022.2.5,142.7394847376046,
aigu,forte,stimuli/660Hz,stimuli/forte,bloc_7,prob80hthp_12trials.xlsx,2,24,80,20,1,,,,,0,6,6,6,0,7,7,6,,,,,,,,4.1,1215.0902196000006,1219.1909269000007,1219.1911192800005,0.3050057000000379,1219.6351453000007,1219.6351453000007,m,0.4648167999985162,1220.894422200001,1220.894422200001,90,0.727,,,sub-015,60,115,700,bloc_loop.csv,2023-06-05_17h02.44.436,PainUncertainty,2022.2.5,142.7394847376046,
grave,moderee,stimuli/330Hz,stimuli/moderee,bloc_7,prob80hthp_12trials.xlsx,2,24,80,20,1,,,,,0,6,6,6,0,8,8,3,,,,,,,,3.2,1220.894422200001,1224.0947620999996,1224.09505178,0.3046840000006341,1224.5394077,1224.5394077,n,0.9837604999993346,1227.6548038,1227.6548038,13,2.053,,,sub-015,60,115,700,bloc_loop.csv,2023-06-05_17h02.44.436,PainUncertainty,2022.2.5,142.7394847376046,
aigu,forte,stimuli/660Hz,stimuli/forte,bloc_7,prob80hthp_12trials.xlsx,2,24,80,20,1,,,,,0,6,6,6,0,9,9,9,,,,,,,,4.1,1227.6548038,1231.7553707000006,1231.7560079800012,0.29902489999949466,1232.1994415999998,1232.1994415999998,m,0.5214527000007365,1234.1771417,1234.1771417,89,1.373,,,sub-015,60,115,700,bloc_loop.csv,2023-06-05_17h02.44.436,PainUncertainty,2022.2.5,142.7394847376046,
grave,moderee,stimuli/330Hz,stimuli/moderee,bloc_7,prob80hthp_12trials.xlsx,2,24,80,20,1,,,,,0,6,6,6,0,10,10,0,,,,,,,,4.5,1234.1771417,1238.679885900001,1238.67988228,0.30515399999967485,1239.1262657999996,1239.1262657999996,n,0.4612973000002967,1240.712815500001,1240.712815500001,10,1.073,,,sub-015,60,115,700,bloc_loop.csv,2023-06-05_17h02.44.436,PainUncertainty,2022.2.5,142.7394847376046,
grave,moderee,stimuli/330Hz,stimuli/moderee,bloc_7,prob80hthp_12trials.xlsx,2,24,80,20,1,,,,,0,6,6,6,0,11,11,4,,,,,,,,4.4,1240.712815500001,1245.117771700001,1245.1178745799996,0.30507420000139973,1245.5619389000003,1245.5619389000003,n,0.5046824000000925,1247.6820162000004,1247.6820162000004,18,1.554,,,sub-015,60,115,700,bloc_loop.csv,2023-06-05_17h02.44.436,PainUncertainty,2022.2.5,142.7394847376046,
grave,moderee,stimuli/330Hz,stimuli/moderee,bloc_7,prob80hthp_12trials.xlsx,2,24,80,20,1,,,,,0,6,6,6,1,0,12,0,,,,,,,,4.4,1247.6820162000004,1252.0841963000003,1252.0843987800006,0.30165520000082324,1252.5295215999995,1252.5295215999995,n,0.6574411000001419,1255.4358052000007,1255.4358052000007,26,2.171,,,sub-015,60,115,700,bloc_loop.csv,2023-06-05_17h02.44.436,PainUncertainty,2022.2.5,142.7394847376046,
aigu,forte,stimuli/660Hz,stimuli/forte,bloc_7,prob80hthp_12trials.xlsx,2,24,80,20,1,,,,,0,6,6,6,1,1,13,7,,,,,,,,4.2,1255.4358052000007,1259.6409808999997,1259.6409623799998,0.30530539999926987,1260.089613,1260.089613,m,0.7194323999992775,1262.454939700001,1262.454939700001,83,1.579,,,sub-015,60,115,700,bloc_loop.csv,2023-06-05_17h02.44.436,PainUncertainty,2022.2.5,142.7394847376046,
aigu,forte,stimuli/660Hz,stimuli/forte,bloc_7,prob80hthp_12trials.xlsx,2,24,80,20,1,,,,,0,6,6,6,1,2,14,9,,,,,,,,3.7,1262.454939700001,1266.1550888000002,1266.1551925800002,0.30467610000050627,1266.5993627999997,1266.5993627999997,m,0.4421853999992891,1268.0952011999998,1268.0952011999998,77,0.997,,,sub-015,60,115,700,bloc_loop.csv,2023-06-05_17h02.44.436,PainUncertainty,2022.2.5,142.7394847376046,
aigu,forte,stimuli/660Hz,stimuli/forte,bloc_7,prob80hthp_12trials.xlsx,2,24,80,20,1,,,,,0,6,6,6,1,3,15,10,,,,,,,,4.5,1268.0952011999998,1272.6009601000005,1272.60093338,0.3049055999999837,1273.0491311000005,1273.0491311000005,m,0.4310987999997451,1275.3364495999995,1275.3364495999995,80,1.789,,,sub-015,60,115,700,bloc_loop.csv,2023-06-05_17h02.44.436,PainUncertainty,2022.2.5,142.7394847376046,
grave,moderee,stimuli/330Hz,stimuli/moderee,bloc_7,prob80hthp_12trials.xlsx,2,24,80,20,1,,,,,0,6,6,6,1,4,16,1,,,,,,,,3.6,1275.3364495999995,1278.9419233999997,1278.94203008,0.3048484000009921,1279.390421,1279.390421,n,0.47439749999830383,1281.042760800001,1281.042760800001,13,1.115,,,sub-015,60,115,700,bloc_loop.csv,2023-06-05_17h02.44.436,PainUncertainty,2022.2.5,142.7394847376046,
grave,moderee,stimuli/330Hz,stimuli/moderee,bloc_7,prob80hthp_12trials.xlsx,2,24,80,20,1,,,,,0,6,6,6,1,5,17,2,,,,,,,,3.1,1281.042760800001,1284.1437009,1284.1437146800006,0.2994919000011578,1284.5879917000002,1284.5879917000002,n,0.5652313999999024,1286.2227022999996,1286.2227022999996,10,1.005,,,sub-015,60,115,700,bloc_loop.csv,2023-06-05_17h02.44.436,PainUncertainty,2022.2.5,142.7394847376046,
grave,moderee,stimuli/330Hz,stimuli/moderee,bloc_7,prob80hthp_12trials.xlsx,2,24,80,20,1,,,,,0,6,6,6,1,6,18,3,,,,,,,,3.6,1286.2227022999996,1289.8244562,1289.8248604799999,0.3006693000006635,1290.2689246999998,1290.2689246999998,n,0.5609015999980329,1293.3681216000004,1293.3681216000004,14,2.47,,,sub-015,60,115,700,bloc_loop.csv,2023-06-05_17h02.44.436,PainUncertainty,2022.2.5,142.7394847376046,
grave,forte,stimuli/330Hz,stimuli/forte,bloc_7,prob80hthp_12trials.xlsx,2,24,80,20,1,,,,,0,6,6,6,1,7,19,5,,,,,,,,4.5,1293.3681216000004,1297.8690095000002,1297.867369280001,0.30520160000014585,1298.3113295000003,1298.3113295000003,m,0.6370198000004166,1300.4319632000006,1300.4319632000006,80,1.426,,,sub-015,60,115,700,bloc_loop.csv,2023-06-05_17h02.44.436,PainUncertainty,2022.2.5,142.7394847376046,
aigu,forte,stimuli/660Hz,stimuli/forte,bloc_7,prob80hthp_12trials.xlsx,2,24,80,20,1,,,,,0,6,6,6,1,8,20,6,,,,,,,,3.2,1300.4319632000006,1303.6317172,1303.631723180001,0.3050396999988152,1304.075785000001,1304.075785000001,m,0.49117479999949865,1305.7709051000002,1305.7709051000002,86,1.15,,,sub-015,60,115,700,bloc_loop.csv,2023-06-05_17h02.44.436,PainUncertainty,2022.2.5,142.7394847376046,
aigu,forte,stimuli/660Hz,stimuli/forte,bloc_7,prob80hthp_12trials.xlsx,2,24,80,20,1,,,,,0,6,6,6,1,9,21,8,,,,,,,,3.6,1305.7709051000002,1309.3754387999998,1309.3755744800008,0.3050848999992013,1309.8237257,1309.8237257,m,0.4980828999996447,1311.9428102000002,1311.9428102000002,77,1.546,,,sub-015,60,115,700,bloc_loop.csv,2023-06-05_17h02.44.436,PainUncertainty,2022.2.5,142.7394847376046,
aigu,moderee,stimuli/660Hz,stimuli/moderee,bloc_7,prob80hthp_12trials.xlsx,2,24,80,20,1,,,,,0,6,6,6,1,10,22,11,,,,,,,,4.1,1311.9428102000002,1316.0433582999995,1316.0433640800009,0.30140169999867794,1316.4874987000003,1316.4874987000003,n,0.9081851999999344,1318.4634091999997,1318.4634091999997,10,1.004,,,sub-015,60,115,700,bloc_loop.csv,2023-06-05_17h02.44.436,PainUncertainty,2022.2.5,142.7394847376046,
grave,moderee,stimuli/330Hz,stimuli/moderee,bloc_7,prob80hthp_12trials.xlsx,2,24,80,20,1,,,,,0,6,6,6,1,11,23,4,,,,,,,,3.5,1318.4634091999997,1321.9676567999995,1321.9681918800004,0.30471380000017234,1322.4154208,1322.4154208,n,0.49234749999959604,1326.2295236999998,1326.2295236999998,17,1.289,,,sub-015,60,115,700,bloc_loop.csv,2023-06-05_17h02.44.436,PainUncertainty,2022.2.5,142.7394847376046,
,,,,bloc_7,prob80hthp_12trials.xlsx,2,24,80,20,1,,,,,0,6,6,6,,,,,0,0,0,0,,,,,,,,,,,,,,,,,1326.2295236999998,1357.9575626999995,sub-015,60,115,700,bloc_loop.csv,2023-06-05_17h02.44.436,PainUncertainty,2022.2.5,142.7394847376046,
grave,forte,stimuli/330Hz,stimuli/forte,bloc_8,prob50_50_4trials.xlsx,3,12,50,50,0,,,,,0,7,7,7,0,0,0,1,,,,,,,,3.6,1358.5229123000008,1362.1247741999996,1362.1247116800012,0.30549710000013874,1362.5693119999996,1362.5693119999996,m,0.4466746999987663,1364.2441916000007,1364.2441916000007,80,1.158,,,sub-015,60,115,700,bloc_loop.csv,2023-06-05_17h02.44.436,PainUncertainty,2022.2.5,142.7394847376046,
aigu,moderee,stimuli/660Hz,stimuli/moderee,bloc_8,prob50_50_4trials.xlsx,3,12,50,50,0,,,,,0,7,7,7,0,1,1,2,,,,,,,,4.2,1364.2441916000007,1368.4449872000005,1368.444980680001,0.30518169999959355,1368.889568300001,1368.889568300001,n,0.47871809999924153,1370.317615,1370.317615,10,0.886,,,sub-015,60,115,700,bloc_loop.csv,2023-06-05_17h02.44.436,PainUncertainty,2022.2.5,142.7394847376046,
grave,moderee,stimuli/330Hz,stimuli/moderee,bloc_8,prob50_50_4trials.xlsx,3,12,50,50,0,,,,,0,7,7,7,0,2,2,0,,,,,,,,4.2,1370.317615,1374.5232402000001,1374.5225679799994,0.3049104999990959,1374.9665502000007,1374.9665502000007,n,0.5931002999986958,1376.6315059999997,1376.6315059999997,15,0.997,,,sub-015,60,115,700,bloc_loop.csv,2023-06-05_17h02.44.436,PainUncertainty,2022.2.5,142.7394847376046,
aigu,forte,stimuli/660Hz,stimuli/forte,bloc_8,prob50_50_4trials.xlsx,3,12,50,50,0,,,,,0,7,7,7,0,3,3,3,,,,,,,,3.1,1376.6315059999997,1379.731217300001,1379.73132118,0.3052170999999362,1380.1757634000005,1380.1757634000005,m,0.46740289999979723,1381.7807642999996,1381.7807642999996,90,1.052,,,sub-015,60,115,700,bloc_loop.csv,2023-06-05_17h02.44.436,PainUncertainty,2022.2.5,142.7394847376046,
aigu,moderee,stimuli/660Hz,stimuli/moderee,bloc_8,prob50_50_4trials.xlsx,3,12,50,50,0,,,,,0,7,7,7,1,0,4,2,,,,,,,,3.2,1381.7807642999996,1384.9819066,1384.9819539799998,0.3050708000009763,1385.425916100001,1385.425916100001,n,0.4872111999993649,1387.0369200999994,1387.0369200999994,9,1.057,,,sub-015,60,115,700,bloc_loop.csv,2023-06-05_17h02.44.436,PainUncertainty,2022.2.5,142.7394847376046,
grave,moderee,stimuli/330Hz,stimuli/moderee,bloc_8,prob50_50_4trials.xlsx,3,12,50,50,0,,,,,0,7,7,7,1,1,5,0,,,,,,,,3.7,1387.0369200999994,1390.7394729999996,1390.73949848,0.30505970000012894,1391.1835234999999,1391.1835234999999,n,0.6340700999990077,1393.5925238,1393.5925238,15,1.698,,,sub-015,60,115,700,bloc_loop.csv,2023-06-05_17h02.44.436,PainUncertainty,2022.2.5,142.7394847376046,
aigu,forte,stimuli/660Hz,stimuli/forte,bloc_8,prob50_50_4trials.xlsx,3,12,50,50,0,,,,,0,7,7,7,1,2,6,3,,,,,,,,3.3,1393.5925238,1396.893003000001,1396.8930341799994,0.30486869999913324,1397.337543900001,1397.337543900001,m,0.47688059999927646,1398.7389346,1398.7389346,82,0.87,,,sub-015,60,115,700,bloc_loop.csv,2023-06-05_17h02.44.436,PainUncertainty,2022.2.5,142.7394847376046,
grave,forte,stimuli/330Hz,stimuli/forte,bloc_8,prob50_50_4trials.xlsx,3,12,50,50,0,,,,,0,7,7,7,1,3,7,1,,,,,,,,3.9,1398.7389346,1402.6439675000001,1402.6440963800003,0.30094719999942754,1403.0882729999994,1403.0882729999994,m,0.5265008999995189,1405.6776207000003,1405.6776207000003,80,1.997,,,sub-015,60,115,700,bloc_loop.csv,2023-06-05_17h02.44.436,PainUncertainty,2022.2.5,142.7394847376046,
grave,forte,stimuli/330Hz,stimuli/forte,bloc_8,prob50_50_4trials.xlsx,3,12,50,50,0,,,,,0,7,7,7,2,0,8,1,,,,,,,,4.6,1405.6776207000003,1410.2767791999995,1410.2790135799994,0.303065100000822,1410.7252052000003,1410.7252052000003,m,0.5006772999986424,1411.9898637999995,1411.9898637999995,80,0.698,,,sub-015,60,115,700,bloc_loop.csv,2023-06-05_17h02.44.436,PainUncertainty,2022.2.5,142.7394847376046,
aigu,moderee,stimuli/660Hz,stimuli/moderee,bloc_8,prob50_50_4trials.xlsx,3,12,50,50,0,,,,,0,7,7,7,2,1,9,2,,,,,,,,3.2,1411.9898637999995,1415.1937534999997,1415.1936286799998,0.3052270000007411,1415.6379288000007,1415.6379288000007,n,0.43224389999886625,1417.1053367999993,1417.1053367999993,9,0.976,,,sub-015,60,115,700,bloc_loop.csv,2023-06-05_17h02.44.436,PainUncertainty,2022.2.5,142.7394847376046,
grave,moderee,stimuli/330Hz,stimuli/moderee,bloc_8,prob50_50_4trials.xlsx,3,12,50,50,0,,,,,0,7,7,7,2,2,10,0,,,,,,,,4.2,1417.1053367999993,1421.3059555,1421.3059303800007,0.30467180000050575,1421.7498329999999,1421.7498329999999,n,0.5773654999993596,1423.5003636000001,1423.5003636000001,12,1.087,,,sub-015,60,115,700,bloc_loop.csv,2023-06-05_17h02.44.436,PainUncertainty,2022.2.5,142.7394847376046,
aigu,forte,stimuli/660Hz,stimuli/forte,bloc_8,prob50_50_4trials.xlsx,3,12,50,50,0,,,,,0,7,7,7,2,3,11,3,,,,,,,,3.1,1423.5003636000001,1426.6047662,1426.60476438,0.3050122000004194,1427.0491825000008,1427.0491825000008,m,0.5410054999993008,1430.5184073,1430.5184073,88,2.852,,,sub-015,60,115,700,bloc_loop.csv,2023-06-05_17h02.44.436,PainUncertainty,2022.2.5,142.7394847376046,
aigu,moderee,stimuli/660Hz,stimuli/moderee,bloc_9,prob20hthp_12trials.xlsx,3,36,80,20,0,,,,,0,8,8,8,0,0,0,9,,,,,,,,4.7,1430.5184073,1435.2239025,1435.2238597799994,0.305168799999592,1435.6680937,1435.6680937,n,0.4342317999999068,1437.9993921999994,1437.9993921999994,14,1.83,,,sub-015,60,115,700,bloc_loop.csv,2023-06-05_17h02.44.436,PainUncertainty,2022.2.5,142.7394847376046,
aigu,moderee,stimuli/660Hz,stimuli/moderee,bloc_9,prob20hthp_12trials.xlsx,3,36,80,20,0,,,,,0,8,8,8,0,1,1,7,,,,,,,,3.2,1437.9993921999994,1441.2037937000005,1441.203828280001,0.30509580000034475,1441.6483324,1441.6483324,n,0.4725654999983817,1443.9438658,1443.9438658,8,1.767,,,sub-015,60,115,700,bloc_loop.csv,2023-06-05_17h02.44.436,PainUncertainty,2022.2.5,142.7394847376046,
grave,moderee,stimuli/330Hz,stimuli/moderee,bloc_9,prob20hthp_12trials.xlsx,3,36,80,20,0,,,,,0,8,8,8,0,2,2,5,,,,,,,,4.1,1443.9438658,1448.0451856,1448.04524998,0.3048249000003125,1448.4889371999998,1448.4889371999998,n,0.5414239999990968,1450.0331695999994,1450.0331695999994,8,0.955,,,sub-015,60,115,700,bloc_loop.csv,2023-06-05_17h02.44.436,PainUncertainty,2022.2.5,142.7394847376046,
aigu,moderee,stimuli/660Hz,stimuli/moderee,bloc_9,prob20hthp_12trials.xlsx,3,36,80,20,0,,,,,0,8,8,8,0,3,3,10,,,,,,,,3.6,1450.0331695999994,1453.635820200001,1453.6358077800003,0.3050753999996232,1454.0839830000004,1454.0839830000004,n,0.4422238999995898,1455.6780319999998,1455.6780319999998,17,1.064,,,sub-015,60,115,700,bloc_loop.csv,2023-06-05_17h02.44.436,PainUncertainty,2022.2.5,142.7394847376046,
grave,forte,stimuli/330Hz,stimuli/forte,bloc_9,prob20hthp_12trials.xlsx,3,36,80,20,0,,,,,0,8,8,8,0,4,4,4,,,,,,,,3.9,1455.6780319999998,1459.5810788,1459.5810567800006,0.3055555999999342,1460.0297704999994,1460.0297704999994,m,0.49791320000076666,1461.7523316999996,1461.7523316999996,80,1.149,,,sub-015,60,115,700,bloc_loop.csv,2023-06-05_17h02.44.436,PainUncertainty,2022.2.5,142.7394847376046,
aigu,moderee,stimuli/660Hz,stimuli/moderee,bloc_9,prob20hthp_12trials.xlsx,3,36,80,20,0,,,,,0,8,8,8,0,5,5,6,,,,,,,,3.4,1461.7523316999996,1465.157905600001,1465.1580262800005,0.30515550000018266,1465.6021388000008,1465.6021388000008,n,0.4562445999981719,1467.4589711999997,1467.4589711999997,11,1.323,,,sub-015,60,115,700,bloc_loop.csv,2023-06-05_17h02.44.436,PainUncertainty,2022.2.5,142.7394847376046,
grave,forte,stimuli/330Hz,stimuli/forte,bloc_9,prob20hthp_12trials.xlsx,3,36,80,20,0,,,,,0,8,8,8,0,6,6,2,,,,,,,,3.6,1467.4589711999997,1471.0614323999998,1471.0614559800003,0.305384100000083,1471.5056086999994,1471.5056086999994,m,0.8670505999980378,1474.2182188999996,1474.2182188999996,90,1.795,,,sub-015,60,115,700,bloc_loop.csv,2023-06-05_17h02.44.436,PainUncertainty,2022.2.5,142.7394847376046,
grave,forte,stimuli/330Hz,stimuli/forte,bloc_9,prob20hthp_12trials.xlsx,3,36,80,20,0,,,,,0,8,8,8,0,7,7,1,,,,,,,,3.8,1474.2182188999996,1478.0206503999998,1478.02067108,0.3053576999991492,1478.4699208000002,1478.4699208000002,m,0.7391982999997708,1480.358533300001,1480.358533300001,83,1.073,,,sub-015,60,115,700,bloc_loop.csv,2023-06-05_17h02.44.436,PainUncertainty,2022.2.5,142.7394847376046,
aigu,moderee,stimuli/660Hz,stimuli/moderee,bloc_9,prob20hthp_12trials.xlsx,3,36,80,20,0,,,,,0,8,8,8,0,8,8,8,,,,,,,,4,1480.358533300001,1484.362143100001,1484.3621937800006,0.3049258999999438,1484.8061199000003,1484.8061199000003,n,0.5655741000009584,1486.4644819000005,1486.4644819000005,8,1.01,,,sub-015,60,115,700,bloc_loop.csv,2023-06-05_17h02.44.436,PainUncertainty,2022.2.5,142.7394847376046,
aigu,forte,stimuli/660Hz,stimuli/forte,bloc_9,prob20hthp_12trials.xlsx,3,36,80,20,0,,,,,0,8,8,8,0,9,9,11,,,,,,,,3.5,1486.4644819000005,1489.9665633000004,1489.9665902799995,0.3053349000001617,1490.4109659999995,1490.4109659999995,m,0.5341661999991629,1492.3949013000001,1492.3949013000001,85,1.387,,,sub-015,60,115,700,bloc_loop.csv,2023-06-05_17h02.44.436,PainUncertainty,2022.2.5,142.7394847376046,
grave,forte,stimuli/330Hz,stimuli/forte,bloc_9,prob20hthp_12trials.xlsx,3,36,80,20,0,,,,,0,8,8,8,0,10,10,3,,,,,,,,4.4,1492.3949013000001,1496.7941117999999,1496.7943405800004,0.30082840000068245,1497.2386019000005,1497.2386019000005,m,0.505882899999051,1498.645660100001,1498.645660100001,90,0.836,,,sub-015,60,115,700,bloc_loop.csv,2023-06-05_17h02.44.436,PainUncertainty,2022.2.5,142.7394847376046,
grave,forte,stimuli/330Hz,stimuli/forte,bloc_9,prob20hthp_12trials.xlsx,3,36,80,20,0,,,,,0,8,8,8,0,11,11,0,,,,,,,,4.7,1498.645660100001,1503.3503289,1503.3503997800005,0.30486240000027465,1503.7948324999998,1503.7948324999998,m,0.634913099998812,1507.658942600001,1507.658942600001,75,3.175,,,sub-015,60,115,700,bloc_loop.csv,2023-06-05_17h02.44.436,PainUncertainty,2022.2.5,142.7394847376046,
grave,forte,stimuli/330Hz,stimuli/forte,bloc_9,prob20hthp_12trials.xlsx,3,36,80,20,0,,,,,0,8,8,8,1,0,12,4,,,,,,,,4.4,1507.658942600001,1512.0594851999995,1512.0594519800004,0.30514600000060454,1512.5035652000006,1512.5035652000006,m,0.541279900000518,1515.364318,1515.364318,88,2.266,,,sub-015,60,115,700,bloc_loop.csv,2023-06-05_17h02.44.436,PainUncertainty,2022.2.5,142.7394847376046,
grave,forte,stimuli/330Hz,stimuli/forte,bloc_9,prob20hthp_12trials.xlsx,3,36,80,20,0,,,,,0,8,8,8,1,1,13,1,,,,,,,,5,1515.364318,1520.366022600001,1520.366071180001,0.3049190000001545,1520.8103033000007,1520.8103033000007,m,0.4470772000004217,1522.5895414000006,1522.5895414000006,88,1.274,,,sub-015,60,115,700,bloc_loop.csv,2023-06-05_17h02.44.436,PainUncertainty,2022.2.5,142.7394847376046,
grave,forte,stimuli/330Hz,stimuli/forte,bloc_9,prob20hthp_12trials.xlsx,3,36,80,20,0,,,,,0,8,8,8,1,2,14,2,,,,,,,,3.2,1522.5895414000006,1525.7902015,1525.7902133800005,0.3058971999998903,1526.2392808000004,1526.2392808000004,m,1.3231009999999515,1529.4012103000005,1529.4012103000005,81,1.754,,,sub-015,60,115,700,bloc_loop.csv,2023-06-05_17h02.44.436,PainUncertainty,2022.2.5,142.7394847376046,
aigu,moderee,stimuli/660Hz,stimuli/moderee,bloc_9,prob20hthp_12trials.xlsx,3,36,80,20,0,,,,,0,8,8,8,1,3,15,10,,,,,,,,4.1,1529.4012103000005,1533.5065206,1533.5064814799996,0.30543089999991935,1533.9533393000002,1533.9533393000002,n,0.6555474999986473,1536.5294570000005,1536.5294570000005,13,1.865,,,sub-015,60,115,700,bloc_loop.csv,2023-06-05_17h02.44.436,PainUncertainty,2022.2.5,142.7394847376046,
aigu,moderee,stimuli/660Hz,stimuli/moderee,bloc_9,prob20hthp_12trials.xlsx,3,36,80,20,0,,,,,0,8,8,8,1,4,16,6,,,,,,,,3,1536.5294570000005,1539.5296130000006,1539.5285163800006,0.30473179999899,1539.9722877999993,1539.9722877999993,n,0.6581972999993013,1542.6667140999998,1542.6667140999998,10,1.969,,,sub-015,60,115,700,bloc_loop.csv,2023-06-05_17h02.44.436,PainUncertainty,2022.2.5,142.7394847376046,
aigu,forte,stimuli/660Hz,stimuli/forte,bloc_9,prob20hthp_12trials.xlsx,3,36,80,20,0,,,,,0,8,8,8,1,5,17,11,,,,,,,,4.9,1542.6667140999998,1547.5710283999997,1547.571080980001,0.30639049999990675,1548.0187028,1548.0187028,m,0.7873003000004246,1552.1946439000003,1552.1946439000003,78,3.31,,,sub-015,60,115,700,bloc_loop.csv,2023-06-05_17h02.44.436,PainUncertainty,2022.2.5,142.7394847376046,
aigu,moderee,stimuli/660Hz,stimuli/moderee,bloc_9,prob20hthp_12trials.xlsx,3,36,80,20,0,,,,,0,8,8,8,1,6,18,8,,,,,,,,4.8,1552.1946439000003,1556.9953418000005,1556.9955185799997,0.30495370000062394,1557.4395870000008,1557.4395870000008,n,0.49246880000100646,1559.2112856000003,1559.2112856000003,12,1.219,,,sub-015,60,115,700,bloc_loop.csv,2023-06-05_17h02.44.436,PainUncertainty,2022.2.5,142.7394847376046,
aigu,moderee,stimuli/660Hz,stimuli/moderee,bloc_9,prob20hthp_12trials.xlsx,3,36,80,20,0,,,,,0,8,8,8,1,7,19,9,,,,,,,,4.3,1559.2112856000003,1563.5105084000006,1563.5104930799996,0.3046643999987282,1563.9550178000009,1563.9550178000009,n,0.6720148999993398,1565.9242599000008,1565.9242599000008,13,1.247,,,sub-015,60,115,700,bloc_loop.csv,2023-06-05_17h02.44.436,PainUncertainty,2022.2.5,142.7394847376046,
aigu,moderee,stimuli/660Hz,stimuli/moderee,bloc_9,prob20hthp_12trials.xlsx,3,36,80,20,0,,,,,0,8,8,8,1,8,20,7,,,,,,,,4.4,1565.9242599000008,1570.3233719,1570.3234462799999,0.30525739999939105,1570.7674582,1570.7674582,n,0.5153764999995474,1573.021445100001,1573.021445100001,17,1.664,,,sub-015,60,115,700,bloc_loop.csv,2023-06-05_17h02.44.436,PainUncertainty,2022.2.5,142.7394847376046,
grave,forte,stimuli/330Hz,stimuli/forte,bloc_9,prob20hthp_12trials.xlsx,3,36,80,20,0,,,,,0,8,8,8,1,9,21,3,,,,,,,,3,1573.021445100001,1576.0254712999995,1576.0255245800006,0.30503680000038,1576.469677000001,1576.469677000001,m,0.4790119999979652,1578.5381541999996,1578.5381541999996,82,1.525,,,sub-015,60,115,700,bloc_loop.csv,2023-06-05_17h02.44.436,PainUncertainty,2022.2.5,142.7394847376046,
grave,forte,stimuli/330Hz,stimuli/forte,bloc_9,prob20hthp_12trials.xlsx,3,36,80,20,0,,,,,0,8,8,8,1,10,22,0,,,,,,,,5,1578.5381541999996,1583.5401880000009,1583.54025488,0.305020699999659,1583.9843966999997,1583.9843966999997,m,0.4374422999990202,1585.602953900001,1585.602953900001,88,1.107,,,sub-015,60,115,700,bloc_loop.csv,2023-06-05_17h02.44.436,PainUncertainty,2022.2.5,142.7394847376046,
grave,moderee,stimuli/330Hz,stimuli/moderee,bloc_9,prob20hthp_12trials.xlsx,3,36,80,20,0,,,,,0,8,8,8,1,11,23,5,,,,,,,,3,1585.602953900001,1588.6036669000005,1588.6037195800006,0.3016571999996813,1589.0481254999995,1589.0481254999995,n,0.4732803999995667,1591.3098176000003,1591.3098176000003,12,1.733,,,sub-015,60,115,700,bloc_loop.csv,2023-06-05_17h02.44.436,PainUncertainty,2022.2.5,142.7394847376046,
aigu,moderee,stimuli/660Hz,stimuli/moderee,bloc_9,prob20hthp_12trials.xlsx,3,36,80,20,0,,,,,0,8,8,8,2,0,24,8,,,,,,,,3.8,1591.3098176000003,1595.1113968999998,1595.1113609800002,0.30500260000007984,1595.555450400001,1595.555450400001,n,0.5444134999997914,1597.608952300001,1597.608952300001,10,1.44,,,sub-015,60,115,700,bloc_loop.csv,2023-06-05_17h02.44.436,PainUncertainty,2022.2.5,142.7394847376046,
aigu,moderee,stimuli/660Hz,stimuli/moderee,bloc_9,prob20hthp_12trials.xlsx,3,36,80,20,0,,,,,0,8,8,8,2,1,25,10,,,,,,,,3,1597.608952300001,1600.612245800001,1600.6122276800004,0.3050679999996646,1601.0599198,1601.0599198,n,0.4349929999989399,1602.7548031999995,1602.7548031999995,9,1.184,,,sub-015,60,115,700,bloc_loop.csv,2023-06-05_17h02.44.436,PainUncertainty,2022.2.5,142.7394847376046,
grave,forte,stimuli/330Hz,stimuli/forte,bloc_9,prob20hthp_12trials.xlsx,3,36,80,20,0,,,,,0,8,8,8,2,2,26,2,,,,,,,,3.2,1602.7548031999995,1605.9594827,1605.9596138799996,0.30508040000131587,1606.4037270999997,1606.4037270999997,m,1.3566442999999708,1610.0106429000007,1610.0106429000007,81,2.18,,,sub-015,60,115,700,bloc_loop.csv,2023-06-05_17h02.44.436,PainUncertainty,2022.2.5,142.7394847376046,
grave,forte,stimuli/330Hz,stimuli/forte,bloc_9,prob20hthp_12trials.xlsx,3,36,80,20,0,,,,,0,8,8,8,2,3,27,3,,,,,,,,3.9,1610.0106429000007,1613.9119341000005,1613.9119121800002,0.3050437999991118,1614.3560581000002,1614.3560581000002,m,0.5412589999996271,1618.261238000001,1618.261238000001,87,3.288,,,sub-015,60,115,700,bloc_loop.csv,2023-06-05_17h02.44.436,PainUncertainty,2022.2.5,142.7394847376046,
grave,moderee,stimuli/330Hz,stimuli/moderee,bloc_9,prob20hthp_12trials.xlsx,3,36,80,20,0,,,,,0,8,8,8,2,4,28,5,,,,,,,,4.8,1618.261238000001,1623.0663067000005,1623.06808858,0.3036890000003041,1623.515076900001,1623.515076900001,n,0.4452872000001662,1625.0359998999993,1625.0359998999993,15,1.009,,,sub-015,60,115,700,bloc_loop.csv,2023-06-05_17h02.44.436,PainUncertainty,2022.2.5,142.7394847376046,
grave,forte,stimuli/330Hz,stimuli/forte,bloc_9,prob20hthp_12trials.xlsx,3,36,80,20,0,,,,,0,8,8,8,2,5,29,0,,,,,,,,3.6,1625.0359998999993,1628.635993400001,1628.6360379799996,0.3049575000004552,1629.0802872000004,1629.0802872000004,m,0.3930479999980889,1630.7267778999994,1630.7267778999994,79,1.19,,,sub-015,60,115,700,bloc_loop.csv,2023-06-05_17h02.44.436,PainUncertainty,2022.2.5,142.7394847376046,
aigu,forte,stimuli/660Hz,stimuli/forte,bloc_9,prob20hthp_12trials.xlsx,3,36,80,20,0,,,,,0,8,8,8,2,6,30,11,,,,,,,,3.6,1630.7267778999994,1634.3311926000006,1634.3310481800006,0.3052850000003673,1634.7752658999998,1634.7752658999998,m,0.3866275999989739,1636.5288873999998,1636.5288873999998,83,1.314,,,sub-015,60,115,700,bloc_loop.csv,2023-06-05_17h02.44.436,PainUncertainty,2022.2.5,142.7394847376046,
grave,forte,stimuli/330Hz,stimuli/forte,bloc_9,prob20hthp_12trials.xlsx,3,36,80,20,0,,,,,0,8,8,8,2,7,31,4,,,,,,,,4,1636.5288873999998,1640.533148800001,1640.5331730799996,0.3050813999998354,1640.9774705,1640.9774705,m,0.6811749999997119,1642.8762824000005,1642.8762824000005,77,1.142,,,sub-015,60,115,700,bloc_loop.csv,2023-06-05_17h02.44.436,PainUncertainty,2022.2.5,142.7394847376046,
aigu,moderee,stimuli/660Hz,stimuli/moderee,bloc_9,prob20hthp_12trials.xlsx,3,36,80,20,0,,,,,0,8,8,8,2,8,32,7,,,,,,,,4.6,1642.8762824000005,1647.4783898000005,1647.4785041800012,0.30508950000148616,1647.9226457000004,1647.9226457000004,n,0.4156899000008707,1649.5894208999998,1649.5894208999998,13,1.191,,,sub-015,60,115,700,bloc_loop.csv,2023-06-05_17h02.44.436,PainUncertainty,2022.2.5,142.7394847376046,
aigu,moderee,stimuli/660Hz,stimuli/moderee,bloc_9,prob20hthp_12trials.xlsx,3,36,80,20,0,,,,,0,8,8,8,2,9,33,9,,,,,,,,4.1,1649.5894208999998,1653.6945209999994,1653.69446528,0.3050574000008055,1654.1386987999995,1654.1386987999995,n,0.47230409999974654,1655.8567617000008,1655.8567617000008,11,1.17,,,sub-015,60,115,700,bloc_loop.csv,2023-06-05_17h02.44.436,PainUncertainty,2022.2.5,142.7394847376046,
grave,forte,stimuli/330Hz,stimuli/forte,bloc_9,prob20hthp_12trials.xlsx,3,36,80,20,0,,,,,0,8,8,8,2,10,34,1,,,,,,,,4.8,1655.8567617000008,1660.6606126000006,1660.6607278800009,0.3050125999998272,1661.1050414000001,1661.1050414000001,m,0.4186367000002065,1662.8898678999994,1662.8898678999994,86,1.296,,,sub-015,60,115,700,bloc_loop.csv,2023-06-05_17h02.44.436,PainUncertainty,2022.2.5,142.7394847376046,
aigu,moderee,stimuli/660Hz,stimuli/moderee,bloc_9,prob20hthp_12trials.xlsx,3,36,80,20,0,,,,,0,8,8,8,2,11,35,6,,,,,,,,3.7,1662.8898678999994,1666.5923629999998,1666.5923087800008,0.3047235999983968,1667.0363017,1667.0363017,n,0.9056651999999303,1669.1390408999996,1669.1390408999996,14,1.171,,,sub-015,60,115,700,bloc_loop.csv,2023-06-05_17h02.44.436,PainUncertainty,2022.2.5,142.7394847376046,
