series.thisRepN,series.thisTrialN,series.thisN,series.thisIndex,Ramp.thisRepN,Ramp.thisTrialN,Ramp.thisN,Ramp.thisIndex,rand_shocks.thisRepN,rand_shocks.thisTrialN,rand_shocks.thisN,rand_shocks.thisIndex,wait1_dur,intensity,text_7.started,text_12.started,key_resp_8.started,key_resp_8.keys,key_resp_8.rt,text_3.started,text_3.stopped,text_4.started,text_4.stopped,main_text.started,confirm_text.started,rating,ratingScale.response,ratingScale.rt,text_2.started,key_resp_3.started,key_resp_3.keys,key_resp_3.rt,text_9.started,key_resp_7.started,key_resp_7.keys,key_resp_7.rt,main_text_rand.started,confirm_rand.started,scale_wasmoved,rating_rand_.response,rating_rand_.rt,participant,debug,fail_ma,max_ma,nramps,date,expName,psychopyVersion,frameRate,
0,0,0,0,0,0,0,0,,,,,2.4,10,297.5533730999996,297.5663600000007,297.5663600000007,p,1.1784246999995958,298.7541141999991,301.157134699999,301.157134699999,302.1857853999991,318.4282714000001,318.4282714000001,3,3,16.245,318.4282714000001,318.4282714000001,y,3.7884094000000914,,,,,,,,,,sub-015,0,750,700,3,2023-06-05_16h43.41.584,painuncertainty_calibration,2022.2.5,143.9544873525567,
0,0,0,0,1,0,1,0,,,,,2.1,20,322.27936260000024,322.3333806999999,322.3333806999999,p,0.9631233000000066,323.3057573999995,325.4102022999996,325.4102022999996,326.426114599999,335.43789579999975,335.43789579999975,10,10,9.012,335.43789579999975,335.43789579999975,y,13.947214600000734,,,,,,,,,,sub-015,0,750,700,3,2023-06-05_16h43.41.584,painuncertainty_calibration,2022.2.5,143.9544873525567,
0,0,0,0,2,0,2,0,,,,,2.0,30,349.42180670000016,349.49685189999946,349.49685189999946,p,1.1199256999989302,350.62837799999943,352.6291851999995,352.6291851999995,353.64520769999945,361.3933933999997,361.3933933999997,17,17,7.747,361.3933933999997,361.3933933999997,y,2.38324879999891,,,,,,,,,,sub-015,0,750,700,3,2023-06-05_16h43.41.584,painuncertainty_calibration,2022.2.5,143.9544873525567,
0,0,0,0,3,0,3,0,,,,,2.1,40,363.8391539999993,363.89410769999995,363.89410769999995,p,0.6023608999985299,364.50572269999975,366.6097981999992,366.6097981999992,367.6280590999995,382.8458329999994,382.8458329999994,30,30,15.22,382.8458329999994,382.8458329999994,y,34.858434200001284,,,,,,,,,,sub-015,0,750,700,3,2023-06-05_16h43.41.584,painuncertainty_calibration,2022.2.5,143.9544873525567,
0,0,0,0,4,0,4,0,,,,,2.2,50,417.73801490000005,417.8173504999995,417.8173504999995,p,0.526794700001119,418.35202690000006,420.5538211999992,420.5538211999992,421.57043180000073,436.9775129999998,436.9775129999998,35,35,15.408,436.9775129999998,436.9775129999998,y,2.1593314000001556,,,,,,,,,,sub-015,0,750,700,3,2023-06-05_16h43.41.584,painuncertainty_calibration,2022.2.5,143.9544873525567,
0,0,0,0,5,0,5,0,,,,,2.3,60,439.17353189999994,439.2510996000001,439.2510996000001,p,0.7261345000006258,439.9866884999992,442.2856988000003,442.2856988000003,443.30352069999935,450.11086199999954,450.11086199999954,40,40,6.809,450.11086199999954,450.11086199999954,y,6.94568320000144,,,,,,,,,,sub-015,0,750,700,3,2023-06-05_16h43.41.584,painuncertainty_calibration,2022.2.5,143.9544873525567,
0,0,0,0,6,0,6,0,,,,,2.3,70,457.0926822000001,457.16988390000006,457.16988390000006,p,0.47894520000045304,457.6624914999993,459.96145289999913,459.96145289999913,460.97902500000055,468.328315499999,468.328315499999,44,44,7.35,468.328315499999,468.328315499999,y,2.4965920000013284,,,,,,,,,,sub-015,0,750,700,3,2023-06-05_16h43.41.584,painuncertainty_calibration,2022.2.5,143.9544873525567,
0,0,0,0,7,0,7,0,,,,,2.0,80,470.86993280000024,470.9419811000007,470.9419811000007,p,0.5625528000000486,471.51140660000056,473.5121189999991,473.5121189999991,474.52988860000005,477.7363048999996,477.7363048999996,49,49,3.204,477.7363048999996,477.7363048999996,y,5.623676499999419,,,,,,,,,,sub-015,0,750,700,3,2023-06-05_16h43.41.584,painuncertainty_calibration,2022.2.5,143.9544873525567,
0,0,0,0,8,0,8,0,,,,,2.5,90,483.4189229000003,483.47174369999993,483.47174369999993,p,0.5687586999993073,484.0479685999999,486.54837380000026,486.54837380000026,487.56499540000004,491.0952173000005,491.0952173000005,62,62,3.531,491.0952173000005,491.0952173000005,y,3.9372770999998465,,,,,,,,,,sub-015,0,750,700,3,2023-06-05_16h43.41.584,painuncertainty_calibration,2022.2.5,143.9544873525567,
0,0,0,0,9,0,9,0,,,,,2.2,100,495.08684379999977,495.14677759999904,495.14677759999904,p,0.43057930000031774,495.5841369999998,497.7860658999998,497.7860658999998,498.8019430000004,504.2842383999996,504.2842383999996,71,71,5.483,504.2842383999996,504.2842383999996,y,2.019890999999916,,,,,,,,,,sub-015,0,750,700,3,2023-06-05_16h43.41.584,painuncertainty_calibration,2022.2.5,143.9544873525567,
0,0,0,0,10,0,10,0,,,,,2.1,110,506.33744710000065,506.4185828999998,506.4185828999998,p,2.8535510999990947,509.27972170000066,511.3854922999999,511.3854922999999,512.4020180000007,519.4458479000004,519.4458479000004,87,87,7.044,519.4458479000004,519.4458479000004,y,2.53061709999929,,,,,,,,,,sub-015,0,750,700,3,2023-06-05_16h43.41.584,painuncertainty_calibration,2022.2.5,143.9544873525567,
0,0,0,0,11,0,11,0,,,,,2.1,120,522.0207420000006,522.0870617,522.0870617,p,0.5371766000007483,522.6357539,524.7404784999999,524.7404784999999,525.7563824999997,530.051320999999,530.051320999999,100,100,4.295,530.051320999999,530.051320999999,n,1.2690617999996903,,,,,,,,,,sub-015,0,750,700,3,2023-06-05_16h43.41.584,painuncertainty_calibration,2022.2.5,143.9544873525567,
0,0,0,0,,,,,,,,,,,,,,,,,,,,,,,,,,,,,,,,,,,,,,sub-015,0,750,700,3,2023-06-05_16h43.41.584,painuncertainty_calibration,2022.2.5,143.9544873525567,
1,0,1,0,0,0,0,0,,,,,2.4,10,551.8929819999994,551.9449624999997,551.9449624999997,p,1.0156231999990268,552.9728897999994,555.3762717999998,555.3762717999998,556.392989,565.2433108999994,565.2433108999994,4,4,4.764,565.2433108999994,565.2433108999994,y,3.3255382999996073,,,,,,,,,,sub-015,0,750,700,3,2023-06-05_16h43.41.584,painuncertainty_calibration,2022.2.5,143.9544873525567,
1,0,1,0,1,0,1,0,,,,,2.3,20,568.6146260000005,568.6831315,568.6831315,p,0.7175415999990946,569.4123068999997,571.71126,571.71126,572.7281435999994,577.2959838000006,577.2959838000006,11,11,4.568,577.2959838000006,577.2959838000006,y,2.3601899999994203,,,,,,,,,,sub-015,0,750,700,3,2023-06-05_16h43.41.584,painuncertainty_calibration,2022.2.5,143.9544873525567,
1,0,1,0,2,0,2,0,,,,,2.3,30,579.692235999999,579.768012999999,579.768012999999,p,0.4325048999999126,580.2121595999997,582.511115199999,582.511115199999,583.5276319000004,587.7321628999998,587.7321628999998,14,14,4.205,587.7321628999998,587.7321628999998,y,5.700933500000247,,,,,,,,,,sub-015,0,750,700,3,2023-06-05_16h43.41.584,painuncertainty_calibration,2022.2.5,143.9544873525567,
1,0,1,0,3,0,3,0,,,,,2.2,40,593.4709239000003,593.5473899999997,593.5473899999997,p,0.957221099999515,594.5133150000001,596.7144160000007,596.7144160000007,597.7311637999992,600.2613490999993,600.2613490999993,27,27,2.531,600.2613490999993,600.2613490999993,y,1.1714732000000367,,,,,,,,,,sub-015,0,750,700,3,2023-06-05_16h43.41.584,painuncertainty_calibration,2022.2.5,143.9544873525567,
1,0,1,0,4,0,4,0,,,,,2.3,50,601.4945363999996,601.5482747999995,601.5482747999995,p,0.8838513999999122,602.4442333999996,604.7435244999997,604.7435244999997,605.7596474999991,607.6580412000003,607.6580412000003,36,36,1.899,607.6580412000003,607.6580412000003,y,5.942484600000171,,,,,,,,,,sub-015,0,750,700,3,2023-06-05_16h43.41.584,painuncertainty_calibration,2022.2.5,143.9544873525567,
1,0,1,0,5,0,5,0,,,,,2.5,60,613.6427408,613.7165165999995,613.7165165999995,p,0.5721561999998812,614.2998373999999,616.8006057999992,616.8006057999992,617.8171416000005,620.9944493000003,620.9944493000003,37,37,3.176,620.9944493000003,620.9944493000003,y,2.6787135000013222,,,,,,,,,,sub-015,0,750,700,3,2023-06-05_16h43.41.584,painuncertainty_calibration,2022.2.5,143.9544873525567,
1,0,1,0,6,0,6,0,,,,,2.1,70,623.7127610999996,623.7872666000003,623.7872666000003,p,1.9257413999985147,625.7248129,627.8295773999998,627.8295773999998,628.8458009000005,631.3501372999999,631.3501372999999,46,46,2.503,631.3501372999999,631.3501372999999,y,5.7944910999995045,,,,,,,,,,sub-015,0,750,700,3,2023-06-05_16h43.41.584,painuncertainty_calibration,2022.2.5,143.9544873525567,
1,0,1,0,7,0,7,0,,,,,2.0,80,637.2037235999996,637.2609802999996,637.2609802999996,p,1.1080841000002692,638.3790907000002,640.3793707999994,640.3793707999994,641.3950267,643.6207990999992,643.6207990999992,54,54,2.226,643.6207990999992,643.6207990999992,y,2.8679646000000503,,,,,,,,,,sub-015,0,750,700,3,2023-06-05_16h43.41.584,painuncertainty_calibration,2022.2.5,143.9544873525567,
1,0,1,0,8,0,8,0,,,,,2.5,90,646.5222088999999,646.6023597999992,646.6023597999992,p,1.182660799999212,647.7968419999997,650.2972984000007,650.2972984000007,651.3149453999995,654.8599276000004,654.8599276000004,60,60,3.547,654.8599276000004,654.8599276000004,y,1.4131731000015861,,,,,,,,,,sub-015,0,750,700,3,2023-06-05_16h43.41.584,painuncertainty_calibration,2022.2.5,143.9544873525567,
1,0,1,0,9,0,9,0,,,,,2.0,100,656.3364230000007,656.3882045999999,656.3882045999999,p,0.6047937000003003,657.0063343999991,659.0066633000006,659.0066633000006,660.0238334000005,664.8592807000005,664.8592807000005,81,81,4.837,664.8592807000005,664.8592807000005,y,2.558105099999011,,,,,,,,,,sub-015,0,750,700,3,2023-06-05_16h43.41.584,painuncertainty_calibration,2022.2.5,143.9544873525567,
1,0,1,0,10,0,10,0,,,,,2.3,110,667.4630199000003,667.5288409000004,667.5288409000004,p,0.4397922000007384,667.9798929999997,670.2788507999994,670.2788507999994,,675.1054564999995,675.1054564999995,88,88,3.809,675.1054564999995,675.1054564999995,y,1.1668241000006674,,,,,,,,,,sub-015,0,750,700,3,2023-06-05_16h43.41.584,painuncertainty_calibration,2022.2.5,143.9544873525567,
1,0,1,0,11,0,11,0,,,,,2.2,120,676.3175073000002,676.3840003999994,676.3840003999994,p,0.5846683999989182,676.9809986,679.1830738999997,679.1830738999997,680.1995186000004,684.6047209999997,684.6047209999997,90,90,4.406,684.6047209999997,684.6047209999997,n,1.172060099999726,,,,,,,,,,sub-015,0,750,700,3,2023-06-05_16h43.41.584,painuncertainty_calibration,2022.2.5,143.9544873525567,
1,0,1,0,,,,,,,,,,,,,,,,,,,,,,,,,,,,,,,,,,,,,,sub-015,0,750,700,3,2023-06-05_16h43.41.584,painuncertainty_calibration,2022.2.5,143.9544873525567,
2,0,2,0,0,0,0,0,,,,,2.0,10,689.9369060999998,689.9896907000002,689.9896907000002,p,1.5783914000003278,691.5804619999999,693.5802581999997,693.5802581999997,694.5976831000007,696.3633537999995,696.3633537999995,2,2,1.766,696.3633537999995,696.3633537999995,y,1.8533485000007204,,,,,,,,,,sub-015,0,750,700,3,2023-06-05_16h43.41.584,painuncertainty_calibration,2022.2.5,143.9544873525567,
2,0,2,0,1,0,1,0,,,,,2.0,20,698.2648224000004,698.3308756000006,698.3308756000006,p,0.9741721999998845,699.3171232000004,701.3173587000001,701.3173587000001,702.3342283999991,704.7339642000006,704.7339642000006,9,9,2.399,704.7339642000006,704.7339642000006,y,1.0271718999993027,,,,,,,,,,sub-015,0,750,700,3,2023-06-05_16h43.41.584,painuncertainty_calibration,2022.2.5,143.9544873525567,
2,0,2,0,2,0,2,0,,,,,2.4,30,705.8085441999992,705.873447599999,705.873447599999,p,0.23151209999923594,706.1163976999997,708.519594899999,708.519594899999,709.5357332999993,713.0041093,713.0041093,12,12,3.469,713.0041093,713.0041093,y,0.8363634999986971,,,,,,,,,,sub-015,0,750,700,3,2023-06-05_16h43.41.584,painuncertainty_calibration,2022.2.5,143.9544873525567,
2,0,2,0,3,0,3,0,,,,,2.4,40,713.8958373999994,713.9577374,713.9577374,p,0.4350542000011046,714.4021709999997,716.8053839000004,716.8053839000004,717.8241256999991,722.9428831000005,722.9428831000005,18,18,5.121,722.9428831000005,722.9428831000005,y,22.153983100000914,,,,,,,,,,sub-015,0,750,700,3,2023-06-05_16h43.41.584,painuncertainty_calibration,2022.2.5,143.9544873525567,
2,0,2,0,4,0,4,0,,,,,2.1,50,745.1306771,745.2119421000007,745.2119421000007,p,1.2049744999985705,746.4270116000007,748.5314099999996,748.5314099999996,749.5488991000002,751.0715092999999,751.0715092999999,27,27,1.525,751.0715092999999,751.0715092999999,y,1.209679800000231,,,,,,,,,,sub-015,0,750,700,3,2023-06-05_16h43.41.584,painuncertainty_calibration,2022.2.5,143.9544873525567,
2,0,2,0,5,0,5,0,,,,,2.1,60,752.3243127000005,752.3932736000006,752.3932736000006,p,0.334844000000885,752.7400653999994,754.8447061999996,754.8447061999996,755.8630579000001,759.1279020000002,759.1279020000002,37,37,3.266,759.1279020000002,759.1279020000002,y,1.4486563000009482,,,,,,,,,,sub-015,0,750,700,3,2023-06-05_16h43.41.584,painuncertainty_calibration,2022.2.5,143.9544873525567,
2,0,2,0,6,0,6,0,,,,,2.3,70,760.6190831000004,760.6926303,760.6926303,p,0.5563293999985035,761.2625112000005,763.5615300999998,763.5615300999998,764.5772269999998,766.4133395999997,766.4133395999997,50,50,1.837,766.4133395999997,766.4133395999997,y,1.0988863000002311,,,,,,,,,,sub-015,0,750,700,3,2023-06-05_16h43.41.584,painuncertainty_calibration,2022.2.5,143.9544873525567,
2,0,2,0,7,0,7,0,,,,,2.5,80,767.5730512999999,767.6243309000001,767.6243309000001,p,0.6567131000010704,768.2910216,770.7915327999999,770.7915327999999,771.8076452000005,775.0533711999997,775.0533711999997,61,61,3.246,775.0533711999997,775.0533711999997,y,1.171045499999309,,,,,,,,,,sub-015,0,750,700,3,2023-06-05_16h43.41.584,painuncertainty_calibration,2022.2.5,143.9544873525567,
2,0,2,0,8,0,8,0,,,,,2.5,90,776.2850696000005,776.3406135000005,776.3406135000005,p,0.4036729999988893,776.7568981000004,779.2574774999994,779.2574774999994,780.2763935000003,782.750310899999,782.750310899999,71,71,2.474,782.750310899999,782.750310899999,y,1.3461807999992743,,,,,,,,,,sub-015,0,750,700,3,2023-06-05_16h43.41.584,painuncertainty_calibration,2022.2.5,143.9544873525567,
2,0,2,0,9,0,9,0,,,,,2.4,100,784.1490558000005,784.2093471000007,784.2093471000007,p,0.47228160000122443,784.6885519999996,787.0918972,787.0918972,788.1076847999993,792.2567509,792.2567509,76,76,4.15,792.2567509,792.2567509,y,2.2155828999984806,,,,,,,,,,sub-015,0,750,700,3,2023-06-05_16h43.41.584,painuncertainty_calibration,2022.2.5,143.9544873525567,
2,0,2,0,10,0,10,0,,,,,2.5,110,794.5073761999993,794.5857832999991,794.5857832999991,p,0.6785957000010967,795.2730023999993,797.7735298000007,797.7735298000007,798.7913984999996,802.2809653999993,802.2809653999993,84,84,3.49,802.2809653999993,802.2809653999993,y,1.6401733999991848,,,,,,,,,,sub-015,0,750,700,3,2023-06-05_16h43.41.584,painuncertainty_calibration,2022.2.5,143.9544873525567,
2,0,2,0,11,0,11,0,,,,,2.1,120,803.9690541,804.0382221,804.0382221,p,0.35416669999904116,804.3991153999996,806.5039514,806.5039514,807.5213332999992,814.2807188000006,814.2807188000006,85,85,6.76,814.2807188000006,814.2807188000006,y,1.391835100001117,,,,,,,,,,sub-015,0,750,700,3,2023-06-05_16h43.41.584,painuncertainty_calibration,2022.2.5,143.9544873525567,
2,0,2,0,12,0,12,0,,,,,2.1,130,815.7344278,815.7900941999997,815.7900941999997,p,0.5061567000011564,816.3038902999997,818.4079070999996,818.4079070999996,819.4245773000002,821.8103458999994,821.8103458999994,90,90,2.385,821.8103458999994,821.8103458999994,n,1.4701076000001194,,,,,,,,,,sub-015,0,750,700,3,2023-06-05_16h43.41.584,painuncertainty_calibration,2022.2.5,143.9544873525567,
2,0,2,0,,,,,,,,,,,,,,,,,,,,,,,,,,,,,,,,,,,,,,sub-015,0,750,700,3,2023-06-05_16h43.41.584,painuncertainty_calibration,2022.2.5,143.9544873525567,
,,,,,,,,0,0,0,0,3.0,75,,,,,,849.5226803999994,852.5235252999992,852.5235252999992,853.5421482000002,,,68,,,,,,,847.5446112999998,847.5446112999998,p,1.967641299999741,856.9585776000004,856.9585776000004,1,68,3.363,sub-015,0,750,700,3,2023-06-05_16h43.41.584,painuncertainty_calibration,2022.2.5,143.9544873525567,
,,,,,,,,1,0,1,0,3.0,38,,,,,,858.6278939999993,861.6286650000002,861.6286650000002,862.6470217000006,,,19,,,,,,,856.9585776000004,856.9585776000004,p,1.6593178000002808,864.2159298999995,864.2159298999995,1,19,1.515,sub-015,0,750,700,3,2023-06-05_16h43.41.584,painuncertainty_calibration,2022.2.5,143.9544873525567,
,,,,,,,,2,0,2,0,3.0,47,,,,,,865.4064904000006,868.4069865999991,868.4069865999991,869.4240649999992,,,26,,,,,,,864.2159298999995,864.2159298999995,p,1.1779908999997133,871.6170225999995,871.6170225999995,1,26,2.135,sub-015,0,750,700,3,2023-06-05_16h43.41.584,painuncertainty_calibration,2022.2.5,143.9544873525567,
,,,,,,,,3,0,3,0,3.0,28,,,,,,872.2962619999998,875.2969441999994,875.2969441999994,876.3131530999999,,,6,,,,,,,871.6170225999995,871.6170225999995,p,0.6714937000015198,878.1368906000007,878.1368906000007,1,6,1.781,sub-015,0,750,700,3,2023-06-05_16h43.41.584,painuncertainty_calibration,2022.2.5,143.9544873525567,
,,,,,,,,4,0,4,0,3.0,121,,,,,,878.8665161999998,881.8669257000001,881.8669257000001,882.8850485999992,,,89,,,,,,,878.1368906000007,878.1368906000007,p,0.7195021000006818,885.6809357999991,885.6809357999991,1,89,2.753,sub-015,0,750,700,3,2023-06-05_16h43.41.584,painuncertainty_calibration,2022.2.5,143.9544873525567,
,,,,,,,,5,0,5,0,3.0,84,,,,,,887.9096147,890.9101344999999,890.9101344999999,891.9260775000002,,,71,,,,,,,885.6809357999991,885.6809357999991,p,2.2158482000013464,894.7614763000001,894.7614763000001,1,71,2.788,sub-015,0,750,700,3,2023-06-05_16h43.41.584,painuncertainty_calibration,2022.2.5,143.9544873525567,
,,,,,,,,6,0,6,0,3.0,65,,,,,,895.4174714000001,898.4175204999992,898.4175204999992,899.434476299999,,,38,,,,,,,894.7614763000001,894.7614763000001,p,0.6471993000013754,901.3470902999998,901.3470902999998,1,38,1.865,sub-015,0,750,700,3,2023-06-05_16h43.41.584,painuncertainty_calibration,2022.2.5,143.9544873525567,
,,,,,,,,7,0,7,0,3.0,130,,,,,,901.9248554000005,904.9251779999995,904.9251779999995,905.9417025000002,,,91,,,,,,,901.3470902999998,901.3470902999998,p,0.5656999999991967,909.4656706000005,909.4656706000005,1,91,3.483,sub-015,0,750,700,3,2023-06-05_16h43.41.584,painuncertainty_calibration,2022.2.5,143.9544873525567,
,,,,,,,,8,0,8,0,3.0,93,,,,,,916.2325956000004,919.2329035999992,919.2329035999992,920.2493847000005,,,68,,,,,,,909.4656706000005,909.4656706000005,p,6.758880800000043,924.1568453,924.1568453,1,68,3.864,sub-015,0,750,700,3,2023-06-05_16h43.41.584,painuncertainty_calibration,2022.2.5,143.9544873525567,
,,,,,,,,9,0,9,0,3.0,102,,,,,,924.9003142000001,927.9001962999992,927.9001962999992,928.9612479999996,,,73,,,,,,,924.1568453,924.1568453,p,0.7326597000010224,936.0813527999999,936.0813527999999,1,73,7.077,sub-015,0,750,700,3,2023-06-05_16h43.41.584,painuncertainty_calibration,2022.2.5,143.9544873525567,
,,,,,,,,10,0,10,0,3.0,19,,,,,,940.555173499999,943.5548046000004,943.5548046000004,944.5746010000003,,,0,,,,,,,936.0813527999999,936.0813527999999,p,4.463274800000363,946.7761840999992,946.7761840999992,1,0,2.153,sub-015,0,750,700,3,2023-06-05_16h43.41.584,painuncertainty_calibration,2022.2.5,143.9544873525567,
,,,,,,,,11,0,11,0,3.0,56,,,,,,949.3056479999996,952.3060246000005,952.3060246000005,953.3228010999992,,,9,,,,,,,946.7761840999992,946.7761840999992,p,2.5209983000004286,954.9128129000001,954.9128129000001,1,9,1.531,sub-015,0,750,700,3,2023-06-05_16h43.41.584,painuncertainty_calibration,2022.2.5,143.9544873525567,
,,,,,,,,12,0,12,0,3.0,10,,,,,,955.3900555,958.3903991999996,958.3903991999996,959.4069875000005,,,1,,,,,,,954.9128129000001,954.9128129000001,p,0.4641308000009303,961.6252564999995,961.6252564999995,1,1,2.163,sub-015,0,750,700,3,2023-06-05_16h43.41.584,painuncertainty_calibration,2022.2.5,143.9544873525567,
,,,,,,,,13,0,13,0,3.0,112,,,,,,962.3627156999992,965.3637636000003,965.3637636000003,966.3811719000005,,,71,,,,,,,961.6252564999995,961.6252564999995,p,0.7275828999991063,971.1133697999994,971.1133697999994,1,71,4.733,sub-015,0,750,700,3,2023-06-05_16h43.41.584,painuncertainty_calibration,2022.2.5,143.9544873525567,
