cue_,stimulus_,cue_fichier,stimulus_fichier,block_name,block_trials_file,block_n_reps,block_ntrials,block_prob_highP_highT,block_prob_highP_lowT,block_pause_after,Bloc_essai.thisRepN,Bloc_essai.thisTrialN,Bloc_essai.thisN,Bloc_essai.thisIndex,blocks.thisRepN,blocks.thisTrialN,blocks.thisN,blocks.thisIndex,trials.thisRepN,trials.thisTrialN,trials.thisN,trials.thisIndex,pause_loop.thisRepN,pause_loop.thisTrialN,pause_loop.thisN,pause_loop.thisIndex,key_resp_5.started,start_calib.started,key_resp_2.started,ISI_duration,pause.started,pause.stopped,cue.started,ISI.started,choice_pain.started,Choice.started,choice_pain.keys,choice_pain.rt,main_text.started,confirm_text.started,ratingScale.response,ratingScale.rt,key_resp_3.started,key_resp_6.started,participant,low_ma,high_ma,failsafe_ma,block_file,date,expName,psychopyVersion,frameRate,
grave,forte,stimuli/330Hz,stimuli/forte,,,,,,,,0,0,0,1,,,,,,,,,,,,,32.69360040000174,303.7496069999979,337.8859783000007,4,347.42403610000474,351.4353531000015,351.43570957999907,0.30397029999585357,351.87340279999626,351.87340279999626,m,1.3011531000011018,355.75966730000073,355.75966730000073,55,2.499,,,sub-043,105,210,700,bloc_loop.csv,2023-08-23_08h31.49.615,PainUncertainty,2022.2.5,143.95158620256154,
grave,moderee,stimuli/330Hz,stimuli/moderee,,,,,,,,0,1,1,0,,,,,,,,,,,,,,,,4.4,355.75966730000073,360.15961949999473,360.15959308999953,0.30490389998885803,360.60744319999503,360.60744319999503,n,0.8485565000082715,363.9220573999992,363.9220573999992,35,2.414,,,sub-043,105,210,700,bloc_loop.csv,2023-08-23_08h31.49.615,PainUncertainty,2022.2.5,143.95158620256154,
aigu,moderee,stimuli/660Hz,stimuli/moderee,,,,,,,,0,2,2,2,,,,,,,,,,,,,,,,3.3,363.9220573999992,367.2267837000036,367.22930117999783,0.30046489999222104,367.6671148999958,367.6671148999958,n,0.838869799998065,371.1942341000031,371.1942341000031,34,2.616,,,sub-043,105,210,700,bloc_loop.csv,2023-08-23_08h31.49.615,PainUncertainty,2022.2.5,143.95158620256154,
aigu,forte,stimuli/660Hz,stimuli/forte,,,,,,,,0,3,3,3,,,,,,,,,,,,,,,,4.6,371.1942341000031,375.80000799999834,375.79996328999476,0.305499800000689,376.24814160000096,376.24814160000096,m,0.638629300003231,378.89635499999713,378.89635499999713,64,1.983,,,sub-043,105,210,700,bloc_loop.csv,2023-08-23_08h31.49.615,PainUncertainty,2022.2.5,143.95158620256154,
aigu,moderee,stimuli/660Hz,stimuli/moderee,bloc_1,prob20hthp_12trials.xlsx,4,48,20,80,0,,,,,0,0,0,0,0,0,0,9,,,,,,,,3.6,413.60212629999296,417.2082051999969,417.2080901899964,0.30047950000152923,417.65377219999937,417.65377219999937,n,0.5713326000040979,420.00841420000506,420.00841420000506,32,1.713,,,sub-043,105,210,700,bloc_loop.csv,2023-08-23_08h31.49.615,PainUncertainty,2022.2.5,143.95158620256154,
grave,forte,stimuli/330Hz,stimuli/forte,bloc_1,prob20hthp_12trials.xlsx,4,48,20,80,0,,,,,0,0,0,0,0,1,1,4,,,,,,,,3.9,420.00841420000506,423.91005729999597,423.90991099000456,0.3048877000110224,424.3546523000041,424.3546523000041,m,0.5330805000048713,427.1675619999951,427.1675619999951,59,2.215,,,sub-043,105,210,700,bloc_loop.csv,2023-08-23_08h31.49.615,PainUncertainty,2022.2.5,143.95158620256154,
grave,forte,stimuli/330Hz,stimuli/forte,bloc_1,prob20hthp_12trials.xlsx,4,48,20,80,0,,,,,0,0,0,0,0,2,2,1,,,,,,,,4.2,427.1675619999951,431.36934779999865,431.36912768999827,0.3054768000001786,431.81621989999985,431.81621989999985,m,0.4659326000037254,434.64373999999225,434.64373999999225,59,2.304,,,sub-043,105,210,700,bloc_loop.csv,2023-08-23_08h31.49.615,PainUncertainty,2022.2.5,143.95158620256154,
aigu,forte,stimuli/660Hz,stimuli/forte,bloc_1,prob20hthp_12trials.xlsx,4,48,20,80,0,,,,,0,0,0,0,0,3,3,11,,,,,,,,4,434.64373999999225,438.6481244999959,438.64776769000235,0.30546260000846814,439.094915200003,439.094915200003,m,0.6297906000036164,441.1292248000027,441.1292248000027,63,1.359,,,sub-043,105,210,700,bloc_loop.csv,2023-08-23_08h31.49.615,PainUncertainty,2022.2.5,143.95158620256154,
grave,forte,stimuli/330Hz,stimuli/forte,bloc_1,prob20hthp_12trials.xlsx,4,48,20,80,0,,,,,0,0,0,0,0,4,4,2,,,,,,,,5,441.1292248000027,446.1349272000007,446.13475658999886,0.30517029999464285,446.5794220000025,446.5794220000025,m,0.9133541000119294,450.55970259999594,450.55970259999594,62,2.983,,,sub-043,105,210,700,bloc_loop.csv,2023-08-23_08h31.49.615,PainUncertainty,2022.2.5,143.95158620256154,
aigu,moderee,stimuli/660Hz,stimuli/moderee,bloc_1,prob20hthp_12trials.xlsx,4,48,20,80,0,,,,,0,0,0,0,0,5,5,6,,,,,,,,3.9,450.55970259999594,454.4622903000054,454.462167989993,0.3050428999995347,454.9065177999946,454.9065177999946,n,0.9423013000123319,457.93853029999445,457.93853029999445,34,2.033,,,sub-043,105,210,700,bloc_loop.csv,2023-08-23_08h31.49.615,PainUncertainty,2022.2.5,143.95158620256154,
aigu,moderee,stimuli/660Hz,stimuli/moderee,bloc_1,prob20hthp_12trials.xlsx,4,48,20,80,0,,,,,0,0,0,0,0,6,6,8,,,,,,,,4.6,457.93853029999445,462.5400131999995,462.5397901899916,0.30499250000866596,462.9839773000058,462.9839773000058,n,0.5726106000147411,466.53522379999777,466.53522379999777,26,2.913,,,sub-043,105,210,700,bloc_loop.csv,2023-08-23_08h31.49.615,PainUncertainty,2022.2.5,143.95158620256154,
aigu,moderee,stimuli/660Hz,stimuli/moderee,bloc_1,prob20hthp_12trials.xlsx,4,48,20,80,0,,,,,0,0,0,0,0,7,7,10,,,,,,,,5,466.53522379999777,471.54098939999676,471.54074759000576,0.30499069999495987,471.98508059999585,471.98508059999585,n,0.45503699999972014,475.21342389999336,475.21342389999336,29,2.69,,,sub-043,105,210,700,bloc_loop.csv,2023-08-23_08h31.49.615,PainUncertainty,2022.2.5,143.95158620256154,
grave,forte,stimuli/330Hz,stimuli/forte,bloc_1,prob20hthp_12trials.xlsx,4,48,20,80,0,,,,,0,0,0,0,0,8,8,3,,,,,,,,4.8,475.21342389999336,480.014307700003,480.014049290002,0.30502440000418574,480.4583963999976,480.4583963999976,m,0.5135590999925626,482.9773694999967,482.9773694999967,66,1.947,,,sub-043,105,210,700,bloc_loop.csv,2023-08-23_08h31.49.615,PainUncertainty,2022.2.5,143.95158620256154,
grave,forte,stimuli/330Hz,stimuli/forte,bloc_1,prob20hthp_12trials.xlsx,4,48,20,80,0,,,,,0,0,0,0,0,9,9,0,,,,,,,,3.3,482.9773694999967,486.2788575999948,486.27872249000137,0.30506009999953676,486.723287599998,486.723287599998,m,0.3580934999990859,488.7287962000046,488.7287962000046,61,1.574,,,sub-043,105,210,700,bloc_loop.csv,2023-08-23_08h31.49.615,PainUncertainty,2022.2.5,143.95158620256154,
aigu,moderee,stimuli/660Hz,stimuli/moderee,bloc_1,prob20hthp_12trials.xlsx,4,48,20,80,0,,,,,0,0,0,0,0,10,10,7,,,,,,,,3.3,488.7287962000046,492.0294298000008,492.0292563899922,0.30538580000575166,492.473711000006,492.473711000006,n,0.5682387000051676,494.386502699992,494.386502699992,25,1.281,,,sub-043,105,210,700,bloc_loop.csv,2023-08-23_08h31.49.615,PainUncertainty,2022.2.5,143.95158620256154,
grave,moderee,stimuli/330Hz,stimuli/moderee,bloc_1,prob20hthp_12trials.xlsx,4,48,20,80,0,,,,,0,0,0,0,0,11,11,5,,,,,,,,4.6,494.386502699992,498.9886655999944,498.9884440899979,0.3009789999923669,499.43498080000427,499.43498080000427,n,0.9154324000046472,502.50653009999223,502.50653009999223,27,2.101,,,sub-043,105,210,700,bloc_loop.csv,2023-08-23_08h31.49.615,PainUncertainty,2022.2.5,143.95158620256154,
aigu,moderee,stimuli/660Hz,stimuli/moderee,bloc_1,prob20hthp_12trials.xlsx,4,48,20,80,0,,,,,0,0,0,0,1,0,12,8,,,,,,,,3.8,502.50653009999223,506.3106273999947,506.30912979000203,0.30488909999257885,506.75319989999844,506.75319989999844,n,0.547609300010663,509.82180539999536,509.82180539999536,27,2.457,,,sub-043,105,210,700,bloc_loop.csv,2023-08-23_08h31.49.615,PainUncertainty,2022.2.5,143.95158620256154,
aigu,moderee,stimuli/660Hz,stimuli/moderee,bloc_1,prob20hthp_12trials.xlsx,4,48,20,80,0,,,,,0,0,0,0,1,1,13,6,,,,,,,,4,509.82180539999536,513.8237265999996,513.8234987899989,0.3052929999976186,514.2678954999938,514.2678954999938,n,0.5183486999958404,516.5648372999931,516.5648372999931,28,1.706,,,sub-043,105,210,700,bloc_loop.csv,2023-08-23_08h31.49.615,PainUncertainty,2022.2.5,143.95158620256154,
grave,forte,stimuli/330Hz,stimuli/forte,bloc_1,prob20hthp_12trials.xlsx,4,48,20,80,0,,,,,0,0,0,0,1,2,14,0,,,,,,,,3.5,516.5648372999931,520.0675900999995,520.0673373899983,0.3052021000039531,520.5152423000036,520.5152423000036,m,0.5455297000080463,523.7538223999945,523.7538223999945,68,2.643,,,sub-043,105,210,700,bloc_loop.csv,2023-08-23_08h31.49.615,PainUncertainty,2022.2.5,143.95158620256154,
grave,forte,stimuli/330Hz,stimuli/forte,bloc_1,prob20hthp_12trials.xlsx,4,48,20,80,0,,,,,0,0,0,0,1,3,15,3,,,,,,,,4.1,523.7538223999945,527.8532587000009,527.8531370899939,0.30503490001137834,528.2975944999998,528.2975944999998,m,0.4198296000031405,529.874014699999,529.874014699999,69,1.1,,,sub-043,105,210,700,bloc_loop.csv,2023-08-23_08h31.49.615,PainUncertainty,2022.2.5,143.95158620256154,
grave,forte,stimuli/330Hz,stimuli/forte,bloc_1,prob20hthp_12trials.xlsx,4,48,20,80,0,,,,,0,0,0,0,1,4,16,1,,,,,,,,4.3,529.874014699999,534.1734396000029,534.1733742900026,0.30523640000319574,534.6212561999928,534.6212561999928,m,0.4448984999980894,536.968343099994,536.968343099994,68,1.838,,,sub-043,105,210,700,bloc_loop.csv,2023-08-23_08h31.49.615,PainUncertainty,2022.2.5,143.95158620256154,
aigu,forte,stimuli/660Hz,stimuli/forte,bloc_1,prob20hthp_12trials.xlsx,4,48,20,80,0,,,,,0,0,0,0,1,5,17,11,,,,,,,,3.8,536.968343099994,540.7714718999996,540.7713409899945,0.30558109999401495,541.2204240999927,541.2204240999927,m,0.5269370000096387,543.1377744999991,543.1377744999991,69,1.31,,,sub-043,105,210,700,bloc_loop.csv,2023-08-23_08h31.49.615,PainUncertainty,2022.2.5,143.95158620256154,
aigu,moderee,stimuli/660Hz,stimuli/moderee,bloc_1,prob20hthp_12trials.xlsx,4,48,20,80,0,,,,,0,0,0,0,1,6,18,9,,,,,,,,3.7,543.1377744999991,546.8417530999941,546.8415561899958,0.3049479000037536,547.2858643,547.2858643,n,0.570880200008105,549.5276530000046,549.5276530000046,27,1.614,,,sub-043,105,210,700,bloc_loop.csv,2023-08-23_08h31.49.615,PainUncertainty,2022.2.5,143.95158620256154,
grave,moderee,stimuli/330Hz,stimuli/moderee,bloc_1,prob20hthp_12trials.xlsx,4,48,20,80,0,,,,,0,0,0,0,1,7,19,5,,,,,,,,3.9,549.5276530000046,553.4328129999994,553.4325437900036,0.30558519999613054,553.8801217999935,553.8801217999935,n,0.6406453000017791,556.6887258999996,556.6887258999996,26,2.087,,,sub-043,105,210,700,bloc_loop.csv,2023-08-23_08h31.49.615,PainUncertainty,2022.2.5,143.95158620256154,
grave,forte,stimuli/330Hz,stimuli/forte,bloc_1,prob20hthp_12trials.xlsx,4,48,20,80,0,,,,,0,0,0,0,1,8,20,2,,,,,,,,4.3,556.6887258999996,560.9921804999976,560.9905131899934,0.30432670000300277,561.4363818000056,561.4363818000056,m,0.7772900000054506,563.8127225999997,563.8127225999997,62,1.525,,,sub-043,105,210,700,bloc_loop.csv,2023-08-23_08h31.49.615,PainUncertainty,2022.2.5,143.95158620256154,
aigu,moderee,stimuli/660Hz,stimuli/moderee,bloc_1,prob20hthp_12trials.xlsx,4,48,20,80,0,,,,,0,0,0,0,1,9,21,10,,,,,,,,3.8,563.8127225999997,567.6150443000006,567.6148606900017,0.3055114000017056,568.0630479000029,568.0630479000029,n,0.5078764999998384,570.9539306000006,570.9539306000006,25,2.329,,,sub-043,105,210,700,bloc_loop.csv,2023-08-23_08h31.49.615,PainUncertainty,2022.2.5,143.95158620256154,
aigu,moderee,stimuli/660Hz,stimuli/moderee,bloc_1,prob20hthp_12trials.xlsx,4,48,20,80,0,,,,,0,0,0,0,1,10,22,7,,,,,,,,3.7,570.9539306000006,574.6580382000029,574.6577460899928,0.305294399993727,575.1022828999921,575.1022828999921,n,0.36967900001764065,578.1934159000011,578.1934159000011,26,2.642,,,sub-043,105,210,700,bloc_loop.csv,2023-08-23_08h31.49.615,PainUncertainty,2022.2.5,143.95158620256154,
grave,forte,stimuli/330Hz,stimuli/forte,bloc_1,prob20hthp_12trials.xlsx,4,48,20,80,0,,,,,0,0,0,0,1,11,23,4,,,,,,,,4.7,578.1934159000011,582.8951117000033,582.8949900899963,0.3050109000032535,583.3437903999948,583.3437903999948,m,0.42417949999071425,585.5600835000005,585.5600835000005,66,1.714,,,sub-043,105,210,700,bloc_loop.csv,2023-08-23_08h31.49.615,PainUncertainty,2022.2.5,143.95158620256154,
aigu,moderee,stimuli/660Hz,stimuli/moderee,bloc_1,prob20hthp_12trials.xlsx,4,48,20,80,0,,,,,0,0,0,0,2,0,24,8,,,,,,,,4.5,585.5600835000005,590.0642284999994,590.0623411899935,0.3057478999980958,590.5112849999932,590.5112849999932,n,0.4732053999978234,593.1820540999979,593.1820540999979,23,2.122,,,sub-043,105,210,700,bloc_loop.csv,2023-08-23_08h31.49.615,PainUncertainty,2022.2.5,143.95158620256154,
aigu,forte,stimuli/660Hz,stimuli/forte,bloc_1,prob20hthp_12trials.xlsx,4,48,20,80,0,,,,,0,0,0,0,2,1,25,11,,,,,,,,3,593.1820540999979,596.1814754000006,596.1812964899939,0.306247299988172,596.6329759,596.6329759,m,0.43427150001662085,599.1075073000029,599.1075073000029,66,1.983,,,sub-043,105,210,700,bloc_loop.csv,2023-08-23_08h31.49.615,PainUncertainty,2022.2.5,143.95158620256154,
grave,forte,stimuli/330Hz,stimuli/forte,bloc_1,prob20hthp_12trials.xlsx,4,48,20,80,0,,,,,0,0,0,0,2,2,26,0,,,,,,,,3.5,599.1075073000029,602.6123946999942,602.612313390003,0.3052820000011707,603.0610548000041,603.0610548000041,m,0.4764382000066689,605.5643936000051,605.5643936000051,69,1.954,,,sub-043,105,210,700,bloc_loop.csv,2023-08-23_08h31.49.615,PainUncertainty,2022.2.5,143.95158620256154,
aigu,moderee,stimuli/660Hz,stimuli/moderee,bloc_1,prob20hthp_12trials.xlsx,4,48,20,80,0,,,,,0,0,0,0,2,3,27,10,,,,,,,,4.5,605.5643936000051,610.0649797000005,610.0649409899991,0.3048447000037413,610.5092306999941,610.5092306999941,n,0.4526153999977396,612.9281454999946,612.9281454999946,25,1.907,,,sub-043,105,210,700,bloc_loop.csv,2023-08-23_08h31.49.615,PainUncertainty,2022.2.5,143.95158620256154,
aigu,moderee,stimuli/660Hz,stimuli/moderee,bloc_1,prob20hthp_12trials.xlsx,4,48,20,80,0,,,,,0,0,0,0,2,4,28,9,,,,,,,,4.9,612.9281454999946,617.8295159000045,617.8293126900019,0.30515609998838045,618.2738441000038,618.2738441000038,n,0.5491458999968017,620.6797282999978,620.6797282999978,26,1.789,,,sub-043,105,210,700,bloc_loop.csv,2023-08-23_08h31.49.615,PainUncertainty,2022.2.5,143.95158620256154,
grave,forte,stimuli/330Hz,stimuli/forte,bloc_1,prob20hthp_12trials.xlsx,4,48,20,80,0,,,,,0,0,0,0,2,5,29,3,,,,,,,,3.6,620.6797282999978,624.281644499999,624.2815819900054,0.3050859000068158,624.7264292999971,624.7264292999971,m,0.3920435000109137,627.5507971999978,627.5507971999978,66,2.351,,,sub-043,105,210,700,bloc_loop.csv,2023-08-23_08h31.49.615,PainUncertainty,2022.2.5,143.95158620256154,
grave,moderee,stimuli/330Hz,stimuli/moderee,bloc_1,prob20hthp_12trials.xlsx,4,48,20,80,0,,,,,0,0,0,0,2,6,30,5,,,,,,,,4.7,627.5507971999978,632.2552966000003,632.2563066899959,0.30397769999399316,632.703211299995,632.703211299995,n,0.5164220000078785,635.2042547999954,635.2042547999954,23,1.914,,,sub-043,105,210,700,bloc_loop.csv,2023-08-23_08h31.49.615,PainUncertainty,2022.2.5,143.95158620256154,
grave,forte,stimuli/330Hz,stimuli/forte,bloc_1,prob20hthp_12trials.xlsx,4,48,20,80,0,,,,,0,0,0,0,2,7,31,2,,,,,,,,3.4,635.2042547999954,638.6098777999941,638.6097659900036,0.30540430000110064,639.0584422000029,639.0584422000029,m,0.30815699999948265,640.9397462999987,640.9397462999987,71,1.502,,,sub-043,105,210,700,bloc_loop.csv,2023-08-23_08h31.49.615,PainUncertainty,2022.2.5,143.95158620256154,
aigu,moderee,stimuli/660Hz,stimuli/moderee,bloc_1,prob20hthp_12trials.xlsx,4,48,20,80,0,,,,,0,0,0,0,2,8,32,7,,,,,,,,4.6,640.9397462999987,645.5415283999973,645.5414339899937,0.30487409999477677,645.9856280000022,645.9856280000022,n,0.43646950000402285,650.847489300002,650.847489300002,24,4.342,,,sub-043,105,210,700,bloc_loop.csv,2023-08-23_08h31.49.615,PainUncertainty,2022.2.5,143.95158620256154,
grave,forte,stimuli/330Hz,stimuli/forte,bloc_1,prob20hthp_12trials.xlsx,4,48,20,80,0,,,,,0,0,0,0,2,9,33,1,,,,,,,,3.5,650.847489300002,654.3478628999947,654.34761869,0.3056032000022242,654.7965636999943,654.7965636999943,m,0.37011499999061925,657.0619351999994,657.0619351999994,71,1.832,,,sub-043,105,210,700,bloc_loop.csv,2023-08-23_08h31.49.615,PainUncertainty,2022.2.5,143.95158620256154,
grave,forte,stimuli/330Hz,stimuli/forte,bloc_1,prob20hthp_12trials.xlsx,4,48,20,80,0,,,,,0,0,0,0,2,10,34,4,,,,,,,,5,657.0619351999994,662.0640331999966,662.0638031899937,0.30512639999506064,662.5083408999999,662.5083408999999,m,0.27537939999456285,663.8700386000055,663.8700386000055,70,1.004,,,sub-043,105,210,700,bloc_loop.csv,2023-08-23_08h31.49.615,PainUncertainty,2022.2.5,143.95158620256154,
aigu,moderee,stimuli/660Hz,stimuli/moderee,bloc_1,prob20hthp_12trials.xlsx,4,48,20,80,0,,,,,0,0,0,0,2,11,35,6,,,,,,,,3.5,663.8700386000055,667.3702562000035,667.3701009900026,0.30553189999773167,667.8188442000028,667.8188442000028,n,0.3498963000092772,669.7811843000018,669.7811843000018,19,1.546,,,sub-043,105,210,700,bloc_loop.csv,2023-08-23_08h31.49.615,PainUncertainty,2022.2.5,143.95158620256154,
grave,forte,stimuli/330Hz,stimuli/forte,bloc_1,prob20hthp_12trials.xlsx,4,48,20,80,0,,,,,0,0,0,0,3,0,36,0,,,,,,,,3,669.7811843000018,672.780731800005,672.7805186899998,0.304791499991552,673.2251461000051,673.2251461000051,m,0.32525090000854107,675.9147255999924,675.9147255999924,73,2.309,,,sub-043,105,210,700,bloc_loop.csv,2023-08-23_08h31.49.615,PainUncertainty,2022.2.5,143.95158620256154,
aigu,forte,stimuli/660Hz,stimuli/forte,bloc_1,prob20hthp_12trials.xlsx,4,48,20,80,0,,,,,0,0,0,0,3,1,37,11,,,,,,,,4.8,675.9147255999924,680.719061799995,680.7189087899962,0.3052548999985447,681.1632940000054,681.1632940000054,m,0.7668072000014945,684.3218277000051,684.3218277000051,71,2.316,,,sub-043,105,210,700,bloc_loop.csv,2023-08-23_08h31.49.615,PainUncertainty,2022.2.5,143.95158620256154,
aigu,moderee,stimuli/660Hz,stimuli/moderee,bloc_1,prob20hthp_12trials.xlsx,4,48,20,80,0,,,,,0,0,0,0,3,2,38,7,,,,,,,,4.8,684.3218277000051,689.123360199992,689.1230565899962,0.3053293999982998,689.5709293000036,689.5709293000036,n,0.6075047999984236,692.8686768999978,692.8686768999978,23,2.636,,,sub-043,105,210,700,bloc_loop.csv,2023-08-23_08h31.49.615,PainUncertainty,2022.2.5,143.95158620256154,
grave,moderee,stimuli/330Hz,stimuli/moderee,bloc_1,prob20hthp_12trials.xlsx,4,48,20,80,0,,,,,0,0,0,0,3,3,39,5,,,,,,,,3.2,692.8686768999978,696.0681930999926,696.0681491899952,0.30490800000552554,696.5124610999992,696.5124610999992,n,0.8776731000034488,699.0070672999937,699.0070672999937,22,1.535,,,sub-043,105,210,700,bloc_loop.csv,2023-08-23_08h31.49.615,PainUncertainty,2022.2.5,143.95158620256154,
grave,forte,stimuli/330Hz,stimuli/forte,bloc_1,prob20hthp_12trials.xlsx,4,48,20,80,0,,,,,0,0,0,0,3,4,40,1,,,,,,,,3.4,699.0070672999937,702.4094969999933,702.4092723900023,0.30486659999587573,702.8575644000011,702.8575644000011,m,0.38623130000632955,705.6691209999917,705.6691209999917,73,2.358,,,sub-043,105,210,700,bloc_loop.csv,2023-08-23_08h31.49.615,PainUncertainty,2022.2.5,143.95158620256154,
grave,forte,stimuli/330Hz,stimuli/forte,bloc_1,prob20hthp_12trials.xlsx,4,48,20,80,0,,,,,0,0,0,0,3,5,41,3,,,,,,,,3.6,705.6691209999917,709.2713066999931,709.2713975900035,0.3047035999916261,709.7158411000055,709.7158411000055,m,0.3333093000037479,713.4193102999925,713.4193102999925,73,3.29,,,sub-043,105,210,700,bloc_loop.csv,2023-08-23_08h31.49.615,PainUncertainty,2022.2.5,143.95158620256154,
aigu,moderee,stimuli/660Hz,stimuli/moderee,bloc_1,prob20hthp_12trials.xlsx,4,48,20,80,0,,,,,0,0,0,0,3,6,42,6,,,,,,,,3.2,713.4193102999925,716.6193953999973,716.6191620899983,0.3049050999979954,717.0637254999965,717.0637254999965,n,0.32640150000952417,720.3225710000042,720.3225710000042,25,2.858,,,sub-043,105,210,700,bloc_loop.csv,2023-08-23_08h31.49.615,PainUncertainty,2022.2.5,143.95158620256154,
grave,forte,stimuli/330Hz,stimuli/forte,bloc_1,prob20hthp_12trials.xlsx,4,48,20,80,0,,,,,0,0,0,0,3,7,43,2,,,,,,,,3.2,720.3225710000042,723.5237491999942,723.5234694900057,0.3044979999976931,723.9674438000002,723.9674438000002,m,0.35417210000014165,726.4095575000028,726.4095575000028,72,2.017,,,sub-043,105,210,700,bloc_loop.csv,2023-08-23_08h31.49.615,PainUncertainty,2022.2.5,143.95158620256154,
aigu,moderee,stimuli/660Hz,stimuli/moderee,bloc_1,prob20hthp_12trials.xlsx,4,48,20,80,0,,,,,0,0,0,0,3,8,44,8,,,,,,,,3.2,726.4095575000028,729.6141032999949,729.6139320900031,0.3050871999876108,730.0582986000009,730.0582986000009,n,0.34433290000743,733.6311541999967,733.6311541999967,23,3.157,,,sub-043,105,210,700,bloc_loop.csv,2023-08-23_08h31.49.615,PainUncertainty,2022.2.5,143.95158620256154,
grave,forte,stimuli/330Hz,stimuli/forte,bloc_1,prob20hthp_12trials.xlsx,4,48,20,80,0,,,,,0,0,0,0,3,9,45,4,,,,,,,,3.2,733.6311541999967,736.8304782999985,736.8302322900047,0.3052414999983739,737.2766654999941,737.2766654999941,m,0.33212210000056075,738.887639200002,738.887639200002,74,1.198,,,sub-043,105,210,700,bloc_loop.csv,2023-08-23_08h31.49.615,PainUncertainty,2022.2.5,143.95158620256154,
aigu,moderee,stimuli/660Hz,stimuli/moderee,bloc_1,prob20hthp_12trials.xlsx,4,48,20,80,0,,,,,0,0,0,0,3,10,46,9,,,,,,,,3.8,738.887639200002,742.6920517000035,742.6917483899954,0.30520859999523964,743.136162799994,743.136162799994,n,0.34355450000293786,746.1256203000012,746.1256203000012,23,2.588,,,sub-043,105,210,700,bloc_loop.csv,2023-08-23_08h31.49.615,PainUncertainty,2022.2.5,143.95158620256154,
aigu,moderee,stimuli/660Hz,stimuli/moderee,bloc_1,prob20hthp_12trials.xlsx,4,48,20,80,0,,,,,0,0,0,0,3,11,47,10,,,,,,,,3.9,746.1256203000012,750.0261558999991,750.0261288899994,0.3050537999952212,750.4704466000039,750.4704466000039,n,0.495287300007476,752.8214532000056,752.8214532000056,24,1.775,,,sub-043,105,210,700,bloc_loop.csv,2023-08-23_08h31.49.615,PainUncertainty,2022.2.5,143.95158620256154,
aigu,forte,stimuli/660Hz,stimuli/forte,bloc_2,prob50_50_4trials.xlsx,2,8,50,50,1,,,,,0,1,1,1,0,0,0,3,,,,,,,,4.1,752.8214532000056,756.9232230999987,756.9230165900001,0.30527490000531543,757.3692385999966,757.3692385999966,m,0.7019660000005388,760.9708434999993,760.9708434999993,70,2.83,,,sub-043,105,210,700,bloc_loop.csv,2023-08-23_08h31.49.615,PainUncertainty,2022.2.5,143.95158620256154,
grave,forte,stimuli/330Hz,stimuli/forte,bloc_2,prob50_50_4trials.xlsx,2,8,50,50,1,,,,,0,1,1,1,0,1,1,1,,,,,,,,5,760.9708434999993,765.972554800006,765.9724858899929,0.3050209999928484,766.4168094999986,766.4168094999986,m,0.2909153000146034,768.3204127999998,768.3204127999998,70,1.545,,,sub-043,105,210,700,bloc_loop.csv,2023-08-23_08h31.49.615,PainUncertainty,2022.2.5,143.95158620256154,
aigu,moderee,stimuli/660Hz,stimuli/moderee,bloc_2,prob50_50_4trials.xlsx,2,8,50,50,1,,,,,0,1,1,1,0,2,2,2,,,,,,,,3.3,768.3204127999998,771.626104899995,771.6259739900045,0.3048397000093246,772.0707471999995,772.0707471999995,n,0.5676249000025564,775.6686835999935,775.6686835999935,24,2.977,,,sub-043,105,210,700,bloc_loop.csv,2023-08-23_08h31.49.615,PainUncertainty,2022.2.5,143.95158620256154,
grave,moderee,stimuli/330Hz,stimuli/moderee,bloc_2,prob50_50_4trials.xlsx,2,8,50,50,1,,,,,0,1,1,1,0,3,3,0,,,,,,,,3.1,775.6686835999935,778.7726898000037,778.7726202900005,0.304890899991733,779.2170142000032,779.2170142000032,n,0.5397701999972924,783.0827854000017,783.0827854000017,23,3.268,,,sub-043,105,210,700,bloc_loop.csv,2023-08-23_08h31.49.615,PainUncertainty,2022.2.5,143.95158620256154,
grave,moderee,stimuli/330Hz,stimuli/moderee,bloc_2,prob50_50_4trials.xlsx,2,8,50,50,1,,,,,0,1,1,1,1,0,4,0,,,,,,,,4.5,783.0827854000017,787.5862660000057,787.5863019900055,0.30092290000175126,788.0307447000014,788.0307447000014,n,0.6973888000138686,790.6109343999924,790.6109343999924,25,1.802,,,sub-043,105,210,700,bloc_loop.csv,2023-08-23_08h31.49.615,PainUncertainty,2022.2.5,143.95158620256154,
aigu,forte,stimuli/660Hz,stimuli/forte,bloc_2,prob50_50_4trials.xlsx,2,8,50,50,1,,,,,0,1,1,1,1,1,5,3,,,,,,,,4.6,790.6109343999924,795.2127002999987,795.2125034900012,0.30512599999201484,795.6601101000051,795.6601101000051,m,0.8375692000045092,799.073679000001,799.073679000001,68,2.427,,,sub-043,105,210,700,bloc_loop.csv,2023-08-23_08h31.49.615,PainUncertainty,2022.2.5,143.95158620256154,
aigu,moderee,stimuli/660Hz,stimuli/moderee,bloc_2,prob50_50_4trials.xlsx,2,8,50,50,1,,,,,0,1,1,1,1,2,6,2,,,,,,,,4.4,799.073679000001,803.4771508000049,803.4769654899931,0.3050103000132367,803.9213301000054,803.9213301000054,n,0.5501694000049611,807.084062899994,807.084062899994,26,2.531,,,sub-043,105,210,700,bloc_loop.csv,2023-08-23_08h31.49.615,PainUncertainty,2022.2.5,143.95158620256154,
grave,forte,stimuli/330Hz,stimuli/forte,bloc_2,prob50_50_4trials.xlsx,2,8,50,50,1,,,,,0,1,1,1,1,3,7,1,,,,,,,,3.6,807.084062899994,810.6863061999975,810.6861936900016,0.305079099998693,811.134939699994,811.134939699994,m,0.6863501999978325,816.8400373999975,816.8400373999975,71,2.982,,,sub-043,105,210,700,bloc_loop.csv,2023-08-23_08h31.49.615,PainUncertainty,2022.2.5,143.95158620256154,
,,,,bloc_2,prob50_50_4trials.xlsx,2,8,50,50,1,,,,,0,1,1,1,,,,,0,0,0,0,,,,,,,,,,,,,,,,,816.8400373999975,838.3565509999971,sub-043,105,210,700,bloc_loop.csv,2023-08-23_08h31.49.615,PainUncertainty,2022.2.5,143.95158620256154,
aigu,forte,stimuli/660Hz,stimuli/forte,bloc_3,prob80hthp_12trials.xlsx,2,24,80,20,0,,,,,0,2,2,2,0,0,0,7,,,,,,,,4.6,845.6072787999947,850.2122239999953,850.2117971899927,0.3051149999955669,850.6562281000006,850.6562281000006,m,0.7639452000075835,853.0376583999969,853.0376583999969,73,1.538,,,sub-043,105,210,700,bloc_loop.csv,2023-08-23_08h31.49.615,PainUncertainty,2022.2.5,143.95158620256154,
grave,moderee,stimuli/330Hz,stimuli/moderee,bloc_3,prob80hthp_12trials.xlsx,2,24,80,20,0,,,,,0,2,2,2,0,1,1,0,,,,,,,,5,853.0376583999969,858.0393764999972,858.0392809899997,0.29977129999315366,858.4845089999944,858.4845089999944,n,0.4776365000070655,860.8170749999917,860.8170749999917,27,1.796,,,sub-043,105,210,700,bloc_loop.csv,2023-08-23_08h31.49.615,PainUncertainty,2022.2.5,143.95158620256154,
aigu,moderee,stimuli/660Hz,stimuli/moderee,bloc_3,prob80hthp_12trials.xlsx,2,24,80,20,0,,,,,0,2,2,2,0,2,2,11,,,,,,,,4.3,860.8170749999917,865.1171063000002,865.1168290900016,0.3048666999966372,865.5609463999936,865.5609463999936,n,0.9367650999993202,869.5886603000035,869.5886603000035,29,3.018,,,sub-043,105,210,700,bloc_loop.csv,2023-08-23_08h31.49.615,PainUncertainty,2022.2.5,143.95158620256154,
aigu,forte,stimuli/660Hz,stimuli/forte,bloc_3,prob80hthp_12trials.xlsx,2,24,80,20,0,,,,,0,2,2,2,0,3,3,9,,,,,,,,4.5,869.5886603000035,874.0899666999976,874.0896766900034,0.3070179999922402,874.5417847999997,874.5417847999997,m,0.5672599000026821,878.1543849999944,878.1543849999944,71,2.983,,,sub-043,105,210,700,bloc_loop.csv,2023-08-23_08h31.49.615,PainUncertainty,2022.2.5,143.95158620256154,
grave,forte,stimuli/330Hz,stimuli/forte,bloc_3,prob80hthp_12trials.xlsx,2,24,80,20,0,,,,,0,2,2,2,0,4,4,5,,,,,,,,4.4,878.1543849999944,882.5565796999945,882.5563156899946,0.30471579999721143,883.0006549000027,883.0006549000027,m,0.5304887000020244,886.6721981999945,886.6721981999945,69,3.06,,,sub-043,105,210,700,bloc_loop.csv,2023-08-23_08h31.49.615,PainUncertainty,2022.2.5,143.95158620256154,
grave,moderee,stimuli/330Hz,stimuli/moderee,bloc_3,prob80hthp_12trials.xlsx,2,24,80,20,0,,,,,0,2,2,2,0,5,5,3,,,,,,,,3,886.6721981999945,889.6753918999966,889.6749230899943,0.3052086999960011,890.1265478000059,890.1265478000059,n,0.5822833999918657,892.3262452999988,892.3262452999988,31,1.56,,,sub-043,105,210,700,bloc_loop.csv,2023-08-23_08h31.49.615,PainUncertainty,2022.2.5,143.95158620256154,
grave,moderee,stimuli/330Hz,stimuli/moderee,bloc_3,prob80hthp_12trials.xlsx,2,24,80,20,0,,,,,0,2,2,2,0,6,6,2,,,,,,,,4.9,892.3262452999988,897.2317794000046,897.231596689998,0.3049706000019796,897.6783460999941,897.6783460999941,n,0.6045489000025555,901.3398206999918,901.3398206999918,28,2.976,,,sub-043,105,210,700,bloc_loop.csv,2023-08-23_08h31.49.615,PainUncertainty,2022.2.5,143.95158620256154,
aigu,forte,stimuli/660Hz,stimuli/forte,bloc_3,prob80hthp_12trials.xlsx,2,24,80,20,0,,,,,0,2,2,2,0,7,7,6,,,,,,,,4.7,901.3398206999918,906.0454480999979,906.0462759900031,0.3044357000035234,906.4936520999981,906.4936520999981,m,0.683267699998396,910.3343245999931,910.3343245999931,72,3.106,,,sub-043,105,210,700,bloc_loop.csv,2023-08-23_08h31.49.615,PainUncertainty,2022.2.5,143.95158620256154,
aigu,forte,stimuli/660Hz,stimuli/forte,bloc_3,prob80hthp_12trials.xlsx,2,24,80,20,0,,,,,0,2,2,2,0,8,8,8,,,,,,,,3.4,910.3343245999931,913.7336498000004,913.7335214900006,0.3053346000087913,914.1817838999923,914.1817838999923,m,0.36667720000696136,916.5330043999929,916.5330043999929,70,1.906,,,sub-043,105,210,700,bloc_loop.csv,2023-08-23_08h31.49.615,PainUncertainty,2022.2.5,143.95158620256154,
grave,moderee,stimuli/330Hz,stimuli/moderee,bloc_3,prob80hthp_12trials.xlsx,2,24,80,20,0,,,,,0,2,2,2,0,9,9,1,,,,,,,,4.7,916.5330043999929,921.2354295000041,921.2346954900052,0.3051119000010658,921.6823203000022,921.6823203000022,n,0.5127322999978787,925.3863755999992,925.3863755999992,26,3.123,,,sub-043,105,210,700,bloc_loop.csv,2023-08-23_08h31.49.615,PainUncertainty,2022.2.5,143.95158620256154,
grave,moderee,stimuli/330Hz,stimuli/moderee,bloc_3,prob80hthp_12trials.xlsx,2,24,80,20,0,,,,,0,2,2,2,0,10,10,4,,,,,,,,3.3,925.3863755999992,928.6867208999975,928.6865326899926,0.30125020000559743,929.1316089999964,929.1316089999964,n,0.3625170000086655,932.5618257999959,932.5618257999959,24,2.983,,,sub-043,105,210,700,bloc_loop.csv,2023-08-23_08h31.49.615,PainUncertainty,2022.2.5,143.95158620256154,
aigu,forte,stimuli/660Hz,stimuli/forte,bloc_3,prob80hthp_12trials.xlsx,2,24,80,20,0,,,,,0,2,2,2,0,11,11,10,,,,,,,,3.2,932.5618257999959,935.7640742000003,935.7637789899957,0.2990408000041498,936.2059040999957,936.2059040999957,m,0.23312679999071406,938.1051456000059,938.1051456000059,68,1.58,,,sub-043,105,210,700,bloc_loop.csv,2023-08-23_08h31.49.615,PainUncertainty,2022.2.5,143.95158620256154,
grave,moderee,stimuli/330Hz,stimuli/moderee,bloc_3,prob80hthp_12trials.xlsx,2,24,80,20,0,,,,,0,2,2,2,1,0,12,0,,,,,,,,3.3,938.1051456000059,941.410466399997,941.4102709899955,0.3053671999950893,941.8547136000052,941.8547136000052,n,0.44848739999724785,944.5444785999935,944.5444785999935,24,2.126,,,sub-043,105,210,700,bloc_loop.csv,2023-08-23_08h31.49.615,PainUncertainty,2022.2.5,143.95158620256154,
aigu,forte,stimuli/660Hz,stimuli/forte,bloc_3,prob80hthp_12trials.xlsx,2,24,80,20,0,,,,,0,2,2,2,1,1,13,9,,,,,,,,5,944.5444785999935,949.5505048999985,949.5502202900018,0.30507760000182316,949.9983957000004,949.9983957000004,m,0.3274638000075356,953.2187677999973,953.2187677999973,69,2.838,,,sub-043,105,210,700,bloc_loop.csv,2023-08-23_08h31.49.615,PainUncertainty,2022.2.5,143.95158620256154,
grave,forte,stimuli/330Hz,stimuli/forte,bloc_3,prob80hthp_12trials.xlsx,2,24,80,20,0,,,,,0,2,2,2,1,2,14,5,,,,,,,,3,953.2187677999973,956.2249602000011,956.2246302899941,0.3051203999930294,956.6690254000059,956.6690254000059,m,0.42704760000196984,959.0984551999936,959.0984551999936,73,1.941,,,sub-043,105,210,700,bloc_loop.csv,2023-08-23_08h31.49.615,PainUncertainty,2022.2.5,143.95158620256154,
aigu,forte,stimuli/660Hz,stimuli/forte,bloc_3,prob80hthp_12trials.xlsx,2,24,80,20,0,,,,,0,2,2,2,1,3,15,7,,,,,,,,3.7,959.0984551999936,962.8019821999987,962.8018883899997,0.3050451000017347,963.246221100002,963.246221100002,m,0.45086790000641486,966.2593133999981,966.2593133999981,72,2.496,,,sub-043,105,210,700,bloc_loop.csv,2023-08-23_08h31.49.615,PainUncertainty,2022.2.5,143.95158620256154,
aigu,forte,stimuli/660Hz,stimuli/forte,bloc_3,prob80hthp_12trials.xlsx,2,24,80,20,0,,,,,0,2,2,2,1,4,16,6,,,,,,,,4.9,966.2593133999981,971.1640449000042,971.1639008900013,0.3050922999973409,971.6082710999981,971.6082710999981,m,0.2788822000075015,975.7641178999984,975.7641178999984,73,3.823,,,sub-043,105,210,700,bloc_loop.csv,2023-08-23_08h31.49.615,PainUncertainty,2022.2.5,143.95158620256154,
aigu,forte,stimuli/660Hz,stimuli/forte,bloc_3,prob80hthp_12trials.xlsx,2,24,80,20,0,,,,,0,2,2,2,1,5,17,10,,,,,,,,3,975.7641178999984,978.7691140000024,978.7690824899976,0.30511200000182725,979.2134213000027,979.2134213000027,m,0.29965520000405377,981.5000704000049,981.5000704000049,74,1.905,,,sub-043,105,210,700,bloc_loop.csv,2023-08-23_08h31.49.615,PainUncertainty,2022.2.5,143.95158620256154,
grave,moderee,stimuli/330Hz,stimuli/moderee,bloc_3,prob80hthp_12trials.xlsx,2,24,80,20,0,,,,,0,2,2,2,1,6,18,1,,,,,,,,3.2,981.5000704000049,984.7004831000013,984.7002645899986,0.3052650000026915,985.1453261999923,985.1453261999923,n,0.4502867999908631,987.7820562000052,987.7820562000052,19,2.123,,,sub-043,105,210,700,bloc_loop.csv,2023-08-23_08h31.49.615,PainUncertainty,2022.2.5,143.95158620256154,
aigu,moderee,stimuli/660Hz,stimuli/moderee,bloc_3,prob80hthp_12trials.xlsx,2,24,80,20,0,,,,,0,2,2,2,1,7,19,11,,,,,,,,4.2,987.7820562000052,991.9859840999925,991.9857866900049,0.30517789999430533,992.4301294999968,992.4301294999968,n,0.942848500002583,994.7782374000017,994.7782374000017,22,1.35,,,sub-043,105,210,700,bloc_loop.csv,2023-08-23_08h31.49.615,PainUncertainty,2022.2.5,143.95158620256154,
grave,moderee,stimuli/330Hz,stimuli/moderee,bloc_3,prob80hthp_12trials.xlsx,2,24,80,20,0,,,,,0,2,2,2,1,8,20,4,,,,,,,,4.7,994.7782374000017,999.4799200000052,999.4797806899944,0.3051928999921074,999.9241102000015,999.9241102000015,n,0.7822032999902149,1003.7909053999974,1003.7909053999974,26,3.031,,,sub-043,105,210,700,bloc_loop.csv,2023-08-23_08h31.49.615,PainUncertainty,2022.2.5,143.95158620256154,
grave,moderee,stimuli/330Hz,stimuli/moderee,bloc_3,prob80hthp_12trials.xlsx,2,24,80,20,0,,,,,0,2,2,2,1,9,21,3,,,,,,,,4.2,1003.7909053999974,1007.9951775000009,1007.995042789996,0.30517170000530314,1008.4392709000022,1008.4392709000022,n,0.47709980000945507,1010.5330649000025,1010.5330649000025,29,1.559,,,sub-043,105,210,700,bloc_loop.csv,2023-08-23_08h31.49.615,PainUncertainty,2022.2.5,143.95158620256154,
grave,moderee,stimuli/330Hz,stimuli/moderee,bloc_3,prob80hthp_12trials.xlsx,2,24,80,20,0,,,,,0,2,2,2,1,10,22,2,,,,,,,,4.3,1010.5330649000025,1014.8358742000055,1014.8358216900008,0.30486560000281315,1015.2800715999983,1015.2800715999983,n,0.37450120000721654,1017.0699310999989,1017.0699310999989,28,1.336,,,sub-043,105,210,700,bloc_loop.csv,2023-08-23_08h31.49.615,PainUncertainty,2022.2.5,143.95158620256154,
aigu,forte,stimuli/660Hz,stimuli/forte,bloc_3,prob80hthp_12trials.xlsx,2,24,80,20,0,,,,,0,2,2,2,1,11,23,8,,,,,,,,4.1,1017.0699310999989,1021.1700772999975,1021.1699504899946,0.30515749999904074,1021.6180745999955,1021.6180745999955,m,0.3522301000120933,1023.6675458000027,1023.6675458000027,71,1.629,,,sub-043,105,210,700,bloc_loop.csv,2023-08-23_08h31.49.615,PainUncertainty,2022.2.5,143.95158620256154,
aigu,forte,stimuli/660Hz,stimuli/forte,bloc_4,prob50_50_4trials.xlsx,2,8,50,50,1,,,,,0,3,3,3,0,0,0,3,,,,,,,,3,1023.6675458000027,1026.6706043999948,1026.6705333899947,0.30498509999597445,1027.1149974999935,1027.1149974999935,m,0.38138870000693714,1028.5259638000061,1028.5259638000061,70,0.975,,,sub-043,105,210,700,bloc_loop.csv,2023-08-23_08h31.49.615,PainUncertainty,2022.2.5,143.95158620256154,
grave,forte,stimuli/330Hz,stimuli/forte,bloc_4,prob50_50_4trials.xlsx,2,8,50,50,1,,,,,0,3,3,3,0,1,1,1,,,,,,,,3.9,1028.5259638000061,1032.4286447999984,1032.4284678899924,0.305192600004375,1032.8729007000002,1032.8729007000002,m,1.222823199997947,1036.1804625000004,1036.1804625000004,72,1.998,,,sub-043,105,210,700,bloc_loop.csv,2023-08-23_08h31.49.615,PainUncertainty,2022.2.5,143.95158620256154,
grave,moderee,stimuli/330Hz,stimuli/moderee,bloc_4,prob50_50_4trials.xlsx,2,8,50,50,1,,,,,0,3,3,3,0,2,2,0,,,,,,,,3.6,1036.1804625000004,1039.7837679000004,1039.7836855900016,0.30490289999579545,1040.228425699992,1040.228425699992,n,0.46579720000590896,1042.9367348000014,1042.9367348000014,24,2.181,,,sub-043,105,210,700,bloc_loop.csv,2023-08-23_08h31.49.615,PainUncertainty,2022.2.5,143.95158620256154,
aigu,moderee,stimuli/660Hz,stimuli/moderee,bloc_4,prob50_50_4trials.xlsx,2,8,50,50,1,,,,,0,3,3,3,0,3,3,2,,,,,,,,4.7,1042.9367348000014,1047.6388196999978,1047.639808589992,0.30028280000260565,1048.083587699999,1048.083587699999,n,0.7437777000086498,1051.1525620999964,1051.1525620999964,30,2.253,,,sub-043,105,210,700,bloc_loop.csv,2023-08-23_08h31.49.615,PainUncertainty,2022.2.5,143.95158620256154,
aigu,moderee,stimuli/660Hz,stimuli/moderee,bloc_4,prob50_50_4trials.xlsx,2,8,50,50,1,,,,,0,3,3,3,1,0,4,2,,,,,,,,4.3,1051.1525620999964,1055.4519893000033,1055.4516852900044,0.3053085999999894,1055.8961465999964,1055.8961465999964,n,0.558282899997721,1058.7390187999918,1058.7390187999918,27,2.23,,,sub-043,105,210,700,bloc_loop.csv,2023-08-23_08h31.49.615,PainUncertainty,2022.2.5,143.95158620256154,
grave,moderee,stimuli/330Hz,stimuli/moderee,bloc_4,prob50_50_4trials.xlsx,2,8,50,50,1,,,,,0,3,3,3,1,1,5,0,,,,,,,,4.3,1058.7390187999918,1063.0440766000029,1063.0433815899953,0.3049217000079807,1063.491361600005,1063.491361600005,n,0.8247128000002704,1065.643869200001,1065.643869200001,26,1.251,,,sub-043,105,210,700,bloc_loop.csv,2023-08-23_08h31.49.615,PainUncertainty,2022.2.5,143.95158620256154,
aigu,forte,stimuli/660Hz,stimuli/forte,bloc_4,prob50_50_4trials.xlsx,2,8,50,50,1,,,,,0,3,3,3,1,2,6,3,,,,,,,,3.3,1065.643869200001,1068.947329499999,1068.94731599,0.30099770000379067,1069.3913235,1069.3913235,m,0.4601899999906891,1073.3132194999998,1073.3132194999998,72,3.4,,,sub-043,105,210,700,bloc_loop.csv,2023-08-23_08h31.49.615,PainUncertainty,2022.2.5,143.95158620256154,
grave,forte,stimuli/330Hz,stimuli/forte,bloc_4,prob50_50_4trials.xlsx,2,8,50,50,1,,,,,0,3,3,3,1,3,7,1,,,,,,,,4.9,1073.3132194999998,1078.2185943000004,1078.2184386899964,0.30490829999325797,1078.6627843999959,1078.6627843999959,m,0.4783256000155234,1082.4035783999934,1082.4035783999934,71,1.233,,,sub-043,105,210,700,bloc_loop.csv,2023-08-23_08h31.49.615,PainUncertainty,2022.2.5,143.95158620256154,
,,,,bloc_4,prob50_50_4trials.xlsx,2,8,50,50,1,,,,,0,3,3,3,,,,,0,0,0,0,,,,,,,,,,,,,,,,,1082.4035783999934,1141.0731266000003,sub-043,105,210,700,bloc_loop.csv,2023-08-23_08h31.49.615,PainUncertainty,2022.2.5,143.95158620256154,
grave,forte,stimuli/330Hz,stimuli/forte,bloc_5,prob20hthp_12trials.xlsx,2,24,20,80,0,,,,,0,4,4,4,0,0,0,0,,,,,,,,3.3,1142.4842350000035,1145.7891791999937,1145.7888702900011,0.3050960000109626,1146.2334135000056,1146.2334135000056,m,0.7278092999986256,1149.1615707999954,1149.1615707999954,70,2.142,,,sub-043,105,210,700,bloc_loop.csv,2023-08-23_08h31.49.615,PainUncertainty,2022.2.5,143.95158620256154,
grave,forte,stimuli/330Hz,stimuli/forte,bloc_5,prob20hthp_12trials.xlsx,2,24,20,80,0,,,,,0,4,4,4,0,1,1,4,,,,,,,,4.4,1149.1615707999954,1153.5607732999997,1153.5605848899934,0.3052151000010781,1154.0050059999994,1154.0050059999994,m,0.6675229000029503,1156.193170000006,1156.193170000006,72,1.455,,,sub-043,105,210,700,bloc_loop.csv,2023-08-23_08h31.49.615,PainUncertainty,2022.2.5,143.95158620256154,
grave,forte,stimuli/330Hz,stimuli/forte,bloc_5,prob20hthp_12trials.xlsx,2,24,20,80,0,,,,,0,4,4,4,0,2,2,3,,,,,,,,4.1,1156.193170000006,1160.2981511000035,1160.2978070900056,0.3048970000090776,1160.7421880999973,1160.7421880999973,m,0.32832239999697777,1162.6805035999932,1162.6805035999932,76,1.538,,,sub-043,105,210,700,bloc_loop.csv,2023-08-23_08h31.49.615,PainUncertainty,2022.2.5,143.95158620256154,
aigu,moderee,stimuli/660Hz,stimuli/moderee,bloc_5,prob20hthp_12trials.xlsx,2,24,20,80,0,,,,,0,4,4,4,0,3,3,10,,,,,,,,4.6,1162.6805035999932,1167.2850687999962,1167.2847920900015,0.30535670000244863,1167.7311188999956,1167.7311188999956,n,0.4802307000136352,1170.541503499997,1170.541503499997,31,2.259,,,sub-043,105,210,700,bloc_loop.csv,2023-08-23_08h31.49.615,PainUncertainty,2022.2.5,143.95158620256154,
grave,forte,stimuli/330Hz,stimuli/forte,bloc_5,prob20hthp_12trials.xlsx,2,24,20,80,0,,,,,0,4,4,4,0,4,4,1,,,,,,,,3.4,1170.541503499997,1173.9463058000038,1173.945410890002,0.3047770999983186,1174.3895106000055,1174.3895106000055,m,0.33392720000847476,1177.0454785999973,1177.0454785999973,73,2.253,,,sub-043,105,210,700,bloc_loop.csv,2023-08-23_08h31.49.615,PainUncertainty,2022.2.5,143.95158620256154,
aigu,moderee,stimuli/660Hz,stimuli/moderee,bloc_5,prob20hthp_12trials.xlsx,2,24,20,80,0,,,,,0,4,4,4,0,5,5,6,,,,,,,,4,1177.0454785999973,1181.0503488000031,1181.0502345899943,0.30465240000921767,1181.498425299993,1181.498425299993,n,0.3246341000121902,1183.131965600005,1183.131965600005,25,1.233,,,sub-043,105,210,700,bloc_loop.csv,2023-08-23_08h31.49.615,PainUncertainty,2022.2.5,143.95158620256154,
grave,forte,stimuli/330Hz,stimuli/forte,bloc_5,prob20hthp_12trials.xlsx,2,24,20,80,0,,,,,0,4,4,4,0,6,6,2,,,,,,,,3.2,1183.131965600005,1186.336179500002,1186.3358968900059,0.30441670000436716,1186.7797215999963,1186.7797215999963,m,0.3074527999924612,1189.1869517999949,1189.1869517999949,73,2.039,,,sub-043,105,210,700,bloc_loop.csv,2023-08-23_08h31.49.615,PainUncertainty,2022.2.5,143.95158620256154,
aigu,forte,stimuli/660Hz,stimuli/forte,bloc_5,prob20hthp_12trials.xlsx,2,24,20,80,0,,,,,0,4,4,4,0,7,7,11,,,,,,,,3.1,1189.1869517999949,1192.2877412000016,1192.2875042900043,0.3053766000084579,1192.7357688999982,1192.7357688999982,m,0.45918200001324294,1195.8530694,1195.8530694,70,2.581,,,sub-043,105,210,700,bloc_loop.csv,2023-08-23_08h31.49.615,PainUncertainty,2022.2.5,143.95158620256154,
aigu,moderee,stimuli/660Hz,stimuli/moderee,bloc_5,prob20hthp_12trials.xlsx,2,24,20,80,0,,,,,0,4,4,4,0,8,8,9,,,,,,,,4.6,1195.8530694,1200.4557186999955,1200.4555797900023,0.3011687000107486,1200.9006378999984,1200.9006378999984,n,0.4086332999941078,1203.104332099996,1203.104332099996,27,1.741,,,sub-043,105,210,700,bloc_loop.csv,2023-08-23_08h31.49.615,PainUncertainty,2022.2.5,143.95158620256154,
aigu,moderee,stimuli/660Hz,stimuli/moderee,bloc_5,prob20hthp_12trials.xlsx,2,24,20,80,0,,,,,0,4,4,4,0,9,9,7,,,,,,,,3.7,1203.104332099996,1206.803923499996,1206.8038813899977,0.30507550000038464,1207.2508804000026,1207.2508804000026,n,0.4912164000052144,1209.7986368000056,1209.7986368000056,27,1.997,,,sub-043,105,210,700,bloc_loop.csv,2023-08-23_08h31.49.615,PainUncertainty,2022.2.5,143.95158620256154,
grave,moderee,stimuli/330Hz,stimuli/moderee,bloc_5,prob20hthp_12trials.xlsx,2,24,20,80,0,,,,,0,4,4,4,0,10,10,5,,,,,,,,4,1209.7986368000056,1213.803980299992,1213.8038258899971,0.3051173999992898,1214.2505737999963,1214.2505737999963,n,0.5468899999905261,1217.197198899994,1217.197198899994,25,2.344,,,sub-043,105,210,700,bloc_loop.csv,2023-08-23_08h31.49.615,PainUncertainty,2022.2.5,143.95158620256154,
aigu,moderee,stimuli/660Hz,stimuli/moderee,bloc_5,prob20hthp_12trials.xlsx,2,24,20,80,0,,,,,0,4,4,4,0,11,11,8,,,,,,,,4.7,1217.197198899994,1221.9022049999985,1221.902215989997,0.3046691000054125,1222.346385299992,1222.346385299992,n,0.5712015999961295,1224.9797796999992,1224.9797796999992,30,1.984,,,sub-043,105,210,700,bloc_loop.csv,2023-08-23_08h31.49.615,PainUncertainty,2022.2.5,143.95158620256154,
grave,forte,stimuli/330Hz,stimuli/forte,bloc_5,prob20hthp_12trials.xlsx,2,24,20,80,0,,,,,0,4,4,4,1,0,12,2,,,,,,,,4.6,1224.9797796999992,1229.5837181000024,1229.5835468899961,0.29985859998851083,1230.0281413999983,1230.0281413999983,m,0.5498480000169366,1231.8196300000054,1231.8196300000054,73,1.171,,,sub-043,105,210,700,bloc_loop.csv,2023-08-23_08h31.49.615,PainUncertainty,2022.2.5,143.95158620256154,
aigu,moderee,stimuli/660Hz,stimuli/moderee,bloc_5,prob20hthp_12trials.xlsx,2,24,20,80,0,,,,,0,4,4,4,1,1,13,8,,,,,,,,3.2,1231.8196300000054,1235.021945099994,1235.021765689998,0.3049208999873372,1235.4659759999995,1235.4659759999995,n,0.3735992000074475,1239.2309625999987,1239.2309625999987,27,3.337,,,sub-043,105,210,700,bloc_loop.csv,2023-08-23_08h31.49.615,PainUncertainty,2022.2.5,143.95158620256154,
aigu,moderee,stimuli/660Hz,stimuli/moderee,bloc_5,prob20hthp_12trials.xlsx,2,24,20,80,0,,,,,0,4,4,4,1,2,14,6,,,,,,,,4.1,1239.2309625999987,1243.3353422,1243.3352478899972,0.3013683999888599,1243.7800688000061,1243.7800688000061,n,0.372265600009996,1246.2624106999938,1246.2624106999938,26,2.045,,,sub-043,105,210,700,bloc_loop.csv,2023-08-23_08h31.49.615,PainUncertainty,2022.2.5,143.95158620256154,
aigu,moderee,stimuli/660Hz,stimuli/moderee,bloc_5,prob20hthp_12trials.xlsx,2,24,20,80,0,,,,,0,4,4,4,1,3,15,9,,,,,,,,3.7,1246.2624106999938,1249.9681662000003,1249.9679419899978,0.2994308000052115,1250.4109633999979,1250.4109633999979,n,0.35453839999536285,1254.0443472999978,1254.0443472999978,26,3.213,,,sub-043,105,210,700,bloc_loop.csv,2023-08-23_08h31.49.615,PainUncertainty,2022.2.5,143.95158620256154,
grave,forte,stimuli/330Hz,stimuli/forte,bloc_5,prob20hthp_12trials.xlsx,2,24,20,80,0,,,,,0,4,4,4,1,4,16,1,,,,,,,,4.5,1254.0443472999978,1258.5457709999973,1258.545581589998,0.30295519999344833,1258.9916366000034,1258.9916366000034,m,0.32999910000216914,1261.315830200001,1261.315830200001,76,1.914,,,sub-043,105,210,700,bloc_loop.csv,2023-08-23_08h31.49.615,PainUncertainty,2022.2.5,143.95158620256154,
aigu,moderee,stimuli/660Hz,stimuli/moderee,bloc_5,prob20hthp_12trials.xlsx,2,24,20,80,0,,,,,0,4,4,4,1,5,17,10,,,,,,,,3.5,1261.315830200001,1264.8170248000024,1264.8168721899922,0.3053785000083735,1265.261450099999,1265.261450099999,n,0.42140199999994365,1267.7697864000002,1267.7697864000002,25,2.032,,,sub-043,105,210,700,bloc_loop.csv,2023-08-23_08h31.49.615,PainUncertainty,2022.2.5,143.95158620256154,
grave,moderee,stimuli/330Hz,stimuli/moderee,bloc_5,prob20hthp_12trials.xlsx,2,24,20,80,0,,,,,0,4,4,4,1,6,18,5,,,,,,,,4.7,1267.7697864000002,1272.4706580999991,1272.4704176900043,0.3051014000084251,1272.9148802000054,1272.9148802000054,n,0.6462610999951721,1274.8328230999978,1274.8328230999978,28,1.191,,,sub-043,105,210,700,bloc_loop.csv,2023-08-23_08h31.49.615,PainUncertainty,2022.2.5,143.95158620256154,
grave,forte,stimuli/330Hz,stimuli/forte,bloc_5,prob20hthp_12trials.xlsx,2,24,20,80,0,,,,,0,4,4,4,1,7,19,4,,,,,,,,3.9,1274.8328230999978,1278.7358427999934,1278.7357187899972,0.3013855000026524,1279.181452500001,1279.181452500001,m,0.3718321999986074,1280.8546159000034,1280.8546159000034,73,1.24,,,sub-043,105,210,700,bloc_loop.csv,2023-08-23_08h31.49.615,PainUncertainty,2022.2.5,143.95158620256154,
grave,forte,stimuli/330Hz,stimuli/forte,bloc_5,prob20hthp_12trials.xlsx,2,24,20,80,0,,,,,0,4,4,4,1,8,20,0,,,,,,,,3.5,1280.8546159000034,1284.3541895000017,1284.3540933899997,0.3048845000012079,1284.7982799999954,1284.7982799999954,m,0.35372770000685705,1288.5887011999948,1288.5887011999948,72,3.364,,,sub-043,105,210,700,bloc_loop.csv,2023-08-23_08h31.49.615,PainUncertainty,2022.2.5,143.95158620256154,
aigu,moderee,stimuli/660Hz,stimuli/moderee,bloc_5,prob20hthp_12trials.xlsx,2,24,20,80,0,,,,,0,4,4,4,1,9,21,7,,,,,,,,3.8,1288.5887011999948,1292.3925049000027,1292.3902011899984,0.30511840000690427,1292.8384213000027,1292.8384213000027,n,0.3781070000040927,1295.221100799994,1295.221100799994,21,1.928,,,sub-043,105,210,700,bloc_loop.csv,2023-08-23_08h31.49.615,PainUncertainty,2022.2.5,143.95158620256154,
aigu,forte,stimuli/660Hz,stimuli/forte,bloc_5,prob20hthp_12trials.xlsx,2,24,20,80,0,,,,,0,4,4,4,1,10,22,11,,,,,,,,3.5,1295.221100799994,1298.7242394999994,1298.7243579900016,0.3046519000054104,1299.172292700001,1299.172292700001,m,0.9979425999990781,1302.1862637999948,1302.1862637999948,74,1.947,,,sub-043,105,210,700,bloc_loop.csv,2023-08-23_08h31.49.615,PainUncertainty,2022.2.5,143.95158620256154,
grave,forte,stimuli/330Hz,stimuli/forte,bloc_5,prob20hthp_12trials.xlsx,2,24,20,80,0,,,,,0,4,4,4,1,11,23,3,,,,,,,,3.2,1302.1862637999948,1305.3917277999935,1305.3915955899931,0.3047997999965446,1305.8396152999994,1305.8396152999994,m,0.43477379999967525,1308.0017768000034,1308.0017768000034,73,1.672,,,sub-043,105,210,700,bloc_loop.csv,2023-08-23_08h31.49.615,PainUncertainty,2022.2.5,143.95158620256154,
grave,forte,stimuli/330Hz,stimuli/forte,bloc_6,prob50_50_4trials.xlsx,2,8,50,50,0,,,,,0,5,5,5,0,0,0,1,,,,,,,,4.3,1308.0017768000034,1312.301941100006,1312.3018446900016,0.30516760000318754,1312.750443799996,1312.750443799996,m,0.3050411000076565,1315.5127762999982,1315.5127762999982,73,2.379,,,sub-043,105,210,700,bloc_loop.csv,2023-08-23_08h31.49.615,PainUncertainty,2022.2.5,143.95158620256154,
aigu,moderee,stimuli/660Hz,stimuli/moderee,bloc_6,prob50_50_4trials.xlsx,2,8,50,50,0,,,,,0,5,5,5,0,1,1,2,,,,,,,,5,1315.5127762999982,1320.5181967000026,1320.517960089993,0.305136399998446,1320.9624599000017,1320.9624599000017,n,0.39866719999554334,1323.199250800004,1323.199250800004,24,1.76,,,sub-043,105,210,700,bloc_loop.csv,2023-08-23_08h31.49.615,PainUncertainty,2022.2.5,143.95158620256154,
aigu,forte,stimuli/660Hz,stimuli/forte,bloc_6,prob50_50_4trials.xlsx,2,8,50,50,0,,,,,0,5,5,5,0,2,2,3,,,,,,,,4.9,1323.199250800004,1328.1026409999977,1328.1024294900046,0.3051466999895638,1328.5466298000028,1328.5466298000028,m,0.5565657000042847,1333.0736532999945,1333.0736532999945,70,3.886,,,sub-043,105,210,700,bloc_loop.csv,2023-08-23_08h31.49.615,PainUncertainty,2022.2.5,143.95158620256154,
grave,moderee,stimuli/330Hz,stimuli/moderee,bloc_6,prob50_50_4trials.xlsx,2,8,50,50,0,,,,,0,5,5,5,0,3,3,0,,,,,,,,5,1333.0736532999945,1338.0758762999976,1338.075607989994,0.3051000999985263,1338.5199225000033,1338.5199225000033,n,0.7305556999999681,1341.8470795999965,1341.8470795999965,24,2.519,,,sub-043,105,210,700,bloc_loop.csv,2023-08-23_08h31.49.615,PainUncertainty,2022.2.5,143.95158620256154,
aigu,forte,stimuli/660Hz,stimuli/forte,bloc_6,prob50_50_4trials.xlsx,2,8,50,50,0,,,,,0,5,5,5,1,0,4,3,,,,,,,,4.9,1341.8470795999965,1346.750479500006,1346.750133190005,0.305101799996919,1347.1945769999948,1347.1945769999948,m,0.6301270000039949,1349.4355376999956,1349.4355376999956,73,1.49,,,sub-043,105,210,700,bloc_loop.csv,2023-08-23_08h31.49.615,PainUncertainty,2022.2.5,143.95158620256154,
aigu,moderee,stimuli/660Hz,stimuli/moderee,bloc_6,prob50_50_4trials.xlsx,2,8,50,50,0,,,,,0,5,5,5,1,1,5,2,,,,,,,,3.6,1349.4355376999956,1353.0357844000027,1353.035573389999,0.3013768999953754,1353.4804162,1353.4804162,n,0.5687270999987959,1355.1394896999918,1355.1394896999918,28,1.018,,,sub-043,105,210,700,bloc_loop.csv,2023-08-23_08h31.49.615,PainUncertainty,2022.2.5,143.95158620256154,
grave,forte,stimuli/330Hz,stimuli/forte,bloc_6,prob50_50_4trials.xlsx,2,8,50,50,0,,,,,0,5,5,5,1,2,6,1,,,,,,,,3.6,1355.1394896999918,1358.7449713000024,1358.7446803900013,0.30510649998905137,1359.189072000001,1359.189072000001,m,0.4742623999991338,1361.9312685999976,1361.9312685999976,71,2.191,,,sub-043,105,210,700,bloc_loop.csv,2023-08-23_08h31.49.615,PainUncertainty,2022.2.5,143.95158620256154,
grave,moderee,stimuli/330Hz,stimuli/moderee,bloc_6,prob50_50_4trials.xlsx,2,8,50,50,0,,,,,0,5,5,5,1,3,7,0,,,,,,,,4.3,1361.9312685999976,1366.2321662999966,1366.2322359900056,0.3049340999859851,1366.6783792999995,1366.6783792999995,n,0.6747340999936569,1370.0156885999968,1370.0156885999968,28,2.586,,,sub-043,105,210,700,bloc_loop.csv,2023-08-23_08h31.49.615,PainUncertainty,2022.2.5,143.95158620256154,
aigu,forte,stimuli/660Hz,stimuli/forte,bloc_7,prob80hthp_12trials.xlsx,2,24,80,20,1,,,,,0,6,6,6,0,0,0,7,,,,,,,,4.7,1370.0156885999968,1374.7192761999977,1374.719056289999,0.30491360000451095,1375.163095200005,1375.163095200005,m,0.615106499993999,1377.9259487000018,1377.9259487000018,71,2.073,,,sub-043,105,210,700,bloc_loop.csv,2023-08-23_08h31.49.615,PainUncertainty,2022.2.5,143.95158620256154,
grave,moderee,stimuli/330Hz,stimuli/moderee,bloc_7,prob80hthp_12trials.xlsx,2,24,80,20,1,,,,,0,6,6,6,0,1,1,4,,,,,,,,4.2,1377.9259487000018,1382.1298861000032,1382.1298396900013,0.3048724999971455,1382.5777022000038,1382.5777022000038,n,0.6239677000048687,1384.3475255000012,1384.3475255000012,28,1.086,,,sub-043,105,210,700,bloc_loop.csv,2023-08-23_08h31.49.615,PainUncertainty,2022.2.5,143.95158620256154,
grave,moderee,stimuli/330Hz,stimuli/moderee,bloc_7,prob80hthp_12trials.xlsx,2,24,80,20,1,,,,,0,6,6,6,0,2,2,0,,,,,,,,4.6,1384.3475255000012,1388.9502388000037,1388.950289089996,0.3048300999944331,1389.3962597999998,1389.3962597999998,n,0.5880366000128561,1392.5798557000016,1392.5798557000016,30,2.531,,,sub-043,105,210,700,bloc_loop.csv,2023-08-23_08h31.49.615,PainUncertainty,2022.2.5,143.95158620256154,
aigu,moderee,stimuli/660Hz,stimuli/moderee,bloc_7,prob80hthp_12trials.xlsx,2,24,80,20,1,,,,,0,6,6,6,0,3,3,11,,,,,,,,3.1,1392.5798557000016,1395.680225199998,1395.6800329899918,0.30516160000115633,1396.1285411999925,1396.1285411999925,n,0.6108619999940856,1399.3198151000033,1399.3198151000033,27,2.525,,,sub-043,105,210,700,bloc_loop.csv,2023-08-23_08h31.49.615,PainUncertainty,2022.2.5,143.95158620256154,
grave,moderee,stimuli/330Hz,stimuli/moderee,bloc_7,prob80hthp_12trials.xlsx,2,24,80,20,1,,,,,0,6,6,6,0,4,4,1,,,,,,,,3.4,1399.3198151000033,1402.722311700003,1402.7221489900032,0.3050977000093553,1403.1671093999976,1403.1671093999976,n,1.1294605000075535,1405.6490759999942,1405.6490759999942,28,1.275,,,sub-043,105,210,700,bloc_loop.csv,2023-08-23_08h31.49.615,PainUncertainty,2022.2.5,143.95158620256154,
grave,forte,stimuli/330Hz,stimuli/forte,bloc_7,prob80hthp_12trials.xlsx,2,24,80,20,1,,,,,0,6,6,6,0,5,5,5,,,,,,,,4.9,1405.6490759999942,1410.5500116999974,1410.549868289999,0.30494639999233186,1410.9960912000024,1410.9960912000024,m,0.5187759000036749,1413.2684459999946,1413.2684459999946,69,1.707,,,sub-043,105,210,700,bloc_loop.csv,2023-08-23_08h31.49.615,PainUncertainty,2022.2.5,143.95158620256154,
aigu,forte,stimuli/660Hz,stimuli/forte,bloc_7,prob80hthp_12trials.xlsx,2,24,80,20,1,,,,,0,6,6,6,0,6,6,6,,,,,,,,3.2,1413.2684459999946,1416.4738788000031,1416.4737361899963,0.30514620000030845,1416.9180707999985,1416.9180707999985,m,0.5386899999939487,1418.8628118999986,1418.8628118999986,69,1.323,,,sub-043,105,210,700,bloc_loop.csv,2023-08-23_08h31.49.615,PainUncertainty,2022.2.5,143.95158620256154,
grave,moderee,stimuli/330Hz,stimuli/moderee,bloc_7,prob80hthp_12trials.xlsx,2,24,80,20,1,,,,,0,6,6,6,0,7,7,3,,,,,,,,4.5,1418.8628118999986,1423.3636335999981,1423.3634694900022,0.305098500000895,1423.807898799998,1423.807898799998,n,0.5395876000038697,1425.6376256000003,1425.6376256000003,31,1.219,,,sub-043,105,210,700,bloc_loop.csv,2023-08-23_08h31.49.615,PainUncertainty,2022.2.5,143.95158620256154,
aigu,forte,stimuli/660Hz,stimuli/forte,bloc_7,prob80hthp_12trials.xlsx,2,24,80,20,1,,,,,0,6,6,6,0,8,8,9,,,,,,,,4.8,1425.6376256000003,1430.4411579999942,1430.4409488900048,0.3051142000040272,1430.8891748999959,1430.8891748999959,m,0.33476280001195846,1433.387919599998,1433.387919599998,67,2.087,,,sub-043,105,210,700,bloc_loop.csv,2023-08-23_08h31.49.615,PainUncertainty,2022.2.5,143.95158620256154,
grave,moderee,stimuli/330Hz,stimuli/moderee,bloc_7,prob80hthp_12trials.xlsx,2,24,80,20,1,,,,,0,6,6,6,0,9,9,2,,,,,,,,4.7,1433.387919599998,1438.0883869000027,1438.0878008899956,0.30022119999921415,1438.532051299997,1438.532051299997,n,0.5153580999976839,1441.8237835999971,1441.8237835999971,30,2.697,,,sub-043,105,210,700,bloc_loop.csv,2023-08-23_08h31.49.615,PainUncertainty,2022.2.5,143.95158620256154,
aigu,forte,stimuli/660Hz,stimuli/forte,bloc_7,prob80hthp_12trials.xlsx,2,24,80,20,1,,,,,0,6,6,6,0,10,10,8,,,,,,,,4.3,1441.8237835999971,1446.123382400001,1446.1231349899965,0.305215300002601,1446.5677001999939,1446.5677001999939,m,0.26671210000495194,1449.6836547000057,1449.6836547000057,68,2.795,,,sub-043,105,210,700,bloc_loop.csv,2023-08-23_08h31.49.615,PainUncertainty,2022.2.5,143.95158620256154,
aigu,forte,stimuli/660Hz,stimuli/forte,bloc_7,prob80hthp_12trials.xlsx,2,24,80,20,1,,,,,0,6,6,6,0,11,11,10,,,,,,,,4.2,1449.6836547000057,1453.8880186999959,1453.8878771899974,0.30533280000963714,1454.3359545000058,1454.3359545000058,m,0.31979600000340724,1456.2196788999936,1456.2196788999936,71,1.504,,,sub-043,105,210,700,bloc_loop.csv,2023-08-23_08h31.49.615,PainUncertainty,2022.2.5,143.95158620256154,
aigu,forte,stimuli/660Hz,stimuli/forte,bloc_7,prob80hthp_12trials.xlsx,2,24,80,20,1,,,,,0,6,6,6,1,0,12,10,,,,,,,,3.2,1456.2196788999936,1459.4234513000047,1459.4232141900059,0.30510949999734294,1459.8676336999997,1459.8676336999997,m,0.2700824000130524,1461.3808024999962,1461.3808024999962,73,1.177,,,sub-043,105,210,700,bloc_loop.csv,2023-08-23_08h31.49.615,PainUncertainty,2022.2.5,143.95158620256154,
grave,moderee,stimuli/330Hz,stimuli/moderee,bloc_7,prob80hthp_12trials.xlsx,2,24,80,20,1,,,,,0,6,6,6,1,1,13,1,,,,,,,,3.6,1461.3808024999962,1464.9866054999948,1464.9863130899969,0.30529780000506435,1465.4308053000059,1465.4308053000059,n,0.33059980000689393,1467.9979926000015,1467.9979926000015,27,2.165,,,sub-043,105,210,700,bloc_loop.csv,2023-08-23_08h31.49.615,PainUncertainty,2022.2.5,143.95158620256154,
grave,forte,stimuli/330Hz,stimuli/forte,bloc_7,prob80hthp_12trials.xlsx,2,24,80,20,1,,,,,0,6,6,6,1,2,14,5,,,,,,,,3.5,1467.9979926000015,1471.5011905999927,1471.5010453899952,0.3052406999922823,1471.9454106999983,1471.9454106999983,m,0.5611254000032204,1474.338468199996,1474.338468199996,73,1.753,,,sub-043,105,210,700,bloc_loop.csv,2023-08-23_08h31.49.615,PainUncertainty,2022.2.5,143.95158620256154,
aigu,moderee,stimuli/660Hz,stimuli/moderee,bloc_7,prob80hthp_12trials.xlsx,2,24,80,20,1,,,,,0,6,6,6,1,3,15,11,,,,,,,,4.6,1474.338468199996,1478.9395896999995,1478.9395253899922,0.30499360000249,1479.383877799999,1479.383877799999,n,0.7473202000037418,1482.1367640000026,1482.1367640000026,22,1.941,,,sub-043,105,210,700,bloc_loop.csv,2023-08-23_08h31.49.615,PainUncertainty,2022.2.5,143.95158620256154,
grave,moderee,stimuli/330Hz,stimuli/moderee,bloc_7,prob80hthp_12trials.xlsx,2,24,80,20,1,,,,,0,6,6,6,1,4,16,3,,,,,,,,3.2,1482.1367640000026,1485.3366715999946,1485.336468389992,0.30476590000034776,1485.780569500006,1485.780569500006,n,0.7280830000163405,1487.9999970999997,1487.9999970999997,26,1.442,,,sub-043,105,210,700,bloc_loop.csv,2023-08-23_08h31.49.615,PainUncertainty,2022.2.5,143.95158620256154,
grave,moderee,stimuli/330Hz,stimuli/moderee,bloc_7,prob80hthp_12trials.xlsx,2,24,80,20,1,,,,,0,6,6,6,1,5,17,4,,,,,,,,4.7,1487.9999970999997,1492.705279099995,1492.7051198899928,0.30477039999095723,1493.1495187000037,1493.1495187000037,n,0.588842700009991,1494.8569366999945,1494.8569366999945,25,1.045,,,sub-043,105,210,700,bloc_loop.csv,2023-08-23_08h31.49.615,PainUncertainty,2022.2.5,143.95158620256154,
aigu,forte,stimuli/660Hz,stimuli/forte,bloc_7,prob80hthp_12trials.xlsx,2,24,80,20,1,,,,,0,6,6,6,1,6,18,9,,,,,,,,4.1,1494.8569366999945,1498.9628985999952,1498.9626372900013,0.30504709998785984,1499.410968499993,1499.410968499993,m,0.38121730001148535,1501.8243169999987,1501.8243169999987,70,1.955,,,sub-043,105,210,700,bloc_loop.csv,2023-08-23_08h31.49.615,PainUncertainty,2022.2.5,143.95158620256154,
grave,moderee,stimuli/330Hz,stimuli/moderee,bloc_7,prob80hthp_12trials.xlsx,2,24,80,20,1,,,,,0,6,6,6,1,7,19,2,,,,,,,,4.6,1501.8243169999987,1506.4290255000014,1506.428963589998,0.3047668000072008,1506.873297399994,1506.873297399994,n,0.47833010000613285,1509.5253241999962,1509.5253241999962,29,2.102,,,sub-043,105,210,700,bloc_loop.csv,2023-08-23_08h31.49.615,PainUncertainty,2022.2.5,143.95158620256154,
aigu,forte,stimuli/660Hz,stimuli/forte,bloc_7,prob80hthp_12trials.xlsx,2,24,80,20,1,,,,,0,6,6,6,1,8,20,7,,,,,,,,4.5,1509.5253241999962,1514.027523699995,1514.0272086899997,0.30501780001213774,1514.471337300005,1514.471337300005,m,0.7617385999983526,1517.994454199994,1517.994454199994,73,2.677,,,sub-043,105,210,700,bloc_loop.csv,2023-08-23_08h31.49.615,PainUncertainty,2022.2.5,143.95158620256154,
grave,moderee,stimuli/330Hz,stimuli/moderee,bloc_7,prob80hthp_12trials.xlsx,2,24,80,20,1,,,,,0,6,6,6,1,9,21,0,,,,,,,,3,1517.994454199994,1520.9936299000037,1520.9935699900009,0.3052278000104707,1521.4416541000028,1521.4416541000028,n,0.40853280001465464,1525.1686652999997,1525.1686652999997,25,3.246,,,sub-043,105,210,700,bloc_loop.csv,2023-08-23_08h31.49.615,PainUncertainty,2022.2.5,143.95158620256154,
aigu,forte,stimuli/660Hz,stimuli/forte,bloc_7,prob80hthp_12trials.xlsx,2,24,80,20,1,,,,,0,6,6,6,1,10,22,8,,,,,,,,4.1,1525.1686652999997,1529.274245600005,1529.2723242900022,0.30512150000140537,1529.7200257000004,1529.7200257000004,m,0.2911266999944928,1532.5977009999988,1532.5977009999988,73,2.525,,,sub-043,105,210,700,bloc_loop.csv,2023-08-23_08h31.49.615,PainUncertainty,2022.2.5,143.95158620256154,
aigu,forte,stimuli/660Hz,stimuli/forte,bloc_7,prob80hthp_12trials.xlsx,2,24,80,20,1,,,,,0,6,6,6,1,11,23,6,,,,,,,,4,1532.5977009999988,1536.5992607000007,1536.599029590004,0.3050511000037659,1537.043783299996,1537.043783299996,m,0.27306169999792473,1540.8756623000008,1540.8756623000008,68,1.525,,,sub-043,105,210,700,bloc_loop.csv,2023-08-23_08h31.49.615,PainUncertainty,2022.2.5,143.95158620256154,
,,,,bloc_7,prob80hthp_12trials.xlsx,2,24,80,20,1,,,,,0,6,6,6,,,,,0,0,0,0,,,,,,,,,,,,,,,,,1540.8756623000008,1559.8243129999973,sub-043,105,210,700,bloc_loop.csv,2023-08-23_08h31.49.615,PainUncertainty,2022.2.5,143.95158620256154,
grave,moderee,stimuli/330Hz,stimuli/moderee,bloc_8,prob50_50_4trials.xlsx,3,12,50,50,0,,,,,0,7,7,7,0,0,0,0,,,,,,,,4.7,1560.8478326999975,1565.5471826999928,1565.5470882900038,0.30025269999168813,1565.9917413000003,1565.9917413000003,n,0.4093302000037511,1568.2129441999932,1568.2129441999932,24,1.739,,,sub-043,105,210,700,bloc_loop.csv,2023-08-23_08h31.49.615,PainUncertainty,2022.2.5,143.95158620256154,
grave,forte,stimuli/330Hz,stimuli/forte,bloc_8,prob50_50_4trials.xlsx,3,12,50,50,0,,,,,0,7,7,7,0,1,1,1,,,,,,,,4.8,1568.2129441999932,1573.013838299994,1573.0136050899957,0.3009228000009898,1573.4593346999973,1573.4593346999973,m,0.6315790000007837,1575.8690442000006,1575.8690442000006,71,1.691,,,sub-043,105,210,700,bloc_loop.csv,2023-08-23_08h31.49.615,PainUncertainty,2022.2.5,143.95158620256154,
aigu,moderee,stimuli/660Hz,stimuli/moderee,bloc_8,prob50_50_4trials.xlsx,3,12,50,50,0,,,,,0,7,7,7,0,2,2,2,,,,,,,,3.7,1575.8690442000006,1579.569563799996,1579.5695339900042,0.30513979999523144,1580.014193300005,1580.014193300005,n,0.507310500011954,1582.2271163000041,1582.2271163000041,23,1.634,,,sub-043,105,210,700,bloc_loop.csv,2023-08-23_08h31.49.615,PainUncertainty,2022.2.5,143.95158620256154,
aigu,forte,stimuli/660Hz,stimuli/forte,bloc_8,prob50_50_4trials.xlsx,3,12,50,50,0,,,,,0,7,7,7,0,3,3,3,,,,,,,,3.5,1582.2271163000041,1585.7301569000047,1585.7299084899926,0.3051689999992959,1586.1815656000035,1586.1815656000035,m,0.3292074999990291,1589.3046435999931,1589.3046435999931,75,2.74,,,sub-043,105,210,700,bloc_loop.csv,2023-08-23_08h31.49.615,PainUncertainty,2022.2.5,143.95158620256154,
grave,forte,stimuli/330Hz,stimuli/forte,bloc_8,prob50_50_4trials.xlsx,3,12,50,50,0,,,,,0,7,7,7,1,0,4,1,,,,,,,,3.5,1589.3046435999931,1592.8077430000048,1592.8076481899982,0.3046575999906054,1593.2515313999975,1593.2515313999975,m,0.5117914000074961,1595.2648873999933,1595.2648873999933,74,1.428,,,sub-043,105,210,700,bloc_loop.csv,2023-08-23_08h31.49.615,PainUncertainty,2022.2.5,143.95158620256154,
grave,moderee,stimuli/330Hz,stimuli/moderee,bloc_8,prob50_50_4trials.xlsx,3,12,50,50,0,,,,,0,7,7,7,1,1,5,0,,,,,,,,4.8,1595.2648873999933,1600.0667231000043,1600.0653151899962,0.3051315000047907,1600.5133948999937,1600.5133948999937,n,0.6803699000083725,1604.053233999999,1604.053233999999,25,2.795,,,sub-043,105,210,700,bloc_loop.csv,2023-08-23_08h31.49.615,PainUncertainty,2022.2.5,143.95158620256154,
aigu,moderee,stimuli/660Hz,stimuli/moderee,bloc_8,prob50_50_4trials.xlsx,3,12,50,50,0,,,,,0,7,7,7,1,2,6,2,,,,,,,,4,1604.053233999999,1608.0591151000044,1608.0589781899973,0.30494430000544526,1608.5032819999979,1608.5032819999979,n,0.8518311000007088,1611.7548440000028,1611.7548440000028,27,2.316,,,sub-043,105,210,700,bloc_loop.csv,2023-08-23_08h31.49.615,PainUncertainty,2022.2.5,143.95158620256154,
aigu,forte,stimuli/660Hz,stimuli/forte,bloc_8,prob50_50_4trials.xlsx,3,12,50,50,0,,,,,0,7,7,7,1,3,7,3,,,,,,,,3,1611.7548440000028,1614.7547106000056,1614.754649789996,0.3003132000012556,1615.1986588999935,1615.1986588999935,m,0.4838011000028928,1617.4759952999957,1617.4759952999957,72,1.712,,,sub-043,105,210,700,bloc_loop.csv,2023-08-23_08h31.49.615,PainUncertainty,2022.2.5,143.95158620256154,
aigu,moderee,stimuli/660Hz,stimuli/moderee,bloc_8,prob50_50_4trials.xlsx,3,12,50,50,0,,,,,0,7,7,7,2,0,8,2,,,,,,,,5,1617.4759952999957,1622.4775332999925,1622.4772147899996,0.30519110000750516,1622.9215997999927,1622.9215997999927,n,0.7254568000134896,1624.9698448000054,1624.9698448000054,25,1.24,,,sub-043,105,210,700,bloc_loop.csv,2023-08-23_08h31.49.615,PainUncertainty,2022.2.5,143.95158620256154,
grave,forte,stimuli/330Hz,stimuli/forte,bloc_8,prob50_50_4trials.xlsx,3,12,50,50,0,,,,,0,7,7,7,2,1,9,1,,,,,,,,4.4,1624.9698448000054,1629.3744416000045,1629.374222589998,0.30523769999854267,1629.8222126999972,1629.8222126999972,m,0.43118500000127824,1632.0007661999916,1632.0007661999916,76,1.665,,,sub-043,105,210,700,bloc_loop.csv,2023-08-23_08h31.49.615,PainUncertainty,2022.2.5,143.95158620256154,
grave,moderee,stimuli/330Hz,stimuli/moderee,bloc_8,prob50_50_4trials.xlsx,3,12,50,50,0,,,,,0,7,7,7,2,2,10,0,,,,,,,,4.4,1632.0007661999916,1636.4027748000008,1636.4024825900044,0.3051413000066532,1636.8468881999943,1636.8468881999943,n,0.6758945999972639,1638.8711410000033,1638.8711410000033,23,1.268,,,sub-043,105,210,700,bloc_loop.csv,2023-08-23_08h31.49.615,PainUncertainty,2022.2.5,143.95158620256154,
aigu,forte,stimuli/660Hz,stimuli/forte,bloc_8,prob50_50_4trials.xlsx,3,12,50,50,0,,,,,0,7,7,7,2,3,11,3,,,,,,,,3.3,1638.8711410000033,1642.1743319000016,1642.1740671899963,0.3050525999860838,1642.6206234000056,1642.6206234000056,m,0.4579426000054809,1645.5969437999956,1645.5969437999956,76,2.455,,,sub-043,105,210,700,bloc_loop.csv,2023-08-23_08h31.49.615,PainUncertainty,2022.2.5,143.95158620256154,
aigu,forte,stimuli/660Hz,stimuli/forte,bloc_9,prob20hthp_12trials.xlsx,3,36,80,20,0,,,,,0,8,8,8,0,0,0,11,,,,,,,,3.8,1645.5969437999956,1649.397735300001,1649.3976926899988,0.3002905999892391,1649.8421369999924,1649.8421369999924,m,0.41391830001521157,1653.282068499997,1653.282068499997,76,2.948,,,sub-043,105,210,700,bloc_loop.csv,2023-08-23_08h31.49.615,PainUncertainty,2022.2.5,143.95158620256154,
aigu,moderee,stimuli/660Hz,stimuli/moderee,bloc_9,prob20hthp_12trials.xlsx,3,36,80,20,0,,,,,0,8,8,8,0,1,1,8,,,,,,,,3,1653.282068499997,1656.2870689000047,1656.2869347900044,0.3050844999961555,1656.731213900006,1656.731213900006,n,0.6298704000000726,1659.257880199999,1659.257880199999,26,1.846,,,sub-043,105,210,700,bloc_loop.csv,2023-08-23_08h31.49.615,PainUncertainty,2022.2.5,143.95158620256154,
aigu,moderee,stimuli/660Hz,stimuli/moderee,bloc_9,prob20hthp_12trials.xlsx,3,36,80,20,0,,,,,0,8,8,8,0,2,2,7,,,,,,,,3,1659.257880199999,1662.2599193999995,1662.2598338900054,0.3050280999887036,1662.7042169999986,1662.7042169999986,n,0.5916070000166656,1666.4659474,1666.4659474,22,3.095,,,sub-043,105,210,700,bloc_loop.csv,2023-08-23_08h31.49.615,PainUncertainty,2022.2.5,143.95158620256154,
grave,forte,stimuli/330Hz,stimuli/forte,bloc_9,prob20hthp_12trials.xlsx,3,36,80,20,0,,,,,0,8,8,8,0,3,3,2,,,,,,,,4.3,1666.4659474,1670.7682294000042,1670.7681745899965,0.30460129999846686,1671.2122633000035,1671.2122633000035,m,0.5099535000117612,1674.3406015,1674.3406015,72,2.558,,,sub-043,105,210,700,bloc_loop.csv,2023-08-23_08h31.49.615,PainUncertainty,2022.2.5,143.95158620256154,
grave,forte,stimuli/330Hz,stimuli/forte,bloc_9,prob20hthp_12trials.xlsx,3,36,80,20,0,,,,,0,8,8,8,0,4,4,1,,,,,,,,3.1,1674.3406015,1677.4423072999998,1677.442187290005,0.30522610001207795,1677.8866658999978,1677.8866658999978,m,0.3329810999930487,1679.790943699998,1679.790943699998,77,1.504,,,sub-043,105,210,700,bloc_loop.csv,2023-08-23_08h31.49.615,PainUncertainty,2022.2.5,143.95158620256154,
grave,moderee,stimuli/330Hz,stimuli/moderee,bloc_9,prob20hthp_12trials.xlsx,3,36,80,20,0,,,,,0,8,8,8,0,5,5,5,,,,,,,,4.3,1679.790943699998,1684.0959098999956,1684.095800589995,0.3049215000064578,1684.540535,1684.540535,n,0.43045420000999,1686.899572000002,1686.899572000002,24,1.872,,,sub-043,105,210,700,bloc_loop.csv,2023-08-23_08h31.49.615,PainUncertainty,2022.2.5,143.95158620256154,
aigu,moderee,stimuli/660Hz,stimuli/moderee,bloc_9,prob20hthp_12trials.xlsx,3,36,80,20,0,,,,,0,8,8,8,0,6,6,6,,,,,,,,3.9,1686.899572000002,1690.805612300006,1690.8048761900056,0.3055674000061117,1691.2531817000054,1691.2531817000054,n,0.7514186000116752,1693.1813124999971,1693.1813124999971,23,1.108,,,sub-043,105,210,700,bloc_loop.csv,2023-08-23_08h31.49.615,PainUncertainty,2022.2.5,143.95158620256154,
grave,forte,stimuli/330Hz,stimuli/forte,bloc_9,prob20hthp_12trials.xlsx,3,36,80,20,0,,,,,0,8,8,8,0,7,7,4,,,,,,,,4.3,1693.1813124999971,1697.486306999992,1697.4861382900046,0.30502440000418574,1697.930537100001,1697.930537100001,m,0.6231564999980037,1701.457123399996,1701.457123399996,77,2.845,,,sub-043,105,210,700,bloc_loop.csv,2023-08-23_08h31.49.615,PainUncertainty,2022.2.5,143.95158620256154,
grave,forte,stimuli/330Hz,stimuli/forte,bloc_9,prob20hthp_12trials.xlsx,3,36,80,20,0,,,,,0,8,8,8,0,8,8,0,,,,,,,,4.8,1701.457123399996,1706.2583239000014,1706.2580290899998,0.30506069998955354,1706.7023936999976,1706.7023936999976,m,0.43836159999045776,1709.222965400004,1709.222965400004,74,2.017,,,sub-043,105,210,700,bloc_loop.csv,2023-08-23_08h31.49.615,PainUncertainty,2022.2.5,143.95158620256154,
grave,forte,stimuli/330Hz,stimuli/forte,bloc_9,prob20hthp_12trials.xlsx,3,36,80,20,0,,,,,0,8,8,8,0,9,9,3,,,,,,,,3.4,1709.222965400004,1712.6273593000005,1712.627054289994,0.29957449999346863,1713.0677791999988,1713.0677791999988,m,0.5158101000051829,1716.2041756000035,1716.2041756000035,72,2.553,,,sub-043,105,210,700,bloc_loop.csv,2023-08-23_08h31.49.615,PainUncertainty,2022.2.5,143.95158620256154,
aigu,moderee,stimuli/660Hz,stimuli/moderee,bloc_9,prob20hthp_12trials.xlsx,3,36,80,20,0,,,,,0,8,8,8,0,10,10,9,,,,,,,,3.3,1716.2041756000035,1719.5097110999995,1719.5095193899972,0.30525419999321457,1719.9541593999966,1719.9541593999966,n,0.4568719000017154,1722.2451758000025,1722.2451758000025,24,1.777,,,sub-043,105,210,700,bloc_loop.csv,2023-08-23_08h31.49.615,PainUncertainty,2022.2.5,143.95158620256154,
aigu,moderee,stimuli/660Hz,stimuli/moderee,bloc_9,prob20hthp_12trials.xlsx,3,36,80,20,0,,,,,0,8,8,8,0,11,11,10,,,,,,,,3.2,1722.2451758000025,1725.448326299993,1725.4480311900036,0.3068965999991633,1725.9008316000036,1725.9008316000036,n,0.3154422000006889,1727.8043894999937,1727.8043894999937,24,1.532,,,sub-043,105,210,700,bloc_loop.csv,2023-08-23_08h31.49.615,PainUncertainty,2022.2.5,143.95158620256154,
aigu,moderee,stimuli/660Hz,stimuli/moderee,bloc_9,prob20hthp_12trials.xlsx,3,36,80,20,0,,,,,0,8,8,8,1,0,12,6,,,,,,,,4.9,1727.8043894999937,1732.7058265000014,1732.705522690004,0.3049520000058692,1733.1502818999943,1733.1502818999943,n,0.3748503000024357,1735.4286707999927,1735.4286707999927,25,1.836,,,sub-043,105,210,700,bloc_loop.csv,2023-08-23_08h31.49.615,PainUncertainty,2022.2.5,143.95158620256154,
grave,forte,stimuli/330Hz,stimuli/forte,bloc_9,prob20hthp_12trials.xlsx,3,36,80,20,0,,,,,0,8,8,8,1,1,13,4,,,,,,,,3.9,1735.4286707999927,1739.3316328,1739.331228589995,0.3058850999950664,1739.7808010999943,1739.7808010999943,m,0.2782101999982842,1742.0591817000022,1742.0591817000022,72,1.927,,,sub-043,105,210,700,bloc_loop.csv,2023-08-23_08h31.49.615,PainUncertainty,2022.2.5,143.95158620256154,
grave,moderee,stimuli/330Hz,stimuli/moderee,bloc_9,prob20hthp_12trials.xlsx,3,36,80,20,0,,,,,0,8,8,8,1,2,14,5,,,,,,,,3.1,1742.0591817000022,1745.158599800001,1745.1584858899944,0.30504649999784306,1745.6028213000027,1745.6028213000027,n,0.5746604000087245,1749.3753992000056,1749.3753992000056,25,3.143,,,sub-043,105,210,700,bloc_loop.csv,2023-08-23_08h31.49.615,PainUncertainty,2022.2.5,143.95158620256154,
aigu,moderee,stimuli/660Hz,stimuli/moderee,bloc_9,prob20hthp_12trials.xlsx,3,36,80,20,0,,,,,0,8,8,8,1,3,15,10,,,,,,,,3.3,1749.3753992000056,1752.6804493000018,1752.680308489994,0.30521500000031665,1753.1285052999956,1753.1285052999956,n,1.4637177000040538,1756.3117936999988,1756.3117936999988,25,1.663,,,sub-043,105,210,700,bloc_loop.csv,2023-08-23_08h31.49.615,PainUncertainty,2022.2.5,143.95158620256154,
aigu,moderee,stimuli/660Hz,stimuli/moderee,bloc_9,prob20hthp_12trials.xlsx,3,36,80,20,0,,,,,0,8,8,8,1,4,16,9,,,,,,,,4.8,1756.3117936999988,1761.112264400006,1761.1121057899938,0.30503139999927953,1761.5609226000015,1761.5609226000015,n,0.3154685000117752,1763.5983349999951,1763.5983349999951,25,1.65,,,sub-043,105,210,700,bloc_loop.csv,2023-08-23_08h31.49.615,PainUncertainty,2022.2.5,143.95158620256154,
aigu,forte,stimuli/660Hz,stimuli/forte,bloc_9,prob20hthp_12trials.xlsx,3,36,80,20,0,,,,,0,8,8,8,1,5,17,11,,,,,,,,3.4,1763.5983349999951,1767.0014633000028,1767.0013523900045,0.30563139999867417,1767.4505222999942,1767.4505222999942,m,0.4998822000125074,1769.0448648999954,1769.0448648999954,71,1.03,,,sub-043,105,210,700,bloc_loop.csv,2023-08-23_08h31.49.615,PainUncertainty,2022.2.5,143.95158620256154,
grave,forte,stimuli/330Hz,stimuli/forte,bloc_9,prob20hthp_12trials.xlsx,3,36,80,20,0,,,,,0,8,8,8,1,6,18,1,,,,,,,,4.6,1769.0448648999954,1773.6480828999993,1773.6479927899993,0.3051305999979377,1774.0923317000052,1774.0923317000052,m,0.7187574000054155,1777.5960712000015,1777.5960712000015,71,2.706,,,sub-043,105,210,700,bloc_loop.csv,2023-08-23_08h31.49.615,PainUncertainty,2022.2.5,143.95158620256154,
aigu,moderee,stimuli/660Hz,stimuli/moderee,bloc_9,prob20hthp_12trials.xlsx,3,36,80,20,0,,,,,0,8,8,8,1,7,19,8,,,,,,,,4.6,1777.5960712000015,1782.1977041999999,1782.1975291899937,0.3051999000017531,1782.6421459000048,1782.6421459000048,n,0.5187185000031604,1784.4329132000057,1784.4329132000057,26,1.204,,,sub-043,105,210,700,bloc_loop.csv,2023-08-23_08h31.49.615,PainUncertainty,2022.2.5,143.95158620256154,
grave,forte,stimuli/330Hz,stimuli/forte,bloc_9,prob20hthp_12trials.xlsx,3,36,80,20,0,,,,,0,8,8,8,1,8,20,0,,,,,,,,5,1784.4329132000057,1789.4354542,1789.4350626900043,0.3000927999964915,1789.879477500006,1789.879477500006,m,0.3686861000096542,1793.1411332999924,1793.1411332999924,73,2.831,,,sub-043,105,210,700,bloc_loop.csv,2023-08-23_08h31.49.615,PainUncertainty,2022.2.5,143.95158620256154,
grave,forte,stimuli/330Hz,stimuli/forte,bloc_9,prob20hthp_12trials.xlsx,3,36,80,20,0,,,,,0,8,8,8,1,9,21,2,,,,,,,,3.1,1793.1411332999924,1796.241231400003,1796.2410082899944,0.3050739999889629,1796.689847900001,1796.689847900001,m,0.3426578000144218,1799.4532305999965,1799.4532305999965,74,2.365,,,sub-043,105,210,700,bloc_loop.csv,2023-08-23_08h31.49.615,PainUncertainty,2022.2.5,143.95158620256154,
grave,forte,stimuli/330Hz,stimuli/forte,bloc_9,prob20hthp_12trials.xlsx,3,36,80,20,0,,,,,0,8,8,8,1,10,22,3,,,,,,,,3.1,1799.4532305999965,1802.5543376999922,1802.5542919899956,0.3050851000007242,1802.9991197999989,1802.9991197999989,m,0.2896991999950842,1805.685418400004,1805.685418400004,76,2.315,,,sub-043,105,210,700,bloc_loop.csv,2023-08-23_08h31.49.615,PainUncertainty,2022.2.5,143.95158620256154,
aigu,moderee,stimuli/660Hz,stimuli/moderee,bloc_9,prob20hthp_12trials.xlsx,3,36,80,20,0,,,,,0,8,8,8,1,11,23,7,,,,,,,,4.1,1805.685418400004,1809.785034099994,1809.7848547899987,0.3048382999986643,1810.2315208,1810.2315208,n,0.3088546000144561,1812.2030273999917,1812.2030273999917,26,1.607,,,sub-043,105,210,700,bloc_loop.csv,2023-08-23_08h31.49.615,PainUncertainty,2022.2.5,143.95158620256154,
grave,moderee,stimuli/330Hz,stimuli/moderee,bloc_9,prob20hthp_12trials.xlsx,3,36,80,20,0,,,,,0,8,8,8,2,0,24,5,,,,,,,,3.4,1812.2030273999917,1815.6045628999927,1815.604242890003,0.305392700000084,1816.053187999998,1816.053187999998,n,0.5808957000044757,1818.4518344000026,1818.4518344000026,27,1.74,,,sub-043,105,210,700,bloc_loop.csv,2023-08-23_08h31.49.615,PainUncertainty,2022.2.5,143.95158620256154,
grave,forte,stimuli/330Hz,stimuli/forte,bloc_9,prob20hthp_12trials.xlsx,3,36,80,20,0,,,,,0,8,8,8,2,1,25,3,,,,,,,,4.5,1818.4518344000026,1822.9525431000002,1822.9524300900005,0.3056205000029877,1823.4010431999995,1823.4010431999995,m,0.288374699994165,1826.6795827999958,1826.6795827999958,73,2.927,,,sub-043,105,210,700,bloc_loop.csv,2023-08-23_08h31.49.615,PainUncertainty,2022.2.5,143.95158620256154,
grave,forte,stimuli/330Hz,stimuli/forte,bloc_9,prob20hthp_12trials.xlsx,3,36,80,20,0,,,,,0,8,8,8,2,2,26,0,,,,,,,,4.3,1826.6795827999958,1830.981756400004,1830.9814839899984,0.30521829999634065,1831.429217200006,1831.429217200006,m,0.2888980000061565,1833.4080418000012,1833.4080418000012,74,1.622,,,sub-043,105,210,700,bloc_loop.csv,2023-08-23_08h31.49.615,PainUncertainty,2022.2.5,143.95158620256154,
aigu,moderee,stimuli/660Hz,stimuli/moderee,bloc_9,prob20hthp_12trials.xlsx,3,36,80,20,0,,,,,0,8,8,8,2,3,27,8,,,,,,,,4,1833.4080418000012,1837.4127006999988,1837.4125101900056,0.3049394999979995,1837.8590710999924,1837.8590710999924,n,0.5890371000059531,1840.2952595000024,1840.2952595000024,27,1.768,,,sub-043,105,210,700,bloc_loop.csv,2023-08-23_08h31.49.615,PainUncertainty,2022.2.5,143.95158620256154,
grave,forte,stimuli/330Hz,stimuli/forte,bloc_9,prob20hthp_12trials.xlsx,3,36,80,20,0,,,,,0,8,8,8,2,4,28,2,,,,,,,,4.9,1840.2952595000024,1845.1982287999926,1845.19809379,0.30518640000082087,1845.6426276000057,1845.6426276000057,m,0.3003731999997399,1847.1810017000025,1847.1810017000025,71,1.177,,,sub-043,105,210,700,bloc_loop.csv,2023-08-23_08h31.49.615,PainUncertainty,2022.2.5,143.95158620256154,
grave,forte,stimuli/330Hz,stimuli/forte,bloc_9,prob20hthp_12trials.xlsx,3,36,80,20,0,,,,,0,8,8,8,2,5,29,4,,,,,,,,4.2,1847.1810017000025,1851.386487399992,1851.386362889992,0.30489509999461006,1851.830680799998,1851.830680799998,m,0.30619430001388537,1855.1845771000008,1855.1845771000008,77,2.997,,,sub-043,105,210,700,bloc_loop.csv,2023-08-23_08h31.49.615,PainUncertainty,2022.2.5,143.95158620256154,
grave,forte,stimuli/330Hz,stimuli/forte,bloc_9,prob20hthp_12trials.xlsx,3,36,80,20,0,,,,,0,8,8,8,2,6,30,1,,,,,,,,3.2,1855.1845771000008,1858.387661199995,1858.387485489998,0.30091819999506697,1858.8319252000001,1858.8319252000001,m,0.35947859999578213,1860.6524722999966,1860.6524722999966,76,1.386,,,sub-043,105,210,700,bloc_loop.csv,2023-08-23_08h31.49.615,PainUncertainty,2022.2.5,143.95158620256154,
aigu,moderee,stimuli/660Hz,stimuli/moderee,bloc_9,prob20hthp_12trials.xlsx,3,36,80,20,0,,,,,0,8,8,8,2,7,31,6,,,,,,,,3.5,1860.6524722999966,1864.1519422999918,1864.1517644899934,0.30530620001081843,1864.5967103999938,1864.5967103999938,n,0.31006590001197765,1867.2178294999976,1867.2178294999976,23,2.24,,,sub-043,105,210,700,bloc_loop.csv,2023-08-23_08h31.49.615,PainUncertainty,2022.2.5,143.95158620256154,
aigu,forte,stimuli/660Hz,stimuli/forte,bloc_9,prob20hthp_12trials.xlsx,3,36,80,20,0,,,,,0,8,8,8,2,8,32,11,,,,,,,,4,1867.2178294999976,1871.2222830000028,1871.222089189999,0.3048465000028955,1871.6671768000015,1871.6671768000015,m,0.44059700000070734,1874.9983100000027,1874.9983100000027,75,2.818,,,sub-043,105,210,700,bloc_loop.csv,2023-08-23_08h31.49.615,PainUncertainty,2022.2.5,143.95158620256154,
aigu,moderee,stimuli/660Hz,stimuli/moderee,bloc_9,prob20hthp_12trials.xlsx,3,36,80,20,0,,,,,0,8,8,8,2,9,33,7,,,,,,,,3.8,1874.9983100000027,1878.7994801999957,1878.7992342900027,0.30521379999117926,1879.243651699995,1879.243651699995,n,0.37093699999240926,1881.4528742000039,1881.4528742000039,22,1.782,,,sub-043,105,210,700,bloc_loop.csv,2023-08-23_08h31.49.615,PainUncertainty,2022.2.5,143.95158620256154,
aigu,moderee,stimuli/660Hz,stimuli/moderee,bloc_9,prob20hthp_12trials.xlsx,3,36,80,20,0,,,,,0,8,8,8,2,10,34,10,,,,,,,,3.9,1881.4528742000039,1885.3559263999996,1885.3562110900014,0.30449539999244735,1885.8002214999942,1885.8002214999942,n,0.33911960000841646,1887.5091370999944,1887.5091370999944,20,1.316,,,sub-043,105,210,700,bloc_loop.csv,2023-08-23_08h31.49.615,PainUncertainty,2022.2.5,143.95158620256154,
aigu,moderee,stimuli/660Hz,stimuli/moderee,bloc_9,prob20hthp_12trials.xlsx,3,36,80,20,0,,,,,0,8,8,8,2,11,35,9,,,,,,,,3.6,1887.5091370999944,1891.1146674999982,1891.1136042899955,0.30494449999241624,1891.5575050999978,1891.5575050999978,n,0.2938988000023528,1895.1954793999976,1895.1954793999976,24,3.316,,,sub-043,105,210,700,bloc_loop.csv,2023-08-23_08h31.49.615,PainUncertainty,2022.2.5,143.95158620256154,
