cue_,stimulus_,cue_fichier,stimulus_fichier,block_name,block_trials_file,block_n_reps,block_ntrials,block_prob_highP_highT,block_prob_highP_lowT,block_pause_after,Bloc_essai.thisRepN,Bloc_essai.thisTrialN,Bloc_essai.thisN,Bloc_essai.thisIndex,blocks.thisRepN,blocks.thisTrialN,blocks.thisN,blocks.thisIndex,trials.thisRepN,trials.thisTrialN,trials.thisN,trials.thisIndex,pause_loop.thisRepN,pause_loop.thisTrialN,pause_loop.thisN,pause_loop.thisIndex,key_resp_5.started,start_calib.started,key_resp_2.started,ISI_duration,pause.started,pause.stopped,cue.started,ISI.started,choice_pain.started,Choice.started,choice_pain.keys,choice_pain.rt,main_text.started,confirm_text.started,ratingScale.response,ratingScale.rt,key_resp_3.started,key_resp_6.started,participant,low_ma,high_ma,failsafe_ma,block_file,date,expName,psychopyVersion,frameRate,
grave,forte,stimuli/330Hz,stimuli/forte,,,,,,,,0,0,0,1,,,,,,,,,,,,,24.61071730000549,194.69121730000188,305.57955100000254,3.6,308.1975250000105,311.8097221000062,311.80941042001064,0.30620859999908134,312.25179440001375,312.25179440001375,m,0.9946802999911597,317.1079957000038,317.1079957000038,58,3.77,,,sub-056,20,45,700,bloc_loop.csv,2023-10-04_18h25.33.813,PainUncertainty,2022.2.5,144.14726085210435,
aigu,moderee,stimuli/660Hz,stimuli/moderee,,,,,,,,0,1,1,2,,,,,,,,,,,,,,,,3.5,317.1079957000038,320.6129604000016,320.61638762001235,0.30166249998728745,321.0545956000133,321.0545956000133,n,0.9225313999777427,323.9612007000105,323.9612007000105,15,1.919,,,sub-056,20,45,700,bloc_loop.csv,2023-10-04_18h25.33.813,PainUncertainty,2022.2.5,144.14726085210435,
grave,moderee,stimuli/330Hz,stimuli/moderee,,,,,,,,0,2,2,0,,,,,,,,,,,,,,,,4,323.9612007000105,327.9643200000137,327.9642885100096,0.3051087999920128,328.4109552000009,328.4109552000009,n,0.8645427999872481,330.6737278000073,330.6737278000073,10,1.323,,,sub-056,20,45,700,bloc_loop.csv,2023-10-04_18h25.33.813,PainUncertainty,2022.2.5,144.14726085210435,
aigu,forte,stimuli/660Hz,stimuli/forte,,,,,,,,0,3,3,3,,,,,,,,,,,,,,,,4.3,330.6737278000073,334.979067200009,334.9791609100124,0.2997619000088889,335.42345130001195,335.42345130001195,m,0.729580300001544,337.43755110001075,337.43755110001075,70,1.26,,,sub-056,20,45,700,bloc_loop.csv,2023-10-04_18h25.33.813,PainUncertainty,2022.2.5,144.14726085210435,
grave,forte,stimuli/330Hz,stimuli/forte,bloc_1,prob20hthp_12trials.xlsx,4,48,20,80,0,,,,,0,0,0,0,0,0,0,3,,,,,,,,4.5,412.02382750000106,416.5235900000116,416.5235547100077,0.3051026000030106,416.9680536000087,416.9680536000087,m,0.580940499989083,419.83807520000846,419.83807520000846,60,2.211,,,sub-056,20,45,700,bloc_loop.csv,2023-10-04_18h25.33.813,PainUncertainty,2022.2.5,144.14726085210435,
aigu,moderee,stimuli/660Hz,stimuli/moderee,bloc_1,prob20hthp_12trials.xlsx,4,48,20,80,0,,,,,0,0,0,0,0,1,1,6,,,,,,,,3,419.83807520000846,422.84375040000305,422.8437191100005,0.30527060000167694,423.2901264000102,423.2901264000102,n,0.7215542999911122,426.05397960000846,426.05397960000846,22,1.974,,,sub-056,20,45,700,bloc_loop.csv,2023-10-04_18h25.33.813,PainUncertainty,2022.2.5,144.14726085210435,
grave,forte,stimuli/330Hz,stimuli/forte,bloc_1,prob20hthp_12trials.xlsx,4,48,20,80,0,,,,,0,0,0,0,0,2,2,4,,,,,,,,3.6,426.05397960000846,429.65756020000845,429.6577182100067,0.3049998000060441,430.10853310000675,430.10853310000675,m,0.6105869999882998,432.33221780000895,432.33221780000895,70,1.559,,,sub-056,20,45,700,bloc_loop.csv,2023-10-04_18h25.33.813,PainUncertainty,2022.2.5,144.14726085210435,
grave,forte,stimuli/330Hz,stimuli/forte,bloc_1,prob20hthp_12trials.xlsx,4,48,20,80,0,,,,,0,0,0,0,0,3,3,1,,,,,,,,5,432.33221780000895,437.3320803000097,437.33218370999964,0.3050516999937827,437.7794954000128,437.7794954000128,m,0.7875352999835741,440.5316815000115,440.5316815000115,67,1.893,,,sub-056,20,45,700,bloc_loop.csv,2023-10-04_18h25.33.813,PainUncertainty,2022.2.5,144.14726085210435,
aigu,moderee,stimuli/660Hz,stimuli/moderee,bloc_1,prob20hthp_12trials.xlsx,4,48,20,80,0,,,,,0,0,0,0,0,4,4,7,,,,,,,,4.7,440.5316815000115,445.2353722000116,445.23540270999945,0.3049800000007963,445.6795739000081,445.6795739000081,n,0.3969593999790959,448.8727622000006,448.8727622000006,27,2.72,,,sub-056,20,45,700,bloc_loop.csv,2023-10-04_18h25.33.813,PainUncertainty,2022.2.5,144.14726085210435,
grave,forte,stimuli/330Hz,stimuli/forte,bloc_1,prob20hthp_12trials.xlsx,4,48,20,80,0,,,,,0,0,0,0,0,5,5,2,,,,,,,,3.6,448.8727622000006,452.4723381000076,452.4724393100099,0.3049551000003703,452.91660710000724,452.91660710000724,m,0.7122678999876371,456.17304220001097,456.17304220001097,66,2.49,,,sub-056,20,45,700,bloc_loop.csv,2023-10-04_18h25.33.813,PainUncertainty,2022.2.5,144.14726085210435,
grave,forte,stimuli/330Hz,stimuli/forte,bloc_1,prob20hthp_12trials.xlsx,4,48,20,80,0,,,,,0,0,0,0,0,6,6,0,,,,,,,,3.6,456.17304220001097,459.7787681000045,459.77882621001334,0.3050037999928463,460.222952000011,460.222952000011,m,0.4709292999905301,462.6300629000034,462.6300629000034,63,1.857,,,sub-056,20,45,700,bloc_loop.csv,2023-10-04_18h25.33.813,PainUncertainty,2022.2.5,144.14726085210435,
aigu,moderee,stimuli/660Hz,stimuli/moderee,bloc_1,prob20hthp_12trials.xlsx,4,48,20,80,0,,,,,0,0,0,0,0,7,7,9,,,,,,,,5,462.6300629000034,467.6340124000126,467.63391781000826,0.3054936000116868,468.0822220000118,468.0822220000118,n,0.4004141999903368,469.7073713000136,469.7073713000136,10,1.17,,,sub-056,20,45,700,bloc_loop.csv,2023-10-04_18h25.33.813,PainUncertainty,2022.2.5,144.14726085210435,
aigu,moderee,stimuli/660Hz,stimuli/moderee,bloc_1,prob20hthp_12trials.xlsx,4,48,20,80,0,,,,,0,0,0,0,0,8,8,10,,,,,,,,4.6,469.7073713000136,474.308382800009,474.3083710100094,0.30494060000637546,474.7525158000062,474.7525158000062,n,0.7476156999910017,478.14491900001303,478.14491900001303,28,2.58,,,sub-056,20,45,700,bloc_loop.csv,2023-10-04_18h25.33.813,PainUncertainty,2022.2.5,144.14726085210435,
aigu,moderee,stimuli/660Hz,stimuli/moderee,bloc_1,prob20hthp_12trials.xlsx,4,48,20,80,0,,,,,0,0,0,0,0,9,9,8,,,,,,,,4.7,478.14491900001303,482.844064600009,482.84428921000506,0.30487239999638405,483.2885934000078,483.2885934000078,n,0.708664099991438,485.4634996000095,485.4634996000095,30,1.412,,,sub-056,20,45,700,bloc_loop.csv,2023-10-04_18h25.33.813,PainUncertainty,2022.2.5,144.14726085210435,
grave,moderee,stimuli/330Hz,stimuli/moderee,bloc_1,prob20hthp_12trials.xlsx,4,48,20,80,0,,,,,0,0,0,0,0,10,10,5,,,,,,,,4.4,485.4634996000095,489.86611050000647,489.8660318100068,0.30524279999372084,490.3140742000105,490.3140742000105,n,0.614983299994492,491.9833016000048,491.9833016000048,30,0.982,,,sub-056,20,45,700,bloc_loop.csv,2023-10-04_18h25.33.813,PainUncertainty,2022.2.5,144.14726085210435,
aigu,forte,stimuli/660Hz,stimuli/forte,bloc_1,prob20hthp_12trials.xlsx,4,48,20,80,0,,,,,0,0,0,0,0,11,11,11,,,,,,,,3,491.9833016000048,494.9844107000099,494.98443321000957,0.3051220000052126,495.42880900000455,495.42880900000455,m,0.6382581999787362,498.0074755000096,498.0074755000096,65,1.872,,,sub-056,20,45,700,bloc_loop.csv,2023-10-04_18h25.33.813,PainUncertainty,2022.2.5,144.14726085210435,
grave,moderee,stimuli/330Hz,stimuli/moderee,bloc_1,prob20hthp_12trials.xlsx,4,48,20,80,0,,,,,0,0,0,0,1,0,12,5,,,,,,,,3.5,498.0074755000096,501.51334830000997,501.51400071000387,0.3042432999936864,501.95724830000836,501.95724830000836,n,0.6304252999980235,503.9038847000047,503.9038847000047,21,1.247,,,sub-056,20,45,700,bloc_loop.csv,2023-10-04_18h25.33.813,PainUncertainty,2022.2.5,144.14726085210435,
grave,forte,stimuli/330Hz,stimuli/forte,bloc_1,prob20hthp_12trials.xlsx,4,48,20,80,0,,,,,0,0,0,0,1,1,13,3,,,,,,,,4.7,503.9038847000047,508.6052762000036,508.60479001000056,0.3064209000003757,509.0559309000091,509.0559309000091,m,0.5894285999820568,511.54345620000095,511.54345620000095,65,1.816,,,sub-056,20,45,700,bloc_loop.csv,2023-10-04_18h25.33.813,PainUncertainty,2022.2.5,144.14726085210435,
aigu,moderee,stimuli/660Hz,stimuli/moderee,bloc_1,prob20hthp_12trials.xlsx,4,48,20,80,0,,,,,0,0,0,0,1,2,14,6,,,,,,,,4.4,511.54345620000095,515.9458690000029,515.9458151100029,0.30512020000605844,516.3939329999994,516.3939329999994,n,0.5266007999889553,518.2687246999994,518.2687246999994,23,1.288,,,sub-056,20,45,700,bloc_loop.csv,2023-10-04_18h25.33.813,PainUncertainty,2022.2.5,144.14726085210435,
aigu,moderee,stimuli/660Hz,stimuli/moderee,bloc_1,prob20hthp_12trials.xlsx,4,48,20,80,0,,,,,0,0,0,0,1,3,15,9,,,,,,,,3.9,518.2687246999994,522.1683835000003,522.1684244100092,0.3050738000019919,522.612657900012,522.612657900012,n,0.5053514999890467,525.6038221000053,525.6038221000053,24,2.413,,,sub-056,20,45,700,bloc_loop.csv,2023-10-04_18h25.33.813,PainUncertainty,2022.2.5,144.14726085210435,
grave,forte,stimuli/330Hz,stimuli/forte,bloc_1,prob20hthp_12trials.xlsx,4,48,20,80,0,,,,,0,0,0,0,1,4,16,2,,,,,,,,3.3,525.6038221000053,528.9052607000049,528.9052504100022,0.3051947000058135,529.3536051000119,529.3536051000119,m,0.46470479998970404,531.3232006000035,531.3232006000035,61,1.447,,,sub-056,20,45,700,bloc_loop.csv,2023-10-04_18h25.33.813,PainUncertainty,2022.2.5,144.14726085210435,
aigu,forte,stimuli/660Hz,stimuli/forte,bloc_1,prob20hthp_12trials.xlsx,4,48,20,80,0,,,,,0,0,0,0,1,5,17,11,,,,,,,,3.9,531.3232006000035,535.2255095,535.2255400100024,0.30462020001141354,535.6696160000138,535.6696160000138,m,0.5381407999957446,537.4601812000037,537.4601812000037,62,1.177,,,sub-056,20,45,700,bloc_loop.csv,2023-10-04_18h25.33.813,PainUncertainty,2022.2.5,144.14726085210435,
aigu,moderee,stimuli/660Hz,stimuli/moderee,bloc_1,prob20hthp_12trials.xlsx,4,48,20,80,0,,,,,0,0,0,0,1,6,18,7,,,,,,,,4.6,537.4601812000037,542.0599256999994,542.0598706100049,0.3049649999884423,542.5040646000125,542.5040646000125,n,0.5980833999929018,544.3152995000128,544.3152995000128,27,1.15,,,sub-056,20,45,700,bloc_loop.csv,2023-10-04_18h25.33.813,PainUncertainty,2022.2.5,144.14726085210435,
aigu,moderee,stimuli/660Hz,stimuli/moderee,bloc_1,prob20hthp_12trials.xlsx,4,48,20,80,0,,,,,0,0,0,0,1,7,19,10,,,,,,,,4.9,544.3152995000128,549.2204321000027,549.2205266100121,0.3023444999998901,549.6662638000125,549.6662638000125,n,0.7683015999937197,553.1039598000061,553.1039598000061,26,2.601,,,sub-056,20,45,700,bloc_loop.csv,2023-10-04_18h25.33.813,PainUncertainty,2022.2.5,144.14726085210435,
grave,forte,stimuli/330Hz,stimuli/forte,bloc_1,prob20hthp_12trials.xlsx,4,48,20,80,0,,,,,0,0,0,0,1,8,20,4,,,,,,,,5,553.1039598000061,558.103356800013,558.1031616099993,0.30512560000352096,558.5473752000107,558.5473752000107,m,0.5711467999935849,560.4052108000033,560.4052108000033,66,1.226,,,sub-056,20,45,700,bloc_loop.csv,2023-10-04_18h25.33.813,PainUncertainty,2022.2.5,144.14726085210435,
grave,forte,stimuli/330Hz,stimuli/forte,bloc_1,prob20hthp_12trials.xlsx,4,48,20,80,0,,,,,0,0,0,0,1,9,21,1,,,,,,,,4.2,560.4052108000033,564.6109671000013,564.6109854100126,0.304997999992338,565.0591641000065,565.0591641000065,m,0.6466873999888776,567.4841812000086,567.4841812000086,72,1.712,,,sub-056,20,45,700,bloc_loop.csv,2023-10-04_18h25.33.813,PainUncertainty,2022.2.5,144.14726085210435,
aigu,moderee,stimuli/660Hz,stimuli/moderee,bloc_1,prob20hthp_12trials.xlsx,4,48,20,80,0,,,,,0,0,0,0,1,10,22,8,,,,,,,,3.8,567.4841812000086,571.285566800012,571.285364310001,0.3051279999926919,571.73213270001,571.73213270001,n,0.6050250999978743,573.684448400003,573.684448400003,33,1.274,,,sub-056,20,45,700,bloc_loop.csv,2023-10-04_18h25.33.813,PainUncertainty,2022.2.5,144.14726085210435,
grave,forte,stimuli/330Hz,stimuli/forte,bloc_1,prob20hthp_12trials.xlsx,4,48,20,80,0,,,,,0,0,0,0,1,11,23,0,,,,,,,,3.4,573.684448400003,577.0847072000033,577.0847213100118,0.30490889999782667,577.5288742000121,577.5288742000121,m,0.9420301999925869,581.4831137000001,581.4831137000001,75,2.945,,,sub-056,20,45,700,bloc_loop.csv,2023-10-04_18h25.33.813,PainUncertainty,2022.2.5,144.14726085210435,
grave,forte,stimuli/330Hz,stimuli/forte,bloc_1,prob20hthp_12trials.xlsx,4,48,20,80,0,,,,,0,0,0,0,2,0,24,4,,,,,,,,4.1,581.4831137000001,585.586020600007,585.5867239100102,0.3042749000014737,586.0304415999999,586.0304415999999,m,0.4491299999936018,589.5354084000137,589.5354084000137,69,2.99,,,sub-056,20,45,700,bloc_loop.csv,2023-10-04_18h25.33.813,PainUncertainty,2022.2.5,144.14726085210435,
aigu,moderee,stimuli/660Hz,stimuli/moderee,bloc_1,prob20hthp_12trials.xlsx,4,48,20,80,0,,,,,0,0,0,0,2,1,25,9,,,,,,,,3.6,589.5354084000137,593.1379474000132,593.1355759100028,0.3053498000081163,593.5834883000061,593.5834883000061,n,0.4406344999879366,595.5593156000104,595.5593156000104,24,1.483,,,sub-056,20,45,700,bloc_loop.csv,2023-10-04_18h25.33.813,PainUncertainty,2022.2.5,144.14726085210435,
grave,moderee,stimuli/330Hz,stimuli/moderee,bloc_1,prob20hthp_12trials.xlsx,4,48,20,80,0,,,,,0,0,0,0,2,2,26,5,,,,,,,,3.4,595.5593156000104,598.9627191000036,598.9627723100042,0.30486089999612886,599.4069531000132,599.4069531000132,n,0.7155101999815088,601.9032050000096,601.9032050000096,23,1.718,,,sub-056,20,45,700,bloc_loop.csv,2023-10-04_18h25.33.813,PainUncertainty,2022.2.5,144.14726085210435,
aigu,moderee,stimuli/660Hz,stimuli/moderee,bloc_1,prob20hthp_12trials.xlsx,4,48,20,80,0,,,,,0,0,0,0,2,3,27,8,,,,,,,,5,601.9032050000096,606.9082021000067,606.9082610100071,0.30049310000322293,607.3523700000078,607.3523700000078,n,0.5056395999854431,609.2070222000038,609.2070222000038,19,1.268,,,sub-056,20,45,700,bloc_loop.csv,2023-10-04_18h25.33.813,PainUncertainty,2022.2.5,144.14726085210435,
grave,forte,stimuli/330Hz,stimuli/forte,bloc_1,prob20hthp_12trials.xlsx,4,48,20,80,0,,,,,0,0,0,0,2,4,28,3,,,,,,,,4.1,609.2070222000038,613.3113397000125,613.3112827100034,0.30515980000200216,613.7558782000124,613.7558782000124,m,0.6237791999883484,615.93282490001,615.93282490001,68,1.483,,,sub-056,20,45,700,bloc_loop.csv,2023-10-04_18h25.33.813,PainUncertainty,2022.2.5,144.14726085210435,
aigu,moderee,stimuli/660Hz,stimuli/moderee,bloc_1,prob20hthp_12trials.xlsx,4,48,20,80,0,,,,,0,0,0,0,2,5,29,7,,,,,,,,3.3,615.93282490001,619.2357816000003,619.2357487100002,0.30517710000276566,619.6802323000011,619.6802323000011,n,0.5731982999859611,623.012784400009,623.012784400009,25,2.678,,,sub-056,20,45,700,bloc_loop.csv,2023-10-04_18h25.33.813,PainUncertainty,2022.2.5,144.14726085210435,
aigu,forte,stimuli/660Hz,stimuli/forte,bloc_1,prob20hthp_12trials.xlsx,4,48,20,80,0,,,,,0,0,0,0,2,6,30,11,,,,,,,,3.3,623.012784400009,626.3128773000062,626.3130534100113,0.3048123000044143,626.7570726000122,626.7570726000122,m,0.43927519998396747,628.1732536000054,628.1732536000054,65,0.913,,,sub-056,20,45,700,bloc_loop.csv,2023-10-04_18h25.33.813,PainUncertainty,2022.2.5,144.14726085210435,
grave,forte,stimuli/330Hz,stimuli/forte,bloc_1,prob20hthp_12trials.xlsx,4,48,20,80,0,,,,,0,0,0,0,2,7,31,0,,,,,,,,4.9,628.1732536000054,633.078062200002,633.0780861100124,0.30511590000241995,633.5258234000066,633.5258234000066,n,0.5170147999888286,636.801990100008,636.801990100008,76,2.689,,,sub-056,20,45,700,bloc_loop.csv,2023-10-04_18h25.33.813,PainUncertainty,2022.2.5,144.14726085210435,
aigu,moderee,stimuli/660Hz,stimuli/moderee,bloc_1,prob20hthp_12trials.xlsx,4,48,20,80,0,,,,,0,0,0,0,2,8,32,10,,,,,,,,3.1,636.801990100008,639.905107300001,639.9048876100045,0.30515179999929387,640.3490493999998,640.3490493999998,n,0.5673464999999851,642.0430900000065,642.0430900000065,20,1.073,,,sub-056,20,45,700,bloc_loop.csv,2023-10-04_18h25.33.813,PainUncertainty,2022.2.5,144.14726085210435,
aigu,moderee,stimuli/660Hz,stimuli/moderee,bloc_1,prob20hthp_12trials.xlsx,4,48,20,80,0,,,,,0,0,0,0,2,9,33,6,,,,,,,,4.8,642.0430900000065,646.8437037000112,646.8436133100098,0.29922329999681097,647.2859811000089,647.2859811000089,n,0.5821942999900784,648.9298082000023,648.9298082000023,10,0.99,,,sub-056,20,45,700,bloc_loop.csv,2023-10-04_18h25.33.813,PainUncertainty,2022.2.5,144.14726085210435,
grave,forte,stimuli/330Hz,stimuli/forte,bloc_1,prob20hthp_12trials.xlsx,4,48,20,80,0,,,,,0,0,0,0,2,10,34,1,,,,,,,,4,648.9298082000023,652.9341001000139,652.9341750100051,0.3054773000039859,653.3811509000079,653.3811509000079,m,0.8387258000002475,656.2339544000133,656.2339544000133,69,1.948,,,sub-056,20,45,700,bloc_loop.csv,2023-10-04_18h25.33.813,PainUncertainty,2022.2.5,144.14726085210435,
grave,forte,stimuli/330Hz,stimuli/forte,bloc_1,prob20hthp_12trials.xlsx,4,48,20,80,0,,,,,0,0,0,0,2,11,35,2,,,,,,,,4.5,656.2339544000133,660.7337767999998,660.7337952100119,0.30543399999442045,661.1823449000076,661.1823449000076,m,0.6801325999986148,663.2794427000044,663.2794427000044,81,1.351,,,sub-056,20,45,700,bloc_loop.csv,2023-10-04_18h25.33.813,PainUncertainty,2022.2.5,144.14726085210435,
grave,forte,stimuli/330Hz,stimuli/forte,bloc_1,prob20hthp_12trials.xlsx,4,48,20,80,0,,,,,0,0,0,0,3,0,36,4,,,,,,,,4.3,663.2794427000044,667.5817518000113,667.5817498100135,0.3015370999928564,668.0266682000074,668.0266682000074,m,0.4429954999941401,670.200199400002,670.200199400002,70,1.649,,,sub-056,20,45,700,bloc_loop.csv,2023-10-04_18h25.33.813,PainUncertainty,2022.2.5,144.14726085210435,
aigu,moderee,stimuli/660Hz,stimuli/moderee,bloc_1,prob20hthp_12trials.xlsx,4,48,20,80,0,,,,,0,0,0,0,3,1,37,6,,,,,,,,3.3,670.200199400002,673.506154600007,673.5060801100102,0.3052603999967687,673.9503120000008,673.9503120000008,n,0.48805209998681676,676.4481117000105,676.4481117000105,27,1.939,,,sub-056,20,45,700,bloc_loop.csv,2023-10-04_18h25.33.813,PainUncertainty,2022.2.5,144.14726085210435,
grave,moderee,stimuli/330Hz,stimuli/moderee,bloc_1,prob20hthp_12trials.xlsx,4,48,20,80,0,,,,,0,0,0,0,3,2,38,5,,,,,,,,5,676.4481117000105,681.4514952000027,681.4515232100006,0.30511839999235235,681.8996106000122,681.8996106000122,n,0.8483021999854827,684.3245279000112,684.3245279000112,34,1.511,,,sub-056,20,45,700,bloc_loop.csv,2023-10-04_18h25.33.813,PainUncertainty,2022.2.5,144.14726085210435,
grave,forte,stimuli/330Hz,stimuli/forte,bloc_1,prob20hthp_12trials.xlsx,4,48,20,80,0,,,,,0,0,0,0,3,3,39,3,,,,,,,,4.9,684.3245279000112,689.2302855000016,689.2302485099993,0.30497500000637956,689.6744966000115,689.6744966000115,m,0.40910879999864846,692.5735119000019,692.5735119000019,69,2.414,,,sub-056,20,45,700,bloc_loop.csv,2023-10-04_18h25.33.813,PainUncertainty,2022.2.5,144.14726085210435,
aigu,moderee,stimuli/660Hz,stimuli/moderee,bloc_1,prob20hthp_12trials.xlsx,4,48,20,80,0,,,,,0,0,0,0,3,4,40,10,,,,,,,,4,692.5735119000019,696.5782760000002,696.5784901100036,0.30489320000924636,697.0225618000113,697.0225618000113,n,1.1718917999969563,701.1846063000121,701.1846063000121,32,2.907,,,sub-056,20,45,700,bloc_loop.csv,2023-10-04_18h25.33.813,PainUncertainty,2022.2.5,144.14726085210435,
grave,forte,stimuli/330Hz,stimuli/forte,bloc_1,prob20hthp_12trials.xlsx,4,48,20,80,0,,,,,0,0,0,0,3,5,41,0,,,,,,,,3.3,701.1846063000121,704.4889846000005,704.4892566100083,0.3047814000019571,704.9331808999996,704.9331808999996,m,0.5240439999906812,707.1581441000017,707.1581441000017,77,1.649,,,sub-056,20,45,700,bloc_loop.csv,2023-10-04_18h25.33.813,PainUncertainty,2022.2.5,144.14726085210435,
grave,forte,stimuli/330Hz,stimuli/forte,bloc_1,prob20hthp_12trials.xlsx,4,48,20,80,0,,,,,0,0,0,0,3,6,42,2,,,,,,,,3.8,707.1581441000017,710.9620462000021,710.9621908100002,0.30016929999692366,711.4068930000067,711.4068930000067,m,0.5803268000017852,714.5590877000068,714.5590877000068,68,2.497,,,sub-056,20,45,700,bloc_loop.csv,2023-10-04_18h25.33.813,PainUncertainty,2022.2.5,144.14726085210435,
aigu,moderee,stimuli/660Hz,stimuli/moderee,bloc_1,prob20hthp_12trials.xlsx,4,48,20,80,0,,,,,0,0,0,0,3,7,43,9,,,,,,,,4.3,714.5590877000068,718.8591577000043,718.859106210008,0.3008096999983536,719.3033291000029,719.3033291000029,n,0.5752472999884048,722.0986751000019,722.0986751000019,21,2.17,,,sub-056,20,45,700,bloc_loop.csv,2023-10-04_18h25.33.813,PainUncertainty,2022.2.5,144.14726085210435,
aigu,moderee,stimuli/660Hz,stimuli/moderee,bloc_1,prob20hthp_12trials.xlsx,4,48,20,80,0,,,,,0,0,0,0,3,8,44,8,,,,,,,,4.9,722.0986751000019,726.9990008000022,726.9989935100078,0.3049316000106046,727.4427765,727.4427765,n,0.6444629999896279,730.6485284000082,730.6485284000082,26,2.51,,,sub-056,20,45,700,bloc_loop.csv,2023-10-04_18h25.33.813,PainUncertainty,2022.2.5,144.14726085210435,
aigu,moderee,stimuli/660Hz,stimuli/moderee,bloc_1,prob20hthp_12trials.xlsx,4,48,20,80,0,,,,,0,0,0,0,3,9,45,7,,,,,,,,4.4,730.6485284000082,735.0483003000118,735.0483052100084,0.3051285000110511,735.4924963000085,735.4924963000085,n,0.5563240999908885,738.6866798000119,738.6866798000119,30,2.573,,,sub-056,20,45,700,bloc_loop.csv,2023-10-04_18h25.33.813,PainUncertainty,2022.2.5,144.14726085210435,
aigu,forte,stimuli/660Hz,stimuli/forte,bloc_1,prob20hthp_12trials.xlsx,4,48,20,80,0,,,,,0,0,0,0,3,10,46,11,,,,,,,,4.5,738.6866798000119,743.1882323000027,743.188050410003,0.304911400002311,743.6324624000117,743.6324624000117,m,0.5901544999942416,745.7802967000025,745.7802967000025,70,1.503,,,sub-056,20,45,700,bloc_loop.csv,2023-10-04_18h25.33.813,PainUncertainty,2022.2.5,144.14726085210435,
grave,forte,stimuli/330Hz,stimuli/forte,bloc_1,prob20hthp_12trials.xlsx,4,48,20,80,0,,,,,0,0,0,0,3,11,47,1,,,,,,,,4.4,745.7802967000025,750.182049400013,750.1820402100042,0.30502980000164825,750.6263976000046,750.6263976000046,m,0.7787164999899687,753.0360589000047,753.0360589000047,67,1.568,,,sub-056,20,45,700,bloc_loop.csv,2023-10-04_18h25.33.813,PainUncertainty,2022.2.5,144.14726085210435,
aigu,forte,stimuli/660Hz,stimuli/forte,bloc_2,prob50_50_4trials.xlsx,2,8,50,50,1,,,,,0,1,1,1,0,0,0,3,,,,,,,,4.1,753.0360589000047,757.1416033000132,757.1415075099998,0.3053462999960175,757.5882237000042,757.5882237000042,m,0.6564163000002736,759.7303837000072,759.7303837000072,77,1.42,,,sub-056,20,45,700,bloc_loop.csv,2023-10-04_18h25.33.813,PainUncertainty,2022.2.5,144.14726085210435,
aigu,moderee,stimuli/660Hz,stimuli/moderee,bloc_2,prob50_50_4trials.xlsx,2,8,50,50,1,,,,,0,1,1,1,0,1,1,2,,,,,,,,3.5,759.7303837000072,763.2325963000039,763.2326376100012,0.2994063000078313,763.6750152000022,763.6750152000022,n,0.4975803999841446,765.2441926000029,765.2441926000029,20,1.004,,,sub-056,20,45,700,bloc_loop.csv,2023-10-04_18h25.33.813,PainUncertainty,2022.2.5,144.14726085210435,
grave,moderee,stimuli/330Hz,stimuli/moderee,bloc_2,prob50_50_4trials.xlsx,2,8,50,50,1,,,,,0,1,1,1,0,2,2,0,,,,,,,,4.1,765.2441926000029,769.3444695000071,769.344062710012,0.3055255999934161,769.7925920000125,769.7925920000125,n,0.8013352999842027,773.3298636000109,773.3298636000109,27,2.67,,,sub-056,20,45,700,bloc_loop.csv,2023-10-04_18h25.33.813,PainUncertainty,2022.2.5,144.14726085210435,
grave,forte,stimuli/330Hz,stimuli/forte,bloc_2,prob50_50_4trials.xlsx,2,8,50,50,1,,,,,0,1,1,1,0,3,3,1,,,,,,,,4.1,773.3298636000109,777.4371124000027,777.4356340100115,0.3051382999983616,777.8836904000054,777.8836904000054,m,0.5405148999998346,780.7116283000069,780.7116283000069,71,2.212,,,sub-056,20,45,700,bloc_loop.csv,2023-10-04_18h25.33.813,PainUncertainty,2022.2.5,144.14726085210435,
grave,moderee,stimuli/330Hz,stimuli/moderee,bloc_2,prob50_50_4trials.xlsx,2,8,50,50,1,,,,,0,1,1,1,1,0,4,0,,,,,,,,4.1,780.7116283000069,784.8111491000018,784.8110122100101,0.30063220000010915,785.255834200012,785.255834200012,n,0.4559313999925507,787.486435800005,787.486435800005,26,1.705,,,sub-056,20,45,700,bloc_loop.csv,2023-10-04_18h25.33.813,PainUncertainty,2022.2.5,144.14726085210435,
aigu,forte,stimuli/660Hz,stimuli/forte,bloc_2,prob50_50_4trials.xlsx,2,8,50,50,1,,,,,0,1,1,1,1,1,5,3,,,,,,,,3.4,787.486435800005,790.888219600005,790.8882949099992,0.30554129999654833,791.3371867000096,791.3371867000096,m,0.4190465999854496,793.6063272000029,793.6063272000029,72,1.788,,,sub-056,20,45,700,bloc_loop.csv,2023-10-04_18h25.33.813,PainUncertainty,2022.2.5,144.14726085210435,
grave,forte,stimuli/330Hz,stimuli/forte,bloc_2,prob50_50_4trials.xlsx,2,8,50,50,1,,,,,0,1,1,1,1,2,6,1,,,,,,,,3.4,793.6063272000029,797.0071022000047,797.0070622100087,0.30492739999317564,797.4513387000043,797.4513387000043,m,0.6571636999869952,799.5840451000113,799.5840451000113,78,1.393,,,sub-056,20,45,700,bloc_loop.csv,2023-10-04_18h25.33.813,PainUncertainty,2022.2.5,144.14726085210435,
aigu,moderee,stimuli/660Hz,stimuli/moderee,bloc_2,prob50_50_4trials.xlsx,2,8,50,50,1,,,,,0,1,1,1,1,3,7,2,,,,,,,,3.6,799.5840451000113,803.1883287000092,803.1883952100092,0.30614620000415016,803.633940700005,803.633940700005,n,0.5276133000006666,807.4766671000107,807.4766671000107,22,1.282,,,sub-056,20,45,700,bloc_loop.csv,2023-10-04_18h25.33.813,PainUncertainty,2022.2.5,144.14726085210435,
,,,,bloc_2,prob50_50_4trials.xlsx,2,8,50,50,1,,,,,0,1,1,1,,,,,0,0,0,0,,,,,,,,,,,,,,,,,807.4766671000107,902.1747183000116,sub-056,20,45,700,bloc_loop.csv,2023-10-04_18h25.33.813,PainUncertainty,2022.2.5,144.14726085210435,
grave,moderee,stimuli/330Hz,stimuli/moderee,bloc_3,prob80hthp_12trials.xlsx,2,24,80,20,0,,,,,0,2,2,2,0,0,0,2,,,,,,,,4.2,903.7997852000117,907.9993273,907.9993115100136,0.30528050000430085,908.4438265000063,908.4438265000063,n,0.5457085999951232,910.3983671000024,910.3983671000024,20,1.336,,,sub-056,20,45,700,bloc_loop.csv,2023-10-04_18h25.33.813,PainUncertainty,2022.2.5,144.14726085210435,
aigu,forte,stimuli/660Hz,stimuli/forte,bloc_3,prob80hthp_12trials.xlsx,2,24,80,20,0,,,,,0,2,2,2,0,1,1,9,,,,,,,,3.2,910.3983671000024,913.5977086000057,913.5981602100131,0.30466739999246784,914.0453202000062,914.0453202000062,m,0.45631859998684376,915.9129122000013,915.9129122000013,66,1.329,,,sub-056,20,45,700,bloc_loop.csv,2023-10-04_18h25.33.813,PainUncertainty,2022.2.5,144.14726085210435,
grave,moderee,stimuli/330Hz,stimuli/moderee,bloc_3,prob80hthp_12trials.xlsx,2,24,80,20,0,,,,,0,2,2,2,0,2,2,3,,,,,,,,3,915.9129122000013,918.9173386000039,918.9173639100103,0.2993840999988606,919.355985800008,919.355985800008,n,0.4349826999823563,921.3454203000001,921.3454203000001,24,1.484,,,sub-056,20,45,700,bloc_loop.csv,2023-10-04_18h25.33.813,PainUncertainty,2022.2.5,144.14726085210435,
aigu,forte,stimuli/660Hz,stimuli/forte,bloc_3,prob80hthp_12trials.xlsx,2,24,80,20,0,,,,,0,2,2,2,0,3,3,10,,,,,,,,4,921.3454203000001,925.3491117000085,925.3489543100062,0.3053188999911072,925.7972257000074,925.7972257000074,m,0.6764299999776995,929.159004000001,929.159004000001,75,2.614,,,sub-056,20,45,700,bloc_loop.csv,2023-10-04_18h25.33.813,PainUncertainty,2022.2.5,144.14726085210435,
aigu,moderee,stimuli/660Hz,stimuli/moderee,bloc_3,prob80hthp_12trials.xlsx,2,24,80,20,0,,,,,0,2,2,2,0,4,4,11,,,,,,,,4.3,929.159004000001,933.4610244000069,933.4610153100133,0.30102650000480935,933.9055154000089,933.9055154000089,n,0.3944457999896258,935.8375044000131,935.8375044000131,22,1.462,,,sub-056,20,45,700,bloc_loop.csv,2023-10-04_18h25.33.813,PainUncertainty,2022.2.5,144.14726085210435,
aigu,forte,stimuli/660Hz,stimuli/forte,bloc_3,prob80hthp_12trials.xlsx,2,24,80,20,0,,,,,0,2,2,2,0,5,5,6,,,,,,,,4.7,935.8375044000131,940.5383146000095,940.5382594099996,0.3052270000043791,940.9863126000128,940.9863126000128,m,0.3840872999862768,942.5976827000122,942.5976827000122,76,1.15,,,sub-056,20,45,700,bloc_loop.csv,2023-10-04_18h25.33.813,PainUncertainty,2022.2.5,144.14726085210435,
grave,moderee,stimuli/330Hz,stimuli/moderee,bloc_3,prob80hthp_12trials.xlsx,2,24,80,20,0,,,,,0,2,2,2,0,6,6,1,,,,,,,,4.8,942.5976827000122,947.4002412000118,947.4003554100112,0.304753599994001,947.8440310000005,947.8440310000005,n,0.37959179999597836,949.4031817000068,949.4031817000068,15,1.108,,,sub-056,20,45,700,bloc_loop.csv,2023-10-04_18h25.33.813,PainUncertainty,2022.2.5,144.14726085210435,
aigu,forte,stimuli/660Hz,stimuli/forte,bloc_3,prob80hthp_12trials.xlsx,2,24,80,20,0,,,,,0,2,2,2,0,7,7,7,,,,,,,,4.5,949.4031817000068,953.9076048999996,953.9076776100031,0.30508930000360124,954.3591351000068,954.3591351000068,m,0.4040783999953419,955.6503571000067,955.6503571000067,80,0.83,,,sub-056,20,45,700,bloc_loop.csv,2023-10-04_18h25.33.813,PainUncertainty,2022.2.5,144.14726085210435,
aigu,forte,stimuli/660Hz,stimuli/forte,bloc_3,prob80hthp_12trials.xlsx,2,24,80,20,0,,,,,0,2,2,2,0,8,8,8,,,,,,,,3.6,955.6503571000067,959.2555143000063,959.2553595100093,0.3052587999991374,959.699789300008,959.699789300008,m,0.46647159999702126,961.5962732000044,961.5962732000044,71,1.365,,,sub-056,20,45,700,bloc_loop.csv,2023-10-04_18h25.33.813,PainUncertainty,2022.2.5,144.14726085210435,
grave,forte,stimuli/330Hz,stimuli/forte,bloc_3,prob80hthp_12trials.xlsx,2,24,80,20,0,,,,,0,2,2,2,0,9,9,5,,,,,,,,4.5,961.5962732000044,966.0968995000003,966.0968737100105,0.30497070000274107,966.5407757000066,966.5407757000066,m,0.4160788000008324,969.7937779000058,969.7937779000058,77,2.767,,,sub-056,20,45,700,bloc_loop.csv,2023-10-04_18h25.33.813,PainUncertainty,2022.2.5,144.14726085210435,
grave,moderee,stimuli/330Hz,stimuli/moderee,bloc_3,prob80hthp_12trials.xlsx,2,24,80,20,0,,,,,0,2,2,2,0,10,10,4,,,,,,,,3.7,969.7937779000058,973.4937239000137,973.4935978100024,0.3051682999939658,973.9412188000133,973.9412188000133,n,0.4267737999907695,975.6879547000135,975.6879547000135,21,1.261,,,sub-056,20,45,700,bloc_loop.csv,2023-10-04_18h25.33.813,PainUncertainty,2022.2.5,144.14726085210435,
grave,moderee,stimuli/330Hz,stimuli/moderee,bloc_3,prob80hthp_12trials.xlsx,2,24,80,20,0,,,,,0,2,2,2,0,11,11,0,,,,,,,,4.4,975.6879547000135,980.091871800003,980.0917622100009,0.3051308000140125,980.5398507000064,980.5398507000064,n,0.4368293999868911,982.8474771000037,982.8474771000037,28,1.802,,,sub-056,20,45,700,bloc_loop.csv,2023-10-04_18h25.33.813,PainUncertainty,2022.2.5,144.14726085210435,
aigu,forte,stimuli/660Hz,stimuli/forte,bloc_3,prob80hthp_12trials.xlsx,2,24,80,20,0,,,,,0,2,2,2,1,0,12,6,,,,,,,,3.2,982.8474771000037,986.0504438000062,986.0505065100064,0.30506769999919925,986.4947707000101,986.4947707000101,m,0.3803327999776229,989.2705557000008,989.2705557000008,72,2.33,,,sub-056,20,45,700,bloc_loop.csv,2023-10-04_18h25.33.813,PainUncertainty,2022.2.5,144.14726085210435,
aigu,forte,stimuli/660Hz,stimuli/forte,bloc_3,prob80hthp_12trials.xlsx,2,24,80,20,0,,,,,0,2,2,2,1,1,13,8,,,,,,,,3.9,989.2705557000008,993.1762700000108,993.1763869100017,0.30463509999390226,993.6203574000101,993.6203574000101,m,0.3807049999886658,996.7497007000056,996.7497007000056,70,2.676,,,sub-056,20,45,700,bloc_loop.csv,2023-10-04_18h25.33.813,PainUncertainty,2022.2.5,144.14726085210435,
grave,moderee,stimuli/330Hz,stimuli/moderee,bloc_3,prob80hthp_12trials.xlsx,2,24,80,20,0,,,,,0,2,2,2,1,2,14,0,,,,,,,,4.3,996.7497007000056,1001.0521911000105,1001.0521305100032,0.3050626000040211,1001.4967079000053,1001.4967079000053,n,0.4820408999948995,1003.0603647000098,1003.0603647000098,21,1.023,,,sub-056,20,45,700,bloc_loop.csv,2023-10-04_18h25.33.813,PainUncertainty,2022.2.5,144.14726085210435,
grave,moderee,stimuli/330Hz,stimuli/moderee,bloc_3,prob80hthp_12trials.xlsx,2,24,80,20,0,,,,,0,2,2,2,1,3,15,1,,,,,,,,5,1003.0603647000098,1008.0602574000077,1008.0602702100063,0.30155390000436455,1008.5041768000083,1008.5041768000083,n,0.49751619999005925,1010.7171110000054,1010.7171110000054,26,1.599,,,sub-056,20,45,700,bloc_loop.csv,2023-10-04_18h25.33.813,PainUncertainty,2022.2.5,144.14726085210435,
aigu,forte,stimuli/660Hz,stimuli/forte,bloc_3,prob80hthp_12trials.xlsx,2,24,80,20,0,,,,,0,2,2,2,1,4,16,7,,,,,,,,3.4,1010.7171110000054,1014.1160858000076,1014.1161661100108,0.3052676000079373,1014.5603467000037,1014.5603467000037,m,0.39710679999552667,1017.6519222000061,1017.6519222000061,69,2.614,,,sub-056,20,45,700,bloc_loop.csv,2023-10-04_18h25.33.813,PainUncertainty,2022.2.5,144.14726085210435,
grave,moderee,stimuli/330Hz,stimuli/moderee,bloc_3,prob80hthp_12trials.xlsx,2,24,80,20,0,,,,,0,2,2,2,1,5,17,4,,,,,,,,3.3,1017.6519222000061,1020.9574614000012,1020.9574897100014,0.3051165999931982,1021.4016188000096,1021.4016188000096,n,0.4477243999863276,1024.2813898000022,1024.2813898000022,21,2.363,,,sub-056,20,45,700,bloc_loop.csv,2023-10-04_18h25.33.813,PainUncertainty,2022.2.5,144.14726085210435,
grave,moderee,stimuli/330Hz,stimuli/moderee,bloc_3,prob80hthp_12trials.xlsx,2,24,80,20,0,,,,,0,2,2,2,1,6,18,2,,,,,,,,4.2,1024.2813898000022,1028.4859218000056,1028.485942210004,0.30515569999988656,1028.9305041000043,1028.9305041000043,n,0.47090439999010414,1030.8640977000032,1030.8640977000032,26,1.406,,,sub-056,20,45,700,bloc_loop.csv,2023-10-04_18h25.33.813,PainUncertainty,2022.2.5,144.14726085210435,
grave,moderee,stimuli/330Hz,stimuli/moderee,bloc_3,prob80hthp_12trials.xlsx,2,24,80,20,0,,,,,0,2,2,2,1,7,19,3,,,,,,,,4.7,1030.8640977000032,1035.5632108999998,1035.563160510012,0.30524260000674985,1036.0078663000022,1036.0078663000022,n,0.4140010999835795,1038.168264500011,1038.168264500011,24,1.662,,,sub-056,20,45,700,bloc_loop.csv,2023-10-04_18h25.33.813,PainUncertainty,2022.2.5,144.14726085210435,
grave,forte,stimuli/330Hz,stimuli/forte,bloc_3,prob80hthp_12trials.xlsx,2,24,80,20,0,,,,,0,2,2,2,1,8,20,5,,,,,,,,3.6,1038.168264500011,1041.7723982000025,1041.7723220100074,0.3048476000112714,1042.2165924,1042.2165924,m,0.25345479998213705,1043.855460900013,1043.855460900013,77,1.33,,,sub-056,20,45,700,bloc_loop.csv,2023-10-04_18h25.33.813,PainUncertainty,2022.2.5,144.14726085210435,
aigu,forte,stimuli/660Hz,stimuli/forte,bloc_3,prob80hthp_12trials.xlsx,2,24,80,20,0,,,,,0,2,2,2,1,9,21,10,,,,,,,,3.7,1043.855460900013,1047.5575368000136,1047.5575460099994,0.3052919000037946,1048.002188700004,1048.002188700004,m,0.4955143999977736,1050.6149312000052,1050.6149312000052,73,2.051,,,sub-056,20,45,700,bloc_loop.csv,2023-10-04_18h25.33.813,PainUncertainty,2022.2.5,144.14726085210435,
aigu,forte,stimuli/660Hz,stimuli/forte,bloc_3,prob80hthp_12trials.xlsx,2,24,80,20,0,,,,,0,2,2,2,1,10,22,9,,,,,,,,3,1050.6149312000052,1053.6138741000032,1053.61404661001,0.3048248999984935,1054.058018300013,1054.058018300013,m,0.41668599999684375,1057.1521601000131,1057.1521601000131,74,2.601,,,sub-056,20,45,700,bloc_loop.csv,2023-10-04_18h25.33.813,PainUncertainty,2022.2.5,144.14726085210435,
aigu,moderee,stimuli/660Hz,stimuli/moderee,bloc_3,prob80hthp_12trials.xlsx,2,24,80,20,0,,,,,0,2,2,2,1,11,23,11,,,,,,,,4.5,1057.1521601000131,1061.6565136000136,1061.6564491100057,0.30513750000682194,1062.1006860000052,1062.1006860000052,n,0.47091819999332074,1064.246060400008,1064.246060400008,17,1.616,,,sub-056,20,45,700,bloc_loop.csv,2023-10-04_18h25.33.813,PainUncertainty,2022.2.5,144.14726085210435,
grave,moderee,stimuli/330Hz,stimuli/moderee,bloc_4,prob50_50_4trials.xlsx,2,8,50,50,1,,,,,0,3,3,3,0,0,0,0,,,,,,,,3.7,1064.246060400008,1067.9489868000092,1067.948930310004,0.3052858000010019,1068.3975330000103,1068.3975330000103,n,0.8786783999967156,1070.3493561000068,1070.3493561000068,20,1.003,,,sub-056,20,45,700,bloc_loop.csv,2023-10-04_18h25.33.813,PainUncertainty,2022.2.5,144.14726085210435,
aigu,forte,stimuli/660Hz,stimuli/forte,bloc_4,prob50_50_4trials.xlsx,2,8,50,50,1,,,,,0,3,3,3,0,1,1,3,,,,,,,,4.1,1070.3493561000068,1074.4497244000086,1074.449825210008,0.304848600004334,1074.8978905000113,1074.8978905000113,m,0.4224095999961719,1077.7016786000022,1077.7016786000022,74,2.324,,,sub-056,20,45,700,bloc_loop.csv,2023-10-04_18h25.33.813,PainUncertainty,2022.2.5,144.14726085210435,
grave,forte,stimuli/330Hz,stimuli/forte,bloc_4,prob50_50_4trials.xlsx,2,8,50,50,1,,,,,0,3,3,3,0,2,2,1,,,,,,,,3.4,1077.7016786000022,1081.1046644000016,1081.103540210001,0.30560580000746995,1081.552436500002,1081.552436500002,m,0.4345644999848446,1083.277975200006,1083.277975200006,78,1.205,,,sub-056,20,45,700,bloc_loop.csv,2023-10-04_18h25.33.813,PainUncertainty,2022.2.5,144.14726085210435,
aigu,moderee,stimuli/660Hz,stimuli/moderee,bloc_4,prob50_50_4trials.xlsx,2,8,50,50,1,,,,,0,3,3,3,0,3,3,2,,,,,,,,4.5,1083.277975200006,1087.7780995000066,1087.7779951100006,0.3050420999934431,1088.2259115000052,1088.2259115000052,n,0.5318726999830687,1090.099024500014,1090.099024500014,12,1.288,,,sub-056,20,45,700,bloc_loop.csv,2023-10-04_18h25.33.813,PainUncertainty,2022.2.5,144.14726085210435,
grave,moderee,stimuli/330Hz,stimuli/moderee,bloc_4,prob50_50_4trials.xlsx,2,8,50,50,1,,,,,0,3,3,3,1,0,4,0,,,,,,,,3.4,1090.099024500014,1093.5005055000074,1093.5006770100067,0.30487279999942984,1093.9448716000043,1093.9448716000043,n,0.5300312999897869,1095.7556192000047,1095.7556192000047,15,1.22,,,sub-056,20,45,700,bloc_loop.csv,2023-10-04_18h25.33.813,PainUncertainty,2022.2.5,144.14726085210435,
aigu,moderee,stimuli/660Hz,stimuli/moderee,bloc_4,prob50_50_4trials.xlsx,2,8,50,50,1,,,,,0,3,3,3,1,1,5,2,,,,,,,,4.6,1095.7556192000047,1100.3558402000053,1100.356756210013,0.3000490000122227,1100.8005932000087,1100.8005932000087,n,0.8571770999842556,1103.6822825000127,1103.6822825000127,46,1.948,,,sub-056,20,45,700,bloc_loop.csv,2023-10-04_18h25.33.813,PainUncertainty,2022.2.5,144.14726085210435,
grave,forte,stimuli/330Hz,stimuli/forte,bloc_4,prob50_50_4trials.xlsx,2,8,50,50,1,,,,,0,3,3,3,1,2,6,1,,,,,,,,4.2,1103.6822825000127,1107.884207400013,1107.8841307099997,0.30524119999608956,1108.3286316000012,1108.3286316000012,m,0.4243658999912441,1110.952375000008,1110.952375000008,71,2.134,,,sub-056,20,45,700,bloc_loop.csv,2023-10-04_18h25.33.813,PainUncertainty,2022.2.5,144.14726085210435,
aigu,forte,stimuli/660Hz,stimuli/forte,bloc_4,prob50_50_4trials.xlsx,2,8,50,50,1,,,,,0,3,3,3,1,3,7,3,,,,,,,,4.7,1110.952375000008,1115.649333600013,1115.651527110013,0.30294880000292324,1116.0955840000097,1116.0955840000097,m,0.9468232999934116,1120.1544973000127,1120.1544973000127,75,1.081,,,sub-056,20,45,700,bloc_loop.csv,2023-10-04_18h25.33.813,PainUncertainty,2022.2.5,144.14726085210435,
,,,,bloc_4,prob50_50_4trials.xlsx,2,8,50,50,1,,,,,0,3,3,3,,,,,0,0,0,0,,,,,,,,,,,,,,,,,1120.1544973000127,1209.9795044000057,sub-056,20,45,700,bloc_loop.csv,2023-10-04_18h25.33.813,PainUncertainty,2022.2.5,144.14726085210435,
aigu,moderee,stimuli/660Hz,stimuli/moderee,bloc_5,prob20hthp_12trials.xlsx,2,24,20,80,0,,,,,0,4,4,4,0,0,0,9,,,,,,,,3.1,1211.0161184000026,1214.1189178000059,1214.1191611100135,0.30510399999911897,1214.56738220001,1214.56738220001,n,0.5168722999951569,1217.662177700011,1217.662177700011,25,2.518,,,sub-056,20,45,700,bloc_loop.csv,2023-10-04_18h25.33.813,PainUncertainty,2022.2.5,144.14726085210435,
grave,moderee,stimuli/330Hz,stimuli/moderee,bloc_5,prob20hthp_12trials.xlsx,2,24,20,80,0,,,,,0,4,4,4,0,1,1,5,,,,,,,,3.2,1217.662177700011,1220.8634323000006,1220.8634947100131,0.30475080000178423,1221.3097318000073,1221.3097318000073,n,0.5371443999902112,1223.222789700012,1223.222789700012,21,1.294,,,sub-056,20,45,700,bloc_loop.csv,2023-10-04_18h25.33.813,PainUncertainty,2022.2.5,144.14726085210435,
grave,forte,stimuli/330Hz,stimuli/forte,bloc_5,prob20hthp_12trials.xlsx,2,24,20,80,0,,,,,0,4,4,4,0,2,2,4,,,,,,,,3.3,1223.222789700012,1226.5232773000025,1226.5233414100135,0.3050654999969993,1226.9675811000052,1226.9675811000052,m,0.3264620999834733,1230.01379550001,1230.01379550001,79,2.662,,,sub-056,20,45,700,bloc_loop.csv,2023-10-04_18h25.33.813,PainUncertainty,2022.2.5,144.14726085210435,
grave,forte,stimuli/330Hz,stimuli/forte,bloc_5,prob20hthp_12trials.xlsx,2,24,20,80,0,,,,,0,4,4,4,0,3,3,2,,,,,,,,5,1230.01379550001,1235.0173033000028,1235.017351110006,0.30523379999795,1235.461644400013,1235.461644400013,m,0.4479504999908386,1236.9812002000108,1236.9812002000108,82,0.99,,,sub-056,20,45,700,bloc_loop.csv,2023-10-04_18h25.33.813,PainUncertainty,2022.2.5,144.14726085210435,
aigu,moderee,stimuli/660Hz,stimuli/moderee,bloc_5,prob20hthp_12trials.xlsx,2,24,20,80,0,,,,,0,4,4,4,0,4,4,8,,,,,,,,4.5,1236.9812002000108,1241.4837872000062,1241.4838424100076,0.3052928000106476,1241.9304266000108,1241.9304266000108,n,0.48821669998869766,1243.8504147000058,1243.8504147000058,25,1.351,,,sub-056,20,45,700,bloc_loop.csv,2023-10-04_18h25.33.813,PainUncertainty,2022.2.5,144.14726085210435,
grave,forte,stimuli/330Hz,stimuli/forte,bloc_5,prob20hthp_12trials.xlsx,2,24,20,80,0,,,,,0,4,4,4,0,5,5,0,,,,,,,,3.6,1243.8504147000058,1247.4495453000127,1247.4497338100105,0.3027111999981571,1247.8937181000074,1247.8937181000074,m,0.3793668999860529,1249.0599107000016,1249.0599107000016,80,0.719,,,sub-056,20,45,700,bloc_loop.csv,2023-10-04_18h25.33.813,PainUncertainty,2022.2.5,144.14726085210435,
aigu,moderee,stimuli/660Hz,stimuli/moderee,bloc_5,prob20hthp_12trials.xlsx,2,24,20,80,0,,,,,0,4,4,4,0,6,6,7,,,,,,,,5,1249.0599107000016,1254.0613186000119,1254.0612050100085,0.3049523999943631,1254.5058088000078,1254.5058088000078,n,0.43647889999556355,1256.7775123000029,1256.7775123000029,22,1.775,,,sub-056,20,45,700,bloc_loop.csv,2023-10-04_18h25.33.813,PainUncertainty,2022.2.5,144.14726085210435,
aigu,moderee,stimuli/660Hz,stimuli/moderee,bloc_5,prob20hthp_12trials.xlsx,2,24,20,80,0,,,,,0,4,4,4,0,7,7,6,,,,,,,,4.7,1256.7775123000029,1261.4792683000123,1261.4789578100085,0.30503389998921193,1261.9232950000005,1261.9232950000005,n,0.41735459998017177,1264.0484893000103,1264.0484893000103,23,1.643,,,sub-056,20,45,700,bloc_loop.csv,2023-10-04_18h25.33.813,PainUncertainty,2022.2.5,144.14726085210435,
aigu,moderee,stimuli/660Hz,stimuli/moderee,bloc_5,prob20hthp_12trials.xlsx,2,24,20,80,0,,,,,0,4,4,4,0,8,8,10,,,,,,,,3.9,1264.0484893000103,1267.9517105000123,1267.9520584100014,0.3045585999934701,1268.3996077000047,1268.3996077000047,n,0.39882119999674615,1270.1056552000082,1270.1056552000082,20,1.227,,,sub-056,20,45,700,bloc_loop.csv,2023-10-04_18h25.33.813,PainUncertainty,2022.2.5,144.14726085210435,
grave,forte,stimuli/330Hz,stimuli/forte,bloc_5,prob20hthp_12trials.xlsx,2,24,20,80,0,,,,,0,4,4,4,0,9,9,3,,,,,,,,3,1270.1056552000082,1273.1049155000073,1273.1048421100045,0.30544549999467563,1273.5493117000005,1273.5493117000005,n,0.35849889999371953,1275.1533367000084,1275.1533367000084,80,1.185,,,sub-056,20,45,700,bloc_loop.csv,2023-10-04_18h25.33.813,PainUncertainty,2022.2.5,144.14726085210435,
aigu,forte,stimuli/660Hz,stimuli/forte,bloc_5,prob20hthp_12trials.xlsx,2,24,20,80,0,,,,,0,4,4,4,0,10,10,11,,,,,,,,4.8,1275.1533367000084,1279.953440000012,1279.9533720100067,0.3051024000014877,1280.4011406000063,1280.4011406000063,m,0.41406919999280944,1283.494301800005,1283.494301800005,82,2.621,,,sub-056,20,45,700,bloc_loop.csv,2023-10-04_18h25.33.813,PainUncertainty,2022.2.5,144.14726085210435,
grave,forte,stimuli/330Hz,stimuli/forte,bloc_5,prob20hthp_12trials.xlsx,2,24,20,80,0,,,,,0,4,4,4,0,11,11,1,,,,,,,,4.1,1283.494301800005,1287.5934026000032,1287.5934261100106,0.30481509999663103,1288.0394639000006,1288.0394639000006,m,0.4476802999852225,1291.2474424000102,1291.2474424000102,77,2.685,,,sub-056,20,45,700,bloc_loop.csv,2023-10-04_18h25.33.813,PainUncertainty,2022.2.5,144.14726085210435,
aigu,moderee,stimuli/660Hz,stimuli/moderee,bloc_5,prob20hthp_12trials.xlsx,2,24,20,80,0,,,,,0,4,4,4,1,0,12,10,,,,,,,,3.4,1291.2474424000102,1294.6493074000027,1294.649366810007,0.29912189999595284,1295.090292000008,1295.090292000008,n,0.4355875999899581,1297.9093514000124,1297.9093514000124,18,2.31,,,sub-056,20,45,700,bloc_loop.csv,2023-10-04_18h25.33.813,PainUncertainty,2022.2.5,144.14726085210435,
grave,forte,stimuli/330Hz,stimuli/forte,bloc_5,prob20hthp_12trials.xlsx,2,24,20,80,0,,,,,0,4,4,4,1,1,13,0,,,,,,,,4,1297.9093514000124,1301.914467300012,1301.9143985100004,0.3049141000083182,1302.3583677999995,1302.3583677999995,m,0.7461345999909099,1304.8427877000067,1304.8427877000067,82,1.678,,,sub-056,20,45,700,bloc_loop.csv,2023-10-04_18h25.33.813,PainUncertainty,2022.2.5,144.14726085210435,
grave,forte,stimuli/330Hz,stimuli/forte,bloc_5,prob20hthp_12trials.xlsx,2,24,20,80,0,,,,,0,4,4,4,1,2,14,3,,,,,,,,3.9,1304.8427877000067,1308.7499049000035,1308.7486008100009,0.30486769998969976,1309.1924721000105,1309.1924721000105,m,0.38108809999539517,1311.4584509000124,1311.4584509000124,81,1.823,,,sub-056,20,45,700,bloc_loop.csv,2023-10-04_18h25.33.813,PainUncertainty,2022.2.5,144.14726085210435,
aigu,forte,stimuli/660Hz,stimuli/forte,bloc_5,prob20hthp_12trials.xlsx,2,24,20,80,0,,,,,0,4,4,4,1,3,15,11,,,,,,,,3,1311.4584509000124,1314.464109700013,1314.4641037099996,0.30495210000663064,1314.912722100009,1314.912722100009,m,0.36911239998880774,1318.7454088000086,1318.7454088000086,81,3.394,,,sub-056,20,45,700,bloc_loop.csv,2023-10-04_18h25.33.813,PainUncertainty,2022.2.5,144.14726085210435,
aigu,moderee,stimuli/660Hz,stimuli/moderee,bloc_5,prob20hthp_12trials.xlsx,2,24,20,80,0,,,,,0,4,4,4,1,4,16,8,,,,,,,,3,1318.7454088000086,1321.7496465000004,1321.7497599100084,0.3050492000038503,1322.194168800008,1322.194168800008,n,0.5124346999800764,1325.2812659000047,1325.2812659000047,17,2.496,,,sub-056,20,45,700,bloc_loop.csv,2023-10-04_18h25.33.813,PainUncertainty,2022.2.5,144.14726085210435,
grave,forte,stimuli/330Hz,stimuli/forte,bloc_5,prob20hthp_12trials.xlsx,2,24,20,80,0,,,,,0,4,4,4,1,5,17,4,,,,,,,,4.5,1325.2812659000047,1329.7852936000127,1329.785413510012,0.30492799999774434,1330.2295942000055,1330.2295942000055,m,0.9009245999914128,1332.041154000006,1332.041154000006,70,0.845,,,sub-056,20,45,700,bloc_loop.csv,2023-10-04_18h25.33.813,PainUncertainty,2022.2.5,144.14726085210435,
grave,forte,stimuli/330Hz,stimuli/forte,bloc_5,prob20hthp_12trials.xlsx,2,24,20,80,0,,,,,0,4,4,4,1,6,18,2,,,,,,,,5,1332.041154000006,1337.043750500001,1337.0436211100082,0.3048374999925727,1337.4876727000083,1337.4876727000083,m,0.444419299979927,1339.8529924000031,1339.8529924000031,75,1.857,,,sub-056,20,45,700,bloc_loop.csv,2023-10-04_18h25.33.813,PainUncertainty,2022.2.5,144.14726085210435,
grave,forte,stimuli/330Hz,stimuli/forte,bloc_5,prob20hthp_12trials.xlsx,2,24,20,80,0,,,,,0,4,4,4,1,7,19,1,,,,,,,,3.3,1339.8529924000031,1343.155445100012,1343.1554174100079,0.304766599991126,1343.5993954000005,1343.5993954000005,m,0.5275122999883024,1345.8769855000137,1345.8769855000137,72,1.678,,,sub-056,20,45,700,bloc_loop.csv,2023-10-04_18h25.33.813,PainUncertainty,2022.2.5,144.14726085210435,
aigu,moderee,stimuli/660Hz,stimuli/moderee,bloc_5,prob20hthp_12trials.xlsx,2,24,20,80,0,,,,,0,4,4,4,1,8,20,9,,,,,,,,4.7,1345.8769855000137,1350.5803299000108,1350.5801857100073,0.3021934999997029,1351.0259290000104,1351.0259290000104,n,0.423949799980619,1354.8096517000085,1354.8096517000085,20,3.296,,,sub-056,20,45,700,bloc_loop.csv,2023-10-04_18h25.33.813,PainUncertainty,2022.2.5,144.14726085210435,
aigu,moderee,stimuli/660Hz,stimuli/moderee,bloc_5,prob20hthp_12trials.xlsx,2,24,20,80,0,,,,,0,4,4,4,1,9,21,7,,,,,,,,4.2,1354.8096517000085,1359.0116509000072,1359.0115465100012,0.2997287000034703,1359.4561359000072,1359.4561359000072,n,0.47078579998924397,1361.2022712000035,1361.2022712000035,22,1.211,,,sub-056,20,45,700,bloc_loop.csv,2023-10-04_18h25.33.813,PainUncertainty,2022.2.5,144.14726085210435,
aigu,moderee,stimuli/660Hz,stimuli/moderee,bloc_5,prob20hthp_12trials.xlsx,2,24,20,80,0,,,,,0,4,4,4,1,10,22,6,,,,,,,,3.7,1361.2022712000035,1364.907672500005,1364.9076063100133,0.3051761999959126,1365.3518332000094,1365.3518332000094,n,0.4348975999891991,1367.0364314000035,1367.0364314000035,19,1.193,,,sub-056,20,45,700,bloc_loop.csv,2023-10-04_18h25.33.813,PainUncertainty,2022.2.5,144.14726085210435,
grave,moderee,stimuli/330Hz,stimuli/moderee,bloc_5,prob20hthp_12trials.xlsx,2,24,20,80,0,,,,,0,4,4,4,1,11,23,5,,,,,,,,4,1367.0364314000035,1371.0412850000139,1371.0406228100096,0.30126940000627656,1371.484878400006,1371.484878400006,n,0.4087697999930242,1373.2192820000055,1373.2192820000055,24,1.247,,,sub-056,20,45,700,bloc_loop.csv,2023-10-04_18h25.33.813,PainUncertainty,2022.2.5,144.14726085210435,
aigu,forte,stimuli/660Hz,stimuli/forte,bloc_6,prob50_50_4trials.xlsx,2,8,50,50,0,,,,,0,5,5,5,0,0,0,3,,,,,,,,4.8,1373.2192820000055,1378.0205128000089,1378.0202695100074,0.3007818999903975,1378.4648854000116,1378.4648854000116,m,0.43261099998198915,1380.3920429000136,1380.3920429000136,77,1.438,,,sub-056,20,45,700,bloc_loop.csv,2023-10-04_18h25.33.813,PainUncertainty,2022.2.5,144.14726085210435,
grave,forte,stimuli/330Hz,stimuli/forte,bloc_6,prob50_50_4trials.xlsx,2,8,50,50,0,,,,,0,5,5,5,0,1,1,1,,,,,,,,3.6,1380.3920429000136,1383.9932955000113,1383.9931630100095,0.30511299999488983,1384.4375014000107,1384.4375014000107,m,0.3483743999822764,1385.954139700014,1385.954139700014,76,1.093,,,sub-056,20,45,700,bloc_loop.csv,2023-10-04_18h25.33.813,PainUncertainty,2022.2.5,144.14726085210435,
grave,moderee,stimuli/330Hz,stimuli/moderee,bloc_6,prob50_50_4trials.xlsx,2,8,50,50,0,,,,,0,5,5,5,0,2,2,0,,,,,,,,4.4,1385.954139700014,1390.3550313000014,1390.3550204100088,0.3050435000041034,1390.7991883000068,1390.7991883000068,n,0.4596031999972183,1392.5050016000023,1392.5050016000023,20,1.183,,,sub-056,20,45,700,bloc_loop.csv,2023-10-04_18h25.33.813,PainUncertainty,2022.2.5,144.14726085210435,
aigu,moderee,stimuli/660Hz,stimuli/moderee,bloc_6,prob50_50_4trials.xlsx,2,8,50,50,0,,,,,0,5,5,5,0,3,3,2,,,,,,,,3.6,1392.5050016000023,1396.105790600006,1396.105708410009,0.3051852000062354,1396.550238300013,1396.550238300013,n,0.7176626000000397,1398.7841663,1398.7841663,29,1.455,,,sub-056,20,45,700,bloc_loop.csv,2023-10-04_18h25.33.813,PainUncertainty,2022.2.5,144.14726085210435,
aigu,moderee,stimuli/660Hz,stimuli/moderee,bloc_6,prob50_50_4trials.xlsx,2,8,50,50,0,,,,,0,5,5,5,1,0,4,2,,,,,,,,3.7,1398.7841663,1402.4884174000035,1402.4884745100048,0.30543710000347346,1402.9352195000101,1402.9352195000101,n,0.4952126999851316,1405.19386330001,1405.19386330001,23,1.684,,,sub-056,20,45,700,bloc_loop.csv,2023-10-04_18h25.33.813,PainUncertainty,2022.2.5,144.14726085210435,
grave,forte,stimuli/330Hz,stimuli/forte,bloc_6,prob50_50_4trials.xlsx,2,8,50,50,0,,,,,0,5,5,5,1,1,5,1,,,,,,,,3.5,1405.19386330001,1408.6979157000023,1408.6978188100097,0.3049693999928422,1409.1421469000052,1409.1421469000052,m,0.33859829998982605,1411.6811182000092,1411.6811182000092,78,2.134,,,sub-056,20,45,700,bloc_loop.csv,2023-10-04_18h25.33.813,PainUncertainty,2022.2.5,144.14726085210435,
aigu,forte,stimuli/660Hz,stimuli/forte,bloc_6,prob50_50_4trials.xlsx,2,8,50,50,0,,,,,0,5,5,5,1,2,6,3,,,,,,,,4.8,1411.6811182000092,1416.4832320999994,1416.483188610006,0.29926449999038596,1416.925379200009,1416.925379200009,m,0.38875389998429455,1418.7113852000039,1418.7113852000039,75,1.324,,,sub-056,20,45,700,bloc_loop.csv,2023-10-04_18h25.33.813,PainUncertainty,2022.2.5,144.14726085210435,
grave,moderee,stimuli/330Hz,stimuli/moderee,bloc_6,prob50_50_4trials.xlsx,2,8,50,50,0,,,,,0,5,5,5,1,3,7,0,,,,,,,,5,1418.7113852000039,1423.7135601000045,1423.713602210008,0.3047504999994999,1424.1576443000085,1424.1576443000085,n,0.44857689998752903,1426.0774092000065,1426.0774092000065,27,1.4,,,sub-056,20,45,700,bloc_loop.csv,2023-10-04_18h25.33.813,PainUncertainty,2022.2.5,144.14726085210435,
aigu,forte,stimuli/660Hz,stimuli/forte,bloc_7,prob80hthp_12trials.xlsx,2,24,80,20,1,,,,,0,6,6,6,0,0,0,8,,,,,,,,3.6,1426.0774092000065,1429.6815041000082,1429.679593010011,0.3047995000088122,1430.1235823000025,1430.1235823000025,m,0.3607585999852745,1432.9494066000043,1432.9494066000043,70,2.391,,,sub-056,20,45,700,bloc_loop.csv,2023-10-04_18h25.33.813,PainUncertainty,2022.2.5,144.14726085210435,
grave,moderee,stimuli/330Hz,stimuli/moderee,bloc_7,prob80hthp_12trials.xlsx,2,24,80,20,1,,,,,0,6,6,6,0,1,1,4,,,,,,,,5,1432.9494066000043,1437.951183000012,1437.9511228100077,0.2996166999946581,1438.3935424000083,1438.3935424000083,n,0.42707349998818245,1439.7723799000087,1439.7723799000087,26,0.825,,,sub-056,20,45,700,bloc_loop.csv,2023-10-04_18h25.33.813,PainUncertainty,2022.2.5,144.14726085210435,
aigu,forte,stimuli/660Hz,stimuli/forte,bloc_7,prob80hthp_12trials.xlsx,2,24,80,20,1,,,,,0,6,6,6,0,2,2,10,,,,,,,,3.9,1439.7723799000087,1443.6738959000068,1443.6737819100003,0.3051345999992918,1444.1179199000035,1444.1179199000035,m,0.7982282000011764,1446.4348630000022,1446.4348630000022,82,1.462,,,sub-056,20,45,700,bloc_loop.csv,2023-10-04_18h25.33.813,PainUncertainty,2022.2.5,144.14726085210435,
aigu,forte,stimuli/660Hz,stimuli/forte,bloc_7,prob80hthp_12trials.xlsx,2,24,80,20,1,,,,,0,6,6,6,0,3,3,6,,,,,,,,3.3,1446.4348630000022,1449.737070800009,1449.737046810004,0.305057499994291,1450.1855372999999,1450.1855372999999,m,0.5488994999905117,1452.17199480001,1452.17199480001,81,1.358,,,sub-056,20,45,700,bloc_loop.csv,2023-10-04_18h25.33.813,PainUncertainty,2022.2.5,144.14726085210435,
grave,moderee,stimuli/330Hz,stimuli/moderee,bloc_7,prob80hthp_12trials.xlsx,2,24,80,20,1,,,,,0,6,6,6,0,4,4,2,,,,,,,,4,1452.17199480001,1456.175399700005,1456.1754453100061,0.3047203000023728,1456.6198541000049,1456.6198541000049,n,0.83937159999914,1458.9948072000116,1458.9948072000116,35,1.475,,,sub-056,20,45,700,bloc_loop.csv,2023-10-04_18h25.33.813,PainUncertainty,2022.2.5,144.14726085210435,
aigu,moderee,stimuli/660Hz,stimuli/moderee,bloc_7,prob80hthp_12trials.xlsx,2,24,80,20,1,,,,,0,6,6,6,0,5,5,11,,,,,,,,3.5,1458.9948072000116,1462.4958280000137,1462.4969128100115,0.30393140000524,1462.9398508000013,1462.9398508000013,n,0.536845499984338,1466.1051850000076,1466.1051850000076,22,2.552,,,sub-056,20,45,700,bloc_loop.csv,2023-10-04_18h25.33.813,PainUncertainty,2022.2.5,144.14726085210435,
aigu,forte,stimuli/660Hz,stimuli/forte,bloc_7,prob80hthp_12trials.xlsx,2,24,80,20,1,,,,,0,6,6,6,0,6,6,9,,,,,,,,4.8,1466.1051850000076,1470.9065529000072,1470.906494610003,0.3048170999973081,1471.3505468000076,1471.3505468000076,m,0.4753008999832673,1473.0574092000024,1473.0574092000024,74,1.164,,,sub-056,20,45,700,bloc_loop.csv,2023-10-04_18h25.33.813,PainUncertainty,2022.2.5,144.14726085210435,
grave,forte,stimuli/330Hz,stimuli/forte,bloc_7,prob80hthp_12trials.xlsx,2,24,80,20,1,,,,,0,6,6,6,0,7,7,5,,,,,,,,3.7,1473.0574092000024,1476.7614802000026,1476.7613491100115,0.30528859999321867,1477.2076722000056,1477.2076722000056,m,0.41919279999274295,1479.3840553000045,1479.3840553000045,82,1.698,,,sub-056,20,45,700,bloc_loop.csv,2023-10-04_18h25.33.813,PainUncertainty,2022.2.5,144.14726085210435,
aigu,forte,stimuli/660Hz,stimuli/forte,bloc_7,prob80hthp_12trials.xlsx,2,24,80,20,1,,,,,0,6,6,6,0,8,8,7,,,,,,,,4.2,1479.3840553000045,1483.5884972000058,1483.588520410011,0.3050362999929348,1484.0325910000101,1484.0325910000101,m,0.3928338999830885,1486.6388933000126,1486.6388933000126,79,2.142,,,sub-056,20,45,700,bloc_loop.csv,2023-10-04_18h25.33.813,PainUncertainty,2022.2.5,144.14726085210435,
grave,moderee,stimuli/330Hz,stimuli/moderee,bloc_7,prob80hthp_12trials.xlsx,2,24,80,20,1,,,,,0,6,6,6,0,9,9,1,,,,,,,,4.3,1486.6388933000126,1490.9433063000033,1490.9433571100003,0.30513939999218564,1491.3875710000138,1491.3875710000138,n,0.4676135999907274,1493.1740285000124,1493.1740285000124,20,1.253,,,sub-056,20,45,700,bloc_loop.csv,2023-10-04_18h25.33.813,PainUncertainty,2022.2.5,144.14726085210435,
grave,moderee,stimuli/330Hz,stimuli/moderee,bloc_7,prob80hthp_12trials.xlsx,2,24,80,20,1,,,,,0,6,6,6,0,10,10,0,,,,,,,,4.6,1493.1740285000124,1497.7773662000109,1497.7774437100074,0.30529370000294875,1498.221843300009,1498.221843300009,n,0.5189530999923591,1500.1245454000018,1500.1245454000018,18,1.33,,,sub-056,20,45,700,bloc_loop.csv,2023-10-04_18h25.33.813,PainUncertainty,2022.2.5,144.14726085210435,
grave,moderee,stimuli/330Hz,stimuli/moderee,bloc_7,prob80hthp_12trials.xlsx,2,24,80,20,1,,,,,0,6,6,6,0,11,11,3,,,,,,,,3.2,1500.1245454000018,1503.3267285000038,1503.3265078099998,0.30544120000558905,1503.7708752000035,1503.7708752000035,n,0.584287099991343,1505.9102461000002,1505.9102461000002,20,1.49,,,sub-056,20,45,700,bloc_loop.csv,2023-10-04_18h25.33.813,PainUncertainty,2022.2.5,144.14726085210435,
grave,moderee,stimuli/330Hz,stimuli/moderee,bloc_7,prob80hthp_12trials.xlsx,2,24,80,20,1,,,,,0,6,6,6,1,0,12,0,,,,,,,,4.7,1505.9102461000002,1510.612246100005,1510.6122339100025,0.30513919999066275,1511.0565664000023,1511.0565664000023,n,0.9987802999967244,1514.0096880000056,1514.0096880000056,21,1.899,,,sub-056,20,45,700,bloc_loop.csv,2023-10-04_18h25.33.813,PainUncertainty,2022.2.5,144.14726085210435,
grave,moderee,stimuli/330Hz,stimuli/moderee,bloc_7,prob80hthp_12trials.xlsx,2,24,80,20,1,,,,,0,6,6,6,1,1,13,1,,,,,,,,4.8,1514.0096880000056,1518.8145518000092,1518.8146002100025,0.30508990000816993,1519.258999400001,1519.258999400001,n,0.454770299984375,1521.328194600006,1521.328194600006,21,1.55,,,sub-056,20,45,700,bloc_loop.csv,2023-10-04_18h25.33.813,PainUncertainty,2022.2.5,144.14726085210435,
grave,moderee,stimuli/330Hz,stimuli/moderee,bloc_7,prob80hthp_12trials.xlsx,2,24,80,20,1,,,,,0,6,6,6,1,2,14,3,,,,,,,,4.5,1521.328194600006,1525.8294313000079,1525.829316910013,0.2993341999972472,1526.2681378000125,1526.2681378000125,n,0.48562789999414235,1529.1435880000063,1529.1435880000063,19,2.305,,,sub-056,20,45,700,bloc_loop.csv,2023-10-04_18h25.33.813,PainUncertainty,2022.2.5,144.14726085210435,
aigu,forte,stimuli/660Hz,stimuli/forte,bloc_7,prob80hthp_12trials.xlsx,2,24,80,20,1,,,,,0,6,6,6,1,3,15,8,,,,,,,,4.3,1529.1435880000063,1533.4483996000054,1533.4482665100136,0.30561239999951795,1533.897339800009,1533.897339800009,m,0.41187759999593254,1536.4619707000093,1536.4619707000093,67,2.094,,,sub-056,20,45,700,bloc_loop.csv,2023-10-04_18h25.33.813,PainUncertainty,2022.2.5,144.14726085210435,
aigu,forte,stimuli/660Hz,stimuli/forte,bloc_7,prob80hthp_12trials.xlsx,2,24,80,20,1,,,,,0,6,6,6,1,4,16,6,,,,,,,,3.7,1536.4619707000093,1540.1643977000058,1540.164387510004,0.30507289999513887,1540.608611100004,1540.608611100004,m,0.5718823999923188,1543.2517663000035,1543.2517663000035,83,2.004,,,sub-056,20,45,700,bloc_loop.csv,2023-10-04_18h25.33.813,PainUncertainty,2022.2.5,144.14726085210435,
aigu,forte,stimuli/660Hz,stimuli/forte,bloc_7,prob80hthp_12trials.xlsx,2,24,80,20,1,,,,,0,6,6,6,1,5,17,9,,,,,,,,3.2,1543.2517663000035,1546.4570892000047,1546.4571792100091,0.30508890000055544,1546.905820400003,1546.905820400003,m,0.5486186999914935,1549.4345944000088,1549.4345944000088,87,1.925,,,sub-056,20,45,700,bloc_loop.csv,2023-10-04_18h25.33.813,PainUncertainty,2022.2.5,144.14726085210435,
grave,forte,stimuli/330Hz,stimuli/forte,bloc_7,prob80hthp_12trials.xlsx,2,24,80,20,1,,,,,0,6,6,6,1,6,18,5,,,,,,,,4.9,1549.4345944000088,1554.3399455000035,1554.3400144100074,0.3048980000021402,1554.7841817000008,1554.7841817000008,m,0.5033853999921121,1556.4510990000126,1556.4510990000126,90,1.1,,,sub-056,20,45,700,bloc_loop.csv,2023-10-04_18h25.33.813,PainUncertainty,2022.2.5,144.14726085210435,
aigu,forte,stimuli/660Hz,stimuli/forte,bloc_7,prob80hthp_12trials.xlsx,2,24,80,20,1,,,,,0,6,6,6,1,7,19,10,,,,,,,,3.6,1556.4510990000126,1560.0577489000134,1560.0558890100133,0.305212000006577,1560.503480600004,1560.503480600004,m,0.8395514999865554,1563.7857950000034,1563.7857950000034,92,2.372,,,sub-056,20,45,700,bloc_loop.csv,2023-10-04_18h25.33.813,PainUncertainty,2022.2.5,144.14726085210435,
aigu,moderee,stimuli/660Hz,stimuli/moderee,bloc_7,prob80hthp_12trials.xlsx,2,24,80,20,1,,,,,0,6,6,6,1,8,20,11,,,,,,,,3.9,1563.7857950000034,1567.688891800004,1567.689054510009,0.2992071000044234,1568.1334505000123,1568.1334505000123,n,0.485636199999135,1569.666612400004,1569.666612400004,16,0.983,,,sub-056,20,45,700,bloc_loop.csv,2023-10-04_18h25.33.813,PainUncertainty,2022.2.5,144.14726085210435,
grave,moderee,stimuli/330Hz,stimuli/moderee,bloc_7,prob80hthp_12trials.xlsx,2,24,80,20,1,,,,,0,6,6,6,1,9,21,4,,,,,,,,3.6,1569.666612400004,1573.2724745000014,1573.2725934100076,0.29913239998859353,1573.7177485000138,1573.7177485000138,n,0.587623799990979,1575.897338900002,1575.897338900002,41,1.518,,,sub-056,20,45,700,bloc_loop.csv,2023-10-04_18h25.33.813,PainUncertainty,2022.2.5,144.14726085210435,
aigu,forte,stimuli/660Hz,stimuli/forte,bloc_7,prob80hthp_12trials.xlsx,2,24,80,20,1,,,,,0,6,6,6,1,10,22,7,,,,,,,,3.1,1575.897338900002,1579.0023535000073,1579.0024230100012,0.3049310000060359,1579.446588900013,1579.446588900013,m,0.4037353999883635,1581.298558200011,1581.298558200011,79,1.37,,,sub-056,20,45,700,bloc_loop.csv,2023-10-04_18h25.33.813,PainUncertainty,2022.2.5,144.14726085210435,
grave,moderee,stimuli/330Hz,stimuli/moderee,bloc_7,prob80hthp_12trials.xlsx,2,24,80,20,1,,,,,0,6,6,6,1,11,23,2,,,,,,,,4,1581.298558200011,1585.3017426000006,1585.30189311,0.30494079999334645,1585.749926400007,1585.749926400007,n,0.4565283999836538,1589.1656315,1589.1656315,16,0.928,,,sub-056,20,45,700,bloc_loop.csv,2023-10-04_18h25.33.813,PainUncertainty,2022.2.5,144.14726085210435,
,,,,bloc_7,prob80hthp_12trials.xlsx,2,24,80,20,1,,,,,0,6,6,6,,,,,0,0,0,0,,,,,,,,,,,,,,,,,1589.1656315,1624.0492700000032,sub-056,20,45,700,bloc_loop.csv,2023-10-04_18h25.33.813,PainUncertainty,2022.2.5,144.14726085210435,
grave,moderee,stimuli/330Hz,stimuli/moderee,bloc_8,prob50_50_4trials.xlsx,3,12,50,50,0,,,,,0,7,7,7,0,0,0,0,,,,,,,,4.6,1625.2422040000092,1629.8417083000095,1629.8416401100026,0.30491419999452773,1630.2858350000024,1630.2858350000024,n,0.4330522999953246,1631.489960900013,1631.489960900013,20,0.691,,,sub-056,20,45,700,bloc_loop.csv,2023-10-04_18h25.33.813,PainUncertainty,2022.2.5,144.14726085210435,
aigu,forte,stimuli/660Hz,stimuli/forte,bloc_8,prob50_50_4trials.xlsx,3,12,50,50,0,,,,,0,7,7,7,0,1,1,3,,,,,,,,3.4,1631.489960900013,1634.890845300004,1634.8908582100034,0.30497540000942536,1635.3350995000073,1635.3350995000073,m,0.37565129999711644,1637.8005432000064,1637.8005432000064,63,2.025,,,sub-056,20,45,700,bloc_loop.csv,2023-10-04_18h25.33.813,PainUncertainty,2022.2.5,144.14726085210435,
aigu,moderee,stimuli/660Hz,stimuli/moderee,bloc_8,prob50_50_4trials.xlsx,3,12,50,50,0,,,,,0,7,7,7,0,2,2,2,,,,,,,,3.4,1637.8005432000064,1641.2041027000087,1641.2041442100076,0.3049863999913214,1641.6487346000067,1641.6487346000067,n,0.48218599997926503,1643.60247350001,1643.60247350001,29,1.392,,,sub-056,20,45,700,bloc_loop.csv,2023-10-04_18h25.33.813,PainUncertainty,2022.2.5,144.14726085210435,
grave,forte,stimuli/330Hz,stimuli/forte,bloc_8,prob50_50_4trials.xlsx,3,12,50,50,0,,,,,0,7,7,7,0,3,3,1,,,,,,,,4.7,1643.60247350001,1648.3021923000051,1648.3020880099998,0.30526959999406245,1648.7506420999998,1648.7506420999998,m,0.31561509998573456,1650.7128166000039,1650.7128166000039,70,1.565,,,sub-056,20,45,700,bloc_loop.csv,2023-10-04_18h25.33.813,PainUncertainty,2022.2.5,144.14726085210435,
aigu,moderee,stimuli/660Hz,stimuli/moderee,bloc_8,prob50_50_4trials.xlsx,3,12,50,50,0,,,,,0,7,7,7,1,0,4,2,,,,,,,,4,1650.7128166000039,1654.7132645000092,1654.7126498100029,0.30551330000162125,1655.1608291000011,1655.1608291000011,n,0.434793999986141,1656.769575600003,1656.769575600003,13,1.087,,,sub-056,20,45,700,bloc_loop.csv,2023-10-04_18h25.33.813,PainUncertainty,2022.2.5,144.14726085210435,
grave,forte,stimuli/330Hz,stimuli/forte,bloc_8,prob50_50_4trials.xlsx,3,12,50,50,0,,,,,0,7,7,7,1,1,5,1,,,,,,,,3.8,1656.769575600003,1660.5748325000022,1660.5748411100126,0.30496980001043994,1661.0191373000125,1661.0191373000125,m,0.48668739999993704,1663.2867628000095,1663.2867628000095,65,1.705,,,sub-056,20,45,700,bloc_loop.csv,2023-10-04_18h25.33.813,PainUncertainty,2022.2.5,144.14726085210435,
grave,moderee,stimuli/330Hz,stimuli/moderee,bloc_8,prob50_50_4trials.xlsx,3,12,50,50,0,,,,,0,7,7,7,1,2,6,0,,,,,,,,4.3,1663.2867628000095,1667.5892430000094,1667.5892049100134,0.29936710000038147,1668.0275847000012,1668.0275847000012,n,0.6106273999903351,1671.3270444000082,1671.3270444000082,20,2.608,,,sub-056,20,45,700,bloc_loop.csv,2023-10-04_18h25.33.813,PainUncertainty,2022.2.5,144.14726085210435,
aigu,forte,stimuli/660Hz,stimuli/forte,bloc_8,prob50_50_4trials.xlsx,3,12,50,50,0,,,,,0,7,7,7,1,3,7,3,,,,,,,,4.2,1671.3270444000082,1675.5279032000108,1675.5278458100133,0.3049955000024056,1675.9724758000084,1675.9724758000084,m,0.34449179998773616,1677.956468400007,1677.956468400007,78,1.587,,,sub-056,20,45,700,bloc_loop.csv,2023-10-04_18h25.33.813,PainUncertainty,2022.2.5,144.14726085210435,
aigu,forte,stimuli/660Hz,stimuli/forte,bloc_8,prob50_50_4trials.xlsx,3,12,50,50,0,,,,,0,7,7,7,2,0,8,3,,,,,,,,3.3,1677.956468400007,1681.2574127000116,1681.2574825100078,0.30493710000882857,1681.7058949000057,1681.7058949000057,m,0.46604269999079406,1684.3006569000136,1684.3006569000136,79,2.048,,,sub-056,20,45,700,bloc_loop.csv,2023-10-04_18h25.33.813,PainUncertainty,2022.2.5,144.14726085210435,
grave,moderee,stimuli/330Hz,stimuli/moderee,bloc_8,prob50_50_4trials.xlsx,3,12,50,50,0,,,,,0,7,7,7,2,1,9,0,,,,,,,,3.9,1684.3006569000136,1688.2026704000018,1688.2026631100075,0.305136200011475,1688.6470012000063,1688.6470012000063,n,0.4674827999842819,1691.154089500007,1691.154089500007,22,1.982,,,sub-056,20,45,700,bloc_loop.csv,2023-10-04_18h25.33.813,PainUncertainty,2022.2.5,144.14726085210435,
aigu,moderee,stimuli/660Hz,stimuli/moderee,bloc_8,prob50_50_4trials.xlsx,3,12,50,50,0,,,,,0,7,7,7,2,2,10,2,,,,,,,,3.5,1691.154089500007,1694.655231800003,1694.6552125100047,0.30525410000700504,1695.1019838000066,1695.1019838000066,n,0.48778839998703916,1697.8678507000004,1697.8678507000004,15,2.2,,,sub-056,20,45,700,bloc_loop.csv,2023-10-04_18h25.33.813,PainUncertainty,2022.2.5,144.14726085210435,
grave,forte,stimuli/330Hz,stimuli/forte,bloc_8,prob50_50_4trials.xlsx,3,12,50,50,0,,,,,0,7,7,7,2,3,11,1,,,,,,,,3.3,1697.8678507000004,1701.170344500002,1701.170103810006,0.3047623000020394,1701.6136939000135,1701.6136939000135,m,0.3873905999935232,1703.6673981000058,1703.6673981000058,82,1.581,,,sub-056,20,45,700,bloc_loop.csv,2023-10-04_18h25.33.813,PainUncertainty,2022.2.5,144.14726085210435,
aigu,moderee,stimuli/660Hz,stimuli/moderee,bloc_9,prob20hthp_12trials.xlsx,3,36,80,20,0,,,,,0,8,8,8,0,0,0,10,,,,,,,,5,1703.6673981000058,1708.6704564000102,1708.670415210005,0.3053036999917822,1709.1149445000046,1709.1149445000046,n,0.4798502999910852,1712.1844280000078,1712.1844280000078,19,2.51,,,sub-056,20,45,700,bloc_loop.csv,2023-10-04_18h25.33.813,PainUncertainty,2022.2.5,144.14726085210435,
grave,forte,stimuli/330Hz,stimuli/forte,bloc_9,prob20hthp_12trials.xlsx,3,36,80,20,0,,,,,0,8,8,8,0,1,1,0,,,,,,,,3.7,1712.1844280000078,1715.8866923000023,1715.886789710005,0.30479949999426026,1716.3308457000094,1716.3308457000094,n,0.4723484999849461,1718.3187707000034,1718.3187707000034,73,1.441,,,sub-056,20,45,700,bloc_loop.csv,2023-10-04_18h25.33.813,PainUncertainty,2022.2.5,144.14726085210435,
aigu,moderee,stimuli/660Hz,stimuli/moderee,bloc_9,prob20hthp_12trials.xlsx,3,36,80,20,0,,,,,0,8,8,8,0,2,2,7,,,,,,,,4.3,1718.3187707000034,1722.6235683000123,1722.6235227100028,0.30727679999836255,1723.075469400006,1723.075469400006,n,0.4081968999962555,1724.551464300006,1724.551464300006,15,1.011,,,sub-056,20,45,700,bloc_loop.csv,2023-10-04_18h25.33.813,PainUncertainty,2022.2.5,144.14726085210435,
aigu,moderee,stimuli/660Hz,stimuli/moderee,bloc_9,prob20hthp_12trials.xlsx,3,36,80,20,0,,,,,0,8,8,8,0,3,3,9,,,,,,,,3.5,1724.551464300006,1728.054569400003,1728.0546897100053,0.3048194000002695,1728.4987290999998,1728.4987290999998,n,0.492838699996355,1731.9969462000008,1731.9969462000008,13,2.948,,,sub-056,20,45,700,bloc_loop.csv,2023-10-04_18h25.33.813,PainUncertainty,2022.2.5,144.14726085210435,
aigu,moderee,stimuli/660Hz,stimuli/moderee,bloc_9,prob20hthp_12trials.xlsx,3,36,80,20,0,,,,,0,8,8,8,0,4,4,8,,,,,,,,4.4,1731.9969462000008,1736.3965752000076,1736.3963643100055,0.3055140999931609,1736.8435066000093,1736.8435066000093,n,0.4348182999819983,1739.7496148000064,1739.7496148000064,18,2.392,,,sub-056,20,45,700,bloc_loop.csv,2023-10-04_18h25.33.813,PainUncertainty,2022.2.5,144.14726085210435,
grave,forte,stimuli/330Hz,stimuli/forte,bloc_9,prob20hthp_12trials.xlsx,3,36,80,20,0,,,,,0,8,8,8,0,5,5,2,,,,,,,,4.1,1739.7496148000064,1743.855070900012,1743.8550154099999,0.3051246999966679,1744.2995542999997,1744.2995542999997,m,0.3802842999866698,1746.7137824000092,1746.7137824000092,80,1.961,,,sub-056,20,45,700,bloc_loop.csv,2023-10-04_18h25.33.813,PainUncertainty,2022.2.5,144.14726085210435,
grave,forte,stimuli/330Hz,stimuli/forte,bloc_9,prob20hthp_12trials.xlsx,3,36,80,20,0,,,,,0,8,8,8,0,6,6,4,,,,,,,,4.2,1746.7137824000092,1750.9185368000035,1750.9186151100062,0.3049748999910662,1751.363406400007,1751.363406400007,m,0.5390841999906115,1753.4910832000023,1753.4910832000023,85,1.511,,,sub-056,20,45,700,bloc_loop.csv,2023-10-04_18h25.33.813,PainUncertainty,2022.2.5,144.14726085210435,
aigu,moderee,stimuli/660Hz,stimuli/moderee,bloc_9,prob20hthp_12trials.xlsx,3,36,80,20,0,,,,,0,8,8,8,0,7,7,6,,,,,,,,5,1753.4910832000023,1758.4956412000029,1758.4956748099999,0.30540430000110064,1758.9401666000049,1758.9401666000049,n,0.5012280999944778,1762.1518295000133,1762.1518295000133,37,2.636,,,sub-056,20,45,700,bloc_loop.csv,2023-10-04_18h25.33.813,PainUncertainty,2022.2.5,144.14726085210435,
aigu,forte,stimuli/660Hz,stimuli/forte,bloc_9,prob20hthp_12trials.xlsx,3,36,80,20,0,,,,,0,8,8,8,0,8,8,11,,,,,,,,4.5,1762.1518295000133,1766.6564572000061,1766.6564139099996,0.30501019999792334,1767.1006400000042,1767.1006400000042,m,0.3434879999840632,1769.0375476000045,1769.0375476000045,83,1.539,,,sub-056,20,45,700,bloc_loop.csv,2023-10-04_18h25.33.813,PainUncertainty,2022.2.5,144.14726085210435,
grave,forte,stimuli/330Hz,stimuli/forte,bloc_9,prob20hthp_12trials.xlsx,3,36,80,20,0,,,,,0,8,8,8,0,9,9,3,,,,,,,,4.2,1769.0375476000045,1773.2404748000117,1773.2404810100038,0.3051512000092771,1773.684657500009,1773.684657500009,m,0.3388453999941703,1776.1176040000137,1776.1176040000137,77,2.017,,,sub-056,20,45,700,bloc_loop.csv,2023-10-04_18h25.33.813,PainUncertainty,2022.2.5,144.14726085210435,
grave,moderee,stimuli/330Hz,stimuli/moderee,bloc_9,prob20hthp_12trials.xlsx,3,36,80,20,0,,,,,0,8,8,8,0,10,10,5,,,,,,,,4.8,1776.1176040000137,1780.9220627000032,1780.9218797100098,0.3056261000019731,1781.3689105000085,1781.3689105000085,n,0.5093480999930762,1783.8352119000047,1783.8352119000047,26,1.879,,,sub-056,20,45,700,bloc_loop.csv,2023-10-04_18h25.33.813,PainUncertainty,2022.2.5,144.14726085210435,
grave,forte,stimuli/330Hz,stimuli/forte,bloc_9,prob20hthp_12trials.xlsx,3,36,80,20,0,,,,,0,8,8,8,0,11,11,1,,,,,,,,3.9,1783.8352119000047,1787.7355410000018,1787.7381682100008,0.3023906000016723,1788.1795774000057,1788.1795774000057,m,0.35184629997820593,1789.2818037000106,1789.2818037000106,80,0.699,,,sub-056,20,45,700,bloc_loop.csv,2023-10-04_18h25.33.813,PainUncertainty,2022.2.5,144.14726085210435,
aigu,forte,stimuli/660Hz,stimuli/forte,bloc_9,prob20hthp_12trials.xlsx,3,36,80,20,0,,,,,0,8,8,8,1,0,12,11,,,,,,,,3.3,1789.2818037000106,1792.5834839000017,1792.5835533100094,0.3049542999942787,1793.0316644000122,1793.0316644000122,m,0.39009519998217,1795.8178631000046,1795.8178631000046,77,2.345,,,sub-056,20,45,700,bloc_loop.csv,2023-10-04_18h25.33.813,PainUncertainty,2022.2.5,144.14726085210435,
grave,forte,stimuli/330Hz,stimuli/forte,bloc_9,prob20hthp_12trials.xlsx,3,36,80,20,0,,,,,0,8,8,8,1,1,13,3,,,,,,,,4.3,1795.8178631000046,1800.118757300006,1800.1201949100127,0.30433059998904355,1800.567763900006,1800.567763900006,m,0.6965169000031892,1802.3852978000068,1802.3852978000068,74,1.065,,,sub-056,20,45,700,bloc_loop.csv,2023-10-04_18h25.33.813,PainUncertainty,2022.2.5,144.14726085210435,
grave,forte,stimuli/330Hz,stimuli/forte,bloc_9,prob20hthp_12trials.xlsx,3,36,80,20,0,,,,,0,8,8,8,1,2,14,1,,,,,,,,4.1,1802.3852978000068,1806.4876592000073,1806.487562810004,0.3048582999908831,1806.9317809000058,1806.9317809000058,m,0.3930409999884432,1808.7283760999999,1808.7283760999999,85,1.343,,,sub-056,20,45,700,bloc_loop.csv,2023-10-04_18h25.33.813,PainUncertainty,2022.2.5,144.14726085210435,
grave,forte,stimuli/330Hz,stimuli/forte,bloc_9,prob20hthp_12trials.xlsx,3,36,80,20,0,,,,,0,8,8,8,1,3,15,2,,,,,,,,3.7,1808.7283760999999,1812.4326495000132,1812.4325455100102,0.3052821000019321,1812.8771001000132,1812.8771001000132,m,0.39613479998661205,1815.0893088000012,1815.0893088000012,83,1.74,,,sub-056,20,45,700,bloc_loop.csv,2023-10-04_18h25.33.813,PainUncertainty,2022.2.5,144.14726085210435,
aigu,moderee,stimuli/660Hz,stimuli/moderee,bloc_9,prob20hthp_12trials.xlsx,3,36,80,20,0,,,,,0,8,8,8,1,4,16,10,,,,,,,,4.6,1815.0893088000012,1819.6925192000053,1819.6907354100026,0.3008953999960795,1820.135186200001,1820.135186200001,n,0.5178085999941686,1821.5433409000107,1821.5433409000107,24,0.815,,,sub-056,20,45,700,bloc_loop.csv,2023-10-04_18h25.33.813,PainUncertainty,2022.2.5,144.14726085210435,
grave,forte,stimuli/330Hz,stimuli/forte,bloc_9,prob20hthp_12trials.xlsx,3,36,80,20,0,,,,,0,8,8,8,1,5,17,0,,,,,,,,3.6,1821.5433409000107,1825.142433400004,1825.142407910002,0.30521970000700094,1825.5867894000112,1825.5867894000112,m,0.5863111999788089,1827.2987110000104,1827.2987110000104,85,1.053,,,sub-056,20,45,700,bloc_loop.csv,2023-10-04_18h25.33.813,PainUncertainty,2022.2.5,144.14726085210435,
aigu,moderee,stimuli/660Hz,stimuli/moderee,bloc_9,prob20hthp_12trials.xlsx,3,36,80,20,0,,,,,0,8,8,8,1,6,18,7,,,,,,,,4.7,1827.2987110000104,1831.9972625000082,1831.9980255100004,0.30467959999805316,1832.4417025000002,1832.4417025000002,n,0.4595361999963643,1834.7585629000096,1834.7585629000096,21,1.802,,,sub-056,20,45,700,bloc_loop.csv,2023-10-04_18h25.33.813,PainUncertainty,2022.2.5,144.14726085210435,
grave,moderee,stimuli/330Hz,stimuli/moderee,bloc_9,prob20hthp_12trials.xlsx,3,36,80,20,0,,,,,0,8,8,8,1,7,19,5,,,,,,,,5,1834.7585629000096,1839.762470600006,1839.7623491100007,0.30497440000181086,1840.206669600011,1840.206669600011,n,0.3913297999970382,1841.5192414000048,1841.5192414000048,16,0.854,,,sub-056,20,45,700,bloc_loop.csv,2023-10-04_18h25.33.813,PainUncertainty,2022.2.5,144.14726085210435,
aigu,moderee,stimuli/660Hz,stimuli/moderee,bloc_9,prob20hthp_12trials.xlsx,3,36,80,20,0,,,,,0,8,8,8,1,8,20,8,,,,,,,,3.3,1841.5192414000048,1844.8185096000088,1844.8185323100101,0.3048925000039162,1845.2626473000128,1845.2626473000128,n,0.4109775999968406,1847.3659231000056,1847.3659231000056,16,1.636,,,sub-056,20,45,700,bloc_loop.csv,2023-10-04_18h25.33.813,PainUncertainty,2022.2.5,144.14726085210435,
aigu,moderee,stimuli/660Hz,stimuli/moderee,bloc_9,prob20hthp_12trials.xlsx,3,36,80,20,0,,,,,0,8,8,8,1,9,21,6,,,,,,,,4.9,1847.3659231000056,1852.270739700005,1852.2708134100017,0.3049112000007881,1852.7193079000135,1852.7193079000135,n,0.41941629999200813,1856.7782650000008,1856.7782650000008,29,3.585,,,sub-056,20,45,700,bloc_loop.csv,2023-10-04_18h25.33.813,PainUncertainty,2022.2.5,144.14726085210435,
aigu,moderee,stimuli/660Hz,stimuli/moderee,bloc_9,prob20hthp_12trials.xlsx,3,36,80,20,0,,,,,0,8,8,8,1,10,22,9,,,,,,,,3.9,1856.7782650000008,1860.6813754000032,1860.681388610005,0.30499679999775253,1861.125534900013,1861.125534900013,n,0.4359750999865355,1864.099347700001,1864.099347700001,19,2.454,,,sub-056,20,45,700,bloc_loop.csv,2023-10-04_18h25.33.813,PainUncertainty,2022.2.5,144.14726085210435,
grave,forte,stimuli/330Hz,stimuli/forte,bloc_9,prob20hthp_12trials.xlsx,3,36,80,20,0,,,,,0,8,8,8,1,11,23,4,,,,,,,,3.9,1864.099347700001,1868.001710200013,1868.0016340100033,0.30533119999745395,1868.4501709000033,1868.4501709000033,m,0.49014399998122826,1871.3673565000063,1871.3673565000063,69,2.364,,,sub-056,20,45,700,bloc_loop.csv,2023-10-04_18h25.33.813,PainUncertainty,2022.2.5,144.14726085210435,
grave,forte,stimuli/330Hz,stimuli/forte,bloc_9,prob20hthp_12trials.xlsx,3,36,80,20,0,,,,,0,8,8,8,2,0,24,4,,,,,,,,3.5,1871.3673565000063,1874.8705480000062,1874.8705502100115,0.3015728000027593,1875.3151803000073,1875.3151803000073,m,0.5745248999883188,1878.6226711000054,1878.6226711000054,76,2.671,,,sub-056,20,45,700,bloc_loop.csv,2023-10-04_18h25.33.813,PainUncertainty,2022.2.5,144.14726085210435,
grave,forte,stimuli/330Hz,stimuli/forte,bloc_9,prob20hthp_12trials.xlsx,3,36,80,20,0,,,,,0,8,8,8,2,1,25,1,,,,,,,,5,1878.6226711000054,1883.6285188000038,1883.6285276100011,0.3049600000085775,1884.0729504000046,1884.0729504000046,m,0.5971232999872882,1887.1243577999994,1887.1243577999994,78,2.386,,,sub-056,20,45,700,bloc_loop.csv,2023-10-04_18h25.33.813,PainUncertainty,2022.2.5,144.14726085210435,
aigu,moderee,stimuli/660Hz,stimuli/moderee,bloc_9,prob20hthp_12trials.xlsx,3,36,80,20,0,,,,,0,8,8,8,2,2,26,6,,,,,,,,4,1887.1243577999994,1891.1295225000067,1891.129380210003,0.3048984999913955,1891.5736770000076,1891.5736770000076,n,0.7848488999879919,1893.2264254000038,1893.2264254000038,16,0.814,,,sub-056,20,45,700,bloc_loop.csv,2023-10-04_18h25.33.813,PainUncertainty,2022.2.5,144.14726085210435,
grave,moderee,stimuli/330Hz,stimuli/moderee,bloc_9,prob20hthp_12trials.xlsx,3,36,80,20,0,,,,,0,8,8,8,2,3,27,5,,,,,,,,4.1,1893.2264254000038,1897.3317976000108,1897.3330562100077,0.30397350000566803,1897.7793683000054,1897.7793683000054,n,0.3920757999876514,1899.7792003000068,1899.7792003000068,17,1.552,,,sub-056,20,45,700,bloc_loop.csv,2023-10-04_18h25.33.813,PainUncertainty,2022.2.5,144.14726085210435,
aigu,moderee,stimuli/660Hz,stimuli/moderee,bloc_9,prob20hthp_12trials.xlsx,3,36,80,20,0,,,,,0,8,8,8,2,4,28,10,,,,,,,,3.4,1899.7792003000068,1903.1795020999998,1903.1795166100114,0.30137489999469835,1903.624471800009,1903.624471800009,n,0.37689569998474326,1905.563375800004,1905.563375800004,17,1.489,,,sub-056,20,45,700,bloc_loop.csv,2023-10-04_18h25.33.813,PainUncertainty,2022.2.5,144.14726085210435,
grave,forte,stimuli/330Hz,stimuli/forte,bloc_9,prob20hthp_12trials.xlsx,3,36,80,20,0,,,,,0,8,8,8,2,5,29,2,,,,,,,,5,1905.563375800004,1910.5701273000013,1910.5692194100034,0.3049979000061285,1911.0139622000133,1911.0139622000133,m,0.46396969999477733,1912.6884848000045,1912.6884848000045,79,1.156,,,sub-056,20,45,700,bloc_loop.csv,2023-10-04_18h25.33.813,PainUncertainty,2022.2.5,144.14726085210435,
grave,forte,stimuli/330Hz,stimuli/forte,bloc_9,prob20hthp_12trials.xlsx,3,36,80,20,0,,,,,0,8,8,8,2,6,30,3,,,,,,,,5,1912.6884848000045,1917.6881793000066,1917.6881338100125,0.3051458999980241,1918.1328257999994,1918.1328257999994,m,0.42544140000245534,1920.6802642000112,1920.6802642000112,76,2.039,,,sub-056,20,45,700,bloc_loop.csv,2023-10-04_18h25.33.813,PainUncertainty,2022.2.5,144.14726085210435,
aigu,moderee,stimuli/660Hz,stimuli/moderee,bloc_9,prob20hthp_12trials.xlsx,3,36,80,20,0,,,,,0,8,8,8,2,7,31,9,,,,,,,,4,1920.6802642000112,1924.6820376000105,1924.6821483100125,0.30476939999789465,1925.126259200013,1925.126259200013,n,0.4089366999978665,1927.9494334000046,1927.9494334000046,19,2.359,,,sub-056,20,45,700,bloc_loop.csv,2023-10-04_18h25.33.813,PainUncertainty,2022.2.5,144.14726085210435,
aigu,moderee,stimuli/660Hz,stimuli/moderee,bloc_9,prob20hthp_12trials.xlsx,3,36,80,20,0,,,,,0,8,8,8,2,8,32,8,,,,,,,,4.2,1927.9494334000046,1932.155424800003,1932.1553246099998,0.3047398000053363,1932.5996045000065,1932.5996045000065,n,0.4214326999790501,1936.0857221000042,1936.0857221000042,11,2.989,,,sub-056,20,45,700,bloc_loop.csv,2023-10-04_18h25.33.813,PainUncertainty,2022.2.5,144.14726085210435,
aigu,forte,stimuli/660Hz,stimuli/forte,bloc_9,prob20hthp_12trials.xlsx,3,36,80,20,0,,,,,0,8,8,8,2,9,33,11,,,,,,,,4.4,1936.0857221000042,1940.4895154000114,1940.4895643100085,0.3015341999998782,1940.9346008000139,1940.9346008000139,m,0.35447259999637026,1943.8814573000127,1943.8814573000127,74,2.511,,,sub-056,20,45,700,bloc_loop.csv,2023-10-04_18h25.33.813,PainUncertainty,2022.2.5,144.14726085210435,
aigu,moderee,stimuli/660Hz,stimuli/moderee,bloc_9,prob20hthp_12trials.xlsx,3,36,80,20,0,,,,,0,8,8,8,2,10,34,7,,,,,,,,4.3,1943.8814573000127,1948.185423700008,1948.1852087100037,0.30499360000249,1948.6329941000004,1948.6329941000004,n,0.4540120999881765,1950.5450901000004,1950.5450901000004,11,1.385,,,sub-056,20,45,700,bloc_loop.csv,2023-10-04_18h25.33.813,PainUncertainty,2022.2.5,144.14726085210435,
grave,forte,stimuli/330Hz,stimuli/forte,bloc_9,prob20hthp_12trials.xlsx,3,36,80,20,0,,,,,0,8,8,8,2,11,35,0,,,,,,,,4.2,1950.5450901000004,1954.748193700012,1954.7480035100075,0.3073731000040425,1955.1999945000134,1955.1999945000134,m,0.5668761999841081,1956.649541100007,1956.649541100007,77,0.858,,,sub-056,20,45,700,bloc_loop.csv,2023-10-04_18h25.33.813,PainUncertainty,2022.2.5,144.14726085210435,
