cue_,stimulus_,cue_fichier,stimulus_fichier,block_name,block_trials_file,block_n_reps,block_ntrials,block_prob_highP_highT,block_prob_highP_lowT,block_pause_after,Bloc_essai.thisRepN,Bloc_essai.thisTrialN,Bloc_essai.thisN,Bloc_essai.thisIndex,blocks.thisRepN,blocks.thisTrialN,blocks.thisN,blocks.thisIndex,trials.thisRepN,trials.thisTrialN,trials.thisN,trials.thisIndex,pause_loop.thisRepN,pause_loop.thisTrialN,pause_loop.thisN,pause_loop.thisIndex,key_resp_5.started,start_calib.started,key_resp_2.started,ISI_duration,pause.started,pause.stopped,cue.started,ISI.started,choice_pain.started,Choice.started,choice_pain.stopped,Choice.stopped,choice_pain.keys,main_text.started,confirm_text.started,ratingScale.response,ratingScale.rt,choice_pain.rt,key_resp_3.started,key_resp_6.started,participant,low_ma,high_ma,failsafe_ma,block_file,date,expName,psychopyVersion,frameRate,
aigu,moderee,stimuli/660Hz,stimuli/moderee,,,,,,,,0,0,0,2,,,,,,,,,,,,,18.7289586,19.813291600000014,80.0362868,3.6,83.70411200000001,87.3182989,87.31504618000002,0.30100859999998875,87.75217,87.75217,90.2384098,90.2384098,None,93.5935887,93.5935887,19,3.307,,,,sub-041,40,65,700,bloc_loop.csv,2023-08-16_14h46.54.382,PainUncertainty,2022.2.5,142.8742877716577,
aigu,forte,stimuli/660Hz,stimuli/forte,,,,,,,,0,1,1,3,,,,,,,,,,,,,,,,4.9,93.5935887,98.49637470000002,98.49650979000002,0.30551249999999186,98.94506480000001,98.94506480000001,,,m,104.47848950000002,104.47848950000002,44,3.224,2.248245699999984,,,sub-041,40,65,700,bloc_loop.csv,2023-08-16_14h46.54.382,PainUncertainty,2022.2.5,142.8742877716577,
grave,forte,stimuli/330Hz,stimuli/forte,,,,,,,,0,2,2,1,,,,,,,,,,,,,,,,4.3,104.47848950000002,108.7826791,108.78254559,0.3012343000000044,109.2269914,109.2269914,,,m,112.79282270000002,112.79282270000002,42,1.483,2.0028179999999622,,,sub-041,40,65,700,bloc_loop.csv,2023-08-16_14h46.54.382,PainUncertainty,2022.2.5,142.8742877716577,
grave,moderee,stimuli/330Hz,stimuli/moderee,,,,,,,,0,3,3,0,,,,,,,,,,,,,,,,4.4,112.79282270000002,117.19307370000001,117.19321589000002,0.30499530000000163,117.63764840000002,117.63764840000002,,,n,122.16496990000002,122.16496990000002,13,3.899,0.6039362999999582,,,sub-041,40,65,700,bloc_loop.csv,2023-08-16_14h46.54.382,PainUncertainty,2022.2.5,142.8742877716577,
grave,forte,stimuli/330Hz,stimuli/forte,bloc_1,prob20hthp_12trials.xlsx,4,48,20,80,0,,,,,0,0,0,0,0,0,0,1,,,,,,,,4.2,172.267354,176.47078090000002,176.47075779000002,0.30547880000000305,176.9150257,176.9150257,,,m,179.6837787,179.6837787,44,1.892,0.8208527999999546,,,sub-041,40,65,700,bloc_loop.csv,2023-08-16_14h46.54.382,PainUncertainty,2022.2.5,142.8742877716577,
grave,forte,stimuli/330Hz,stimuli/forte,bloc_1,prob20hthp_12trials.xlsx,4,48,20,80,0,,,,,0,0,0,0,0,1,1,4,,,,,,,,4.2,179.6837787,183.88839540000004,183.88838139000003,0.30512509999999793,184.33305640000003,184.33305640000003,,,m,187.37664460000002,187.37664460000002,45,2.406,0.5593059999999355,,,sub-041,40,65,700,bloc_loop.csv,2023-08-16_14h46.54.382,PainUncertainty,2022.2.5,142.8742877716577,
grave,moderee,stimuli/330Hz,stimuli/moderee,bloc_1,prob20hthp_12trials.xlsx,4,48,20,80,0,,,,,0,0,0,0,0,2,2,5,,,,,,,,3.9,187.37664460000002,191.2780846,191.27819909000002,0.3051135999999701,191.726046,191.726046,,,n,196.4236828,196.4236828,10,3.996,0.6326604999999859,,,sub-041,40,65,700,bloc_loop.csv,2023-08-16_14h46.54.382,PainUncertainty,2022.2.5,142.8742877716577,
grave,forte,stimuli/330Hz,stimuli/forte,bloc_1,prob20hthp_12trials.xlsx,4,48,20,80,0,,,,,0,0,0,0,0,3,3,0,,,,,,,,3.8,196.4236828,200.22363180000002,200.22372849,0.30522880000000896,200.6679711,200.6679711,,,m,204.9449452,204.9449452,35,3.171,1.0395624999999882,,,sub-041,40,65,700,bloc_loop.csv,2023-08-16_14h46.54.382,PainUncertainty,2022.2.5,142.8742877716577,
grave,forte,stimuli/330Hz,stimuli/forte,bloc_1,prob20hthp_12trials.xlsx,4,48,20,80,0,,,,,0,0,0,0,0,4,4,3,,,,,,,,3.2,204.9449452,208.148905,208.14908229000005,0.30474149999997735,208.59650010000001,208.59650010000001,,,m,213.2415026,213.2415026,37,3.726,0.8631940000000213,,,sub-041,40,65,700,bloc_loop.csv,2023-08-16_14h46.54.382,PainUncertainty,2022.2.5,142.8742877716577,
aigu,forte,stimuli/660Hz,stimuli/forte,bloc_1,prob20hthp_12trials.xlsx,4,48,20,80,0,,,,,0,0,0,0,0,5,5,11,,,,,,,,4.1,213.2415026,217.34437480000003,217.34439459,0.30505850000002965,217.79266640000003,217.79266640000003,,,n,223.31366780000002,223.31366780000002,16,3.434,2.013259699999992,,,sub-041,40,65,700,bloc_loop.csv,2023-08-16_14h46.54.382,PainUncertainty,2022.2.5,142.8742877716577,
aigu,moderee,stimuli/660Hz,stimuli/moderee,bloc_1,prob20hthp_12trials.xlsx,4,48,20,80,0,,,,,0,0,0,0,0,6,6,6,,,,,,,,4.3,223.31366780000002,227.61581990000002,227.61589319000004,0.305217099999993,228.0601686,228.0601686,,,n,232.20374800000002,232.20374800000002,13,3.351,0.7192066999999724,,,sub-041,40,65,700,bloc_loop.csv,2023-08-16_14h46.54.382,PainUncertainty,2022.2.5,142.8742877716577,
grave,forte,stimuli/330Hz,stimuli/forte,bloc_1,prob20hthp_12trials.xlsx,4,48,20,80,0,,,,,0,0,0,0,0,7,7,2,,,,,,,,3.7,232.20374800000002,235.90846820000002,235.90852069000002,0.3054046000000312,236.35632120000002,236.35632120000002,,,m,240.00423720000003,240.00423720000003,39,1.412,2.1694808999999964,,,sub-041,40,65,700,bloc_loop.csv,2023-08-16_14h46.54.382,PainUncertainty,2022.2.5,142.8742877716577,
aigu,moderee,stimuli/660Hz,stimuli/moderee,bloc_1,prob20hthp_12trials.xlsx,4,48,20,80,0,,,,,0,0,0,0,0,8,8,8,,,,,,,,4.6,240.00423720000003,244.6037518,244.60376749000002,0.30532859999999573,245.0482624,245.0482624,,,n,247.67793460000001,247.67793460000001,11,2.095,0.48518729999995003,,,sub-041,40,65,700,bloc_loop.csv,2023-08-16_14h46.54.382,PainUncertainty,2022.2.5,142.8742877716577,
aigu,moderee,stimuli/660Hz,stimuli/moderee,bloc_1,prob20hthp_12trials.xlsx,4,48,20,80,0,,,,,0,0,0,0,0,9,9,9,,,,,,,,3.3,247.67793460000001,250.9801033,250.98012559000003,0.30501830000002883,251.42439940000003,251.42439940000003,,,n,254.1051476,254.1051476,18,1.394,1.2179816999999389,,,sub-041,40,65,700,bloc_loop.csv,2023-08-16_14h46.54.382,PainUncertainty,2022.2.5,142.8742877716577,
aigu,moderee,stimuli/660Hz,stimuli/moderee,bloc_1,prob20hthp_12trials.xlsx,4,48,20,80,0,,,,,0,0,0,0,0,10,10,10,,,,,,,,5,254.1051476,259.1059555,259.10654589,0.30475400000000263,259.5534492,259.5534492,,,n,261.36334170000003,261.36334170000003,22,1.147,0.5987389999999664,,,sub-041,40,65,700,bloc_loop.csv,2023-08-16_14h46.54.382,PainUncertainty,2022.2.5,142.8742877716577,
aigu,moderee,stimuli/660Hz,stimuli/moderee,bloc_1,prob20hthp_12trials.xlsx,4,48,20,80,0,,,,,0,0,0,0,0,11,11,7,,,,,,,,4.5,261.36334170000003,265.8636822,265.86416849,0.304466600000012,266.30745740000003,266.30745740000003,,,n,268.55926700000003,268.55926700000003,18,1.65,0.5326392999999712,,,sub-041,40,65,700,bloc_loop.csv,2023-08-16_14h46.54.382,PainUncertainty,2022.2.5,142.8742877716577,
grave,forte,stimuli/330Hz,stimuli/forte,bloc_1,prob20hthp_12trials.xlsx,4,48,20,80,0,,,,,0,0,0,0,1,0,12,0,,,,,,,,4.3,268.55926700000003,272.8645919,272.86460779,0.2996354999999653,273.3090088,273.3090088,,,m,276.0085388,276.0085388,46,1.843,0.8031892999999855,,,sub-041,40,65,700,bloc_loop.csv,2023-08-16_14h46.54.382,PainUncertainty,2022.2.5,142.8742877716577,
grave,forte,stimuli/330Hz,stimuli/forte,bloc_1,prob20hthp_12trials.xlsx,4,48,20,80,0,,,,,0,0,0,0,1,1,13,2,,,,,,,,4.2,276.0085388,280.2123384,280.21230599,0.3050013000000149,280.6564988,280.6564988,,,m,282.7386047,282.7386047,42,1.376,0.6338069999999334,,,sub-041,40,65,700,bloc_loop.csv,2023-08-16_14h46.54.382,PainUncertainty,2022.2.5,142.8742877716577,
aigu,moderee,stimuli/660Hz,stimuli/moderee,bloc_1,prob20hthp_12trials.xlsx,4,48,20,80,0,,,,,0,0,0,0,1,2,14,7,,,,,,,,3.5,282.7386047,286.2407831,286.24088549,0.30495250000001306,286.6849163,286.6849163,,,n,289.88758260000003,289.88758260000003,18,2.457,0.6617942999999968,,,sub-041,40,65,700,bloc_loop.csv,2023-08-16_14h46.54.382,PainUncertainty,2022.2.5,142.8742877716577,
grave,forte,stimuli/330Hz,stimuli/forte,bloc_1,prob20hthp_12trials.xlsx,4,48,20,80,0,,,,,0,0,0,0,1,3,15,4,,,,,,,,3.5,289.88758260000003,293.38738240000004,293.38764449,0.3049523999999906,293.8320431,293.8320431,,,m,296.1376944,296.1376944,47,1.649,0.5722336999999698,,,sub-041,40,65,700,bloc_loop.csv,2023-08-16_14h46.54.382,PainUncertainty,2022.2.5,142.8742877716577,
grave,moderee,stimuli/330Hz,stimuli/moderee,bloc_1,prob20hthp_12trials.xlsx,4,48,20,80,0,,,,,0,0,0,0,1,4,16,5,,,,,,,,4.7,296.1376944,300.8396329,300.83969419,0.30514719999996487,301.2838917,301.2838917,,,n,304.3225777,304.3225777,19,1.866,1.1140283999999951,,,sub-041,40,65,700,bloc_loop.csv,2023-08-16_14h46.54.382,PainUncertainty,2022.2.5,142.8742877716577,
aigu,moderee,stimuli/660Hz,stimuli/moderee,bloc_1,prob20hthp_12trials.xlsx,4,48,20,80,0,,,,,0,0,0,0,1,5,17,9,,,,,,,,3.5,304.3225777,307.8266344,307.82665409,0.3055825999999797,308.2749154,308.2749154,,,n,312.30196340000003,312.30196340000003,23,2.162,1.795848699999965,,,sub-041,40,65,700,bloc_loop.csv,2023-08-16_14h46.54.382,PainUncertainty,2022.2.5,142.8742877716577,
aigu,moderee,stimuli/660Hz,stimuli/moderee,bloc_1,prob20hthp_12trials.xlsx,4,48,20,80,0,,,,,0,0,0,0,1,6,18,8,,,,,,,,3.9,312.30196340000003,316.2027526,316.20282328999997,0.30560800000000654,316.6495334,316.6495334,319.1144995,319.1144995,None,322.0520916,322.0520916,18,2.9,,,,sub-041,40,65,700,bloc_loop.csv,2023-08-16_14h46.54.382,PainUncertainty,2022.2.5,142.8742877716577,
aigu,moderee,stimuli/660Hz,stimuli/moderee,bloc_1,prob20hthp_12trials.xlsx,4,48,20,80,0,,,,,0,0,0,0,1,7,19,6,,,,,,,,3.7,322.0520916,325.7524445,325.75255979,0.30143319999996265,326.1969353,326.1969353,,,n,329.8555392,329.8555392,18,2.629,0.9717121999999563,,,sub-041,40,65,700,bloc_loop.csv,2023-08-16_14h46.54.382,PainUncertainty,2022.2.5,142.8742877716577,
aigu,moderee,stimuli/660Hz,stimuli/moderee,bloc_1,prob20hthp_12trials.xlsx,4,48,20,80,0,,,,,0,0,0,0,1,8,20,10,,,,,,,,4.3,329.8555392,334.15668700000003,334.15674389,0.30504609999997,334.6027378,334.6027378,,,n,338.1535836,338.1535836,14,1.198,2.278083400000014,,,sub-041,40,65,700,bloc_loop.csv,2023-08-16_14h46.54.382,PainUncertainty,2022.2.5,142.8742877716577,
grave,forte,stimuli/330Hz,stimuli/forte,bloc_1,prob20hthp_12trials.xlsx,4,48,20,80,0,,,,,0,0,0,0,1,9,21,3,,,,,,,,3.3,338.1535836,341.4560934,341.45654009,0.3047168000000511,341.9039044,341.9039044,,,m,347.1528014,347.1528014,44,4.587,0.6132923000000119,,,sub-041,40,65,700,bloc_loop.csv,2023-08-16_14h46.54.382,PainUncertainty,2022.2.5,142.8742877716577,
grave,forte,stimuli/330Hz,stimuli/forte,bloc_1,prob20hthp_12trials.xlsx,4,48,20,80,0,,,,,0,0,0,0,1,10,22,1,,,,,,,,3.4,347.1528014,350.5538975,350.55385399,0.3052697999999623,350.99813140000003,350.99813140000003,,,m,354.9545555,354.9545555,46,2.601,1.2990029999999706,,,sub-041,40,65,700,bloc_loop.csv,2023-08-16_14h46.54.382,PainUncertainty,2022.2.5,142.8742877716577,
aigu,forte,stimuli/660Hz,stimuli/forte,bloc_1,prob20hthp_12trials.xlsx,4,48,20,80,0,,,,,0,0,0,0,1,11,23,11,,,,,,,,3.6,354.9545555,358.554818,358.55490909,0.3053752000000145,359.0017197,359.0017197,,,m,361.1577213,361.1577213,43,0.927,1.1689534999999864,,,sub-041,40,65,700,bloc_loop.csv,2023-08-16_14h46.54.382,PainUncertainty,2022.2.5,142.8742877716577,
aigu,forte,stimuli/660Hz,stimuli/forte,bloc_1,prob20hthp_12trials.xlsx,4,48,20,80,0,,,,,0,0,0,0,2,0,24,11,,,,,,,,3,361.1577213,364.1597933,364.15991458999997,0.30481630000002724,364.60416000000004,364.60416000000004,,,m,366.4512673,366.4512673,43,1.094,0.6887003999999592,,,sub-041,40,65,700,bloc_loop.csv,2023-08-16_14h46.54.382,PainUncertainty,2022.2.5,142.8742877716577,
grave,forte,stimuli/330Hz,stimuli/forte,bloc_1,prob20hthp_12trials.xlsx,4,48,20,80,0,,,,,0,0,0,0,2,1,25,2,,,,,,,,3.1,366.4512673,369.55614,369.55625719,0.3002911000000381,370.0011602,370.0011602,,,m,372.9264788,372.9264788,42,2.241,0.6272555999999554,,,sub-041,40,65,700,bloc_loop.csv,2023-08-16_14h46.54.382,PainUncertainty,2022.2.5,142.8742877716577,
grave,forte,stimuli/330Hz,stimuli/forte,bloc_1,prob20hthp_12trials.xlsx,4,48,20,80,0,,,,,0,0,0,0,2,2,26,1,,,,,,,,3.9,372.9264788,376.8281837,376.82825219,0.3049196999999708,377.2722016,377.2722016,,,m,380.63215650000006,380.63215650000006,47,2.677,0.6046738999999661,,,sub-041,40,65,700,bloc_loop.csv,2023-08-16_14h46.54.382,PainUncertainty,2022.2.5,142.8742877716577,
aigu,moderee,stimuli/660Hz,stimuli/moderee,bloc_1,prob20hthp_12trials.xlsx,4,48,20,80,0,,,,,0,0,0,0,2,3,27,6,,,,,,,,3.3,380.63215650000006,383.93323,383.93328309000003,0.3051305000000184,384.38094490000003,384.38094490000003,,,n,386.97838709999996,386.97838709999996,12,2.004,0.5408651999999847,,,sub-041,40,65,700,bloc_loop.csv,2023-08-16_14h46.54.382,PainUncertainty,2022.2.5,142.8742877716577,
aigu,moderee,stimuli/660Hz,stimuli/moderee,bloc_1,prob20hthp_12trials.xlsx,4,48,20,80,0,,,,,0,0,0,0,2,4,28,9,,,,,,,,3.2,386.97838709999996,390.18357879999996,390.18360488999997,0.30116450000002715,390.6282616,390.6282616,,,n,393.615996,393.615996,14,1.531,1.3718781000000035,,,sub-041,40,65,700,bloc_loop.csv,2023-08-16_14h46.54.382,PainUncertainty,2022.2.5,142.8742877716577,
grave,forte,stimuli/330Hz,stimuli/forte,bloc_1,prob20hthp_12trials.xlsx,4,48,20,80,0,,,,,0,0,0,0,2,5,29,0,,,,,,,,4.3,393.615996,397.92068570000004,397.92083648999994,0.2993519000000333,398.36343940000006,398.36343940000006,,,m,399.9458416,399.9458416,47,0.99,0.5192458000000215,,,sub-041,40,65,700,bloc_loop.csv,2023-08-16_14h46.54.382,PainUncertainty,2022.2.5,142.8742877716577,
aigu,moderee,stimuli/660Hz,stimuli/moderee,bloc_1,prob20hthp_12trials.xlsx,4,48,20,80,0,,,,,0,0,0,0,2,6,30,8,,,,,,,,4.3,399.9458416,404.24780540000006,404.24774378999996,0.30528509999999187,404.6925453,404.6925453,,,m,410.16129809999995,410.16129809999995,45,3.413,1.9810611999998855,,,sub-041,40,65,700,bloc_loop.csv,2023-08-16_14h46.54.382,PainUncertainty,2022.2.5,142.8742877716577,
grave,forte,stimuli/330Hz,stimuli/forte,bloc_1,prob20hthp_12trials.xlsx,4,48,20,80,0,,,,,0,0,0,0,2,7,31,3,,,,,,,,4.2,410.16129809999995,414.36698190000004,414.36710788999994,0.30478259999995316,414.81135919999997,414.81135919999997,,,m,416.7011029,416.7011029,44,0.842,0.9593294999999671,,,sub-041,40,65,700,bloc_loop.csv,2023-08-16_14h46.54.382,PainUncertainty,2022.2.5,142.8742877716577,
grave,moderee,stimuli/330Hz,stimuli/moderee,bloc_1,prob20hthp_12trials.xlsx,4,48,20,80,0,,,,,0,0,0,0,2,8,32,5,,,,,,,,3.7,416.7011029,420.40272170000003,420.40317688999994,0.3040291999999454,420.8466231,420.8466231,,,n,422.0068963,422.0068963,10,0.51,0.5949152999999114,,,sub-041,40,65,700,bloc_loop.csv,2023-08-16_14h46.54.382,PainUncertainty,2022.2.5,142.8742877716577,
aigu,moderee,stimuli/660Hz,stimuli/moderee,bloc_1,prob20hthp_12trials.xlsx,4,48,20,80,0,,,,,0,0,0,0,2,9,33,7,,,,,,,,4.3,422.0068963,426.3062793,426.30625089,0.30528609999998935,426.75259460000007,426.75259460000007,,,n,432.0793222,432.0793222,13,4.545,0.7248029999999517,,,sub-041,40,65,700,bloc_loop.csv,2023-08-16_14h46.54.382,PainUncertainty,2022.2.5,142.8742877716577,
aigu,moderee,stimuli/660Hz,stimuli/moderee,bloc_1,prob20hthp_12trials.xlsx,4,48,20,80,0,,,,,0,0,0,0,2,10,34,10,,,,,,,,4.3,432.0793222,436.38425670000004,436.38412209,0.30486919999998463,436.8279781,436.8279781,,,n,438.6346433,438.6346433,17,1.127,0.6106571999999915,,,sub-041,40,65,700,bloc_loop.csv,2023-08-16_14h46.54.382,PainUncertainty,2022.2.5,142.8742877716577,
grave,forte,stimuli/330Hz,stimuli/forte,bloc_1,prob20hthp_12trials.xlsx,4,48,20,80,0,,,,,0,0,0,0,2,11,35,4,,,,,,,,3.5,438.6346433,442.13427290000004,442.13422259000004,0.30519249999997555,442.57851070000004,442.57851070000004,,,m,444.48714440000003,444.48714440000003,46,1.258,0.5768206000000191,,,sub-041,40,65,700,bloc_loop.csv,2023-08-16_14h46.54.382,PainUncertainty,2022.2.5,142.8742877716577,
grave,moderee,stimuli/330Hz,stimuli/moderee,bloc_1,prob20hthp_12trials.xlsx,4,48,20,80,0,,,,,0,0,0,0,3,0,36,5,,,,,,,,3.7,444.48714440000003,448.1909547,448.19094449,0.30475540000009005,448.63468090000003,448.63468090000003,,,m,452.54556590000004,452.54556590000004,44,1.866,1.9731918999999607,,,sub-041,40,65,700,bloc_loop.csv,2023-08-16_14h46.54.382,PainUncertainty,2022.2.5,142.8742877716577,
grave,forte,stimuli/330Hz,stimuli/forte,bloc_1,prob20hthp_12trials.xlsx,4,48,20,80,0,,,,,0,0,0,0,3,1,37,4,,,,,,,,3.9,452.54556590000004,456.44902650000006,456.44924739,0.30469030000006114,456.89698440000006,456.89698440000006,,,m,459.06752170000004,459.06752170000004,48,1.01,1.0917498000000023,,,sub-041,40,65,700,bloc_loop.csv,2023-08-16_14h46.54.382,PainUncertainty,2022.2.5,142.8742877716577,
aigu,moderee,stimuli/660Hz,stimuli/moderee,bloc_1,prob20hthp_12trials.xlsx,4,48,20,80,0,,,,,0,0,0,0,3,2,38,10,,,,,,,,4.2,459.06752170000004,463.2693177,463.26954289,0.30445559999998295,463.7131429,463.7131429,466.18076340000005,466.18076340000005,None,469.140889,469.140889,13,2.907,,,,sub-041,40,65,700,bloc_loop.csv,2023-08-16_14h46.54.382,PainUncertainty,2022.2.5,142.8742877716577,
grave,forte,stimuli/330Hz,stimuli/forte,bloc_1,prob20hthp_12trials.xlsx,4,48,20,80,0,,,,,0,0,0,0,3,3,39,3,,,,,,,,3.5,469.140889,472.644681,472.64515758999994,0.3048714999999902,473.0888552,473.0888552,,,m,475.3103913,475.3103913,48,1.565,0.5857009999999718,,,sub-041,40,65,700,bloc_loop.csv,2023-08-16_14h46.54.382,PainUncertainty,2022.2.5,142.8742877716577,
aigu,moderee,stimuli/660Hz,stimuli/moderee,bloc_1,prob20hthp_12trials.xlsx,4,48,20,80,0,,,,,0,0,0,0,3,4,40,7,,,,,,,,4.7,475.3103913,480.01367919999996,480.01367779,0.3048952000000327,480.4578815,480.4578815,,,n,482.7774236,482.7774236,14,1.74,0.513158899999894,,,sub-041,40,65,700,bloc_loop.csv,2023-08-16_14h46.54.382,PainUncertainty,2022.2.5,142.8742877716577,
grave,forte,stimuli/330Hz,stimuli/forte,bloc_1,prob20hthp_12trials.xlsx,4,48,20,80,0,,,,,0,0,0,0,3,5,41,2,,,,,,,,3.2,482.7774236,485.9796652,485.97972948999995,0.3052155999999968,486.4241108,486.4241108,,,n,490.08264370000006,490.08264370000006,22,1.893,1.7033810000000358,,,sub-041,40,65,700,bloc_loop.csv,2023-08-16_14h46.54.382,PainUncertainty,2022.2.5,142.8742877716577,
aigu,forte,stimuli/660Hz,stimuli/forte,bloc_1,prob20hthp_12trials.xlsx,4,48,20,80,0,,,,,0,0,0,0,3,6,42,11,,,,,,,,3.1,490.08264370000006,493.18233169999996,493.18279649,0.30017399999996996,493.6266435,493.6266435,,,m,496.6232168,496.6232168,47,1.796,1.1214664000000312,,,sub-041,40,65,700,bloc_loop.csv,2023-08-16_14h46.54.382,PainUncertainty,2022.2.5,142.8742877716577,
aigu,moderee,stimuli/660Hz,stimuli/moderee,bloc_1,prob20hthp_12trials.xlsx,4,48,20,80,0,,,,,0,0,0,0,3,7,43,6,,,,,,,,3.7,496.6232168,500.32858180000005,500.32868719,0.3053151000000298,500.77703080000003,500.77703080000003,,,n,504.617252,504.617252,14,1.411,2.357817299999965,,,sub-041,40,65,700,bloc_loop.csv,2023-08-16_14h46.54.382,PainUncertainty,2022.2.5,142.8742877716577,
grave,forte,stimuli/330Hz,stimuli/forte,bloc_1,prob20hthp_12trials.xlsx,4,48,20,80,0,,,,,0,0,0,0,3,8,44,0,,,,,,,,4.2,504.617252,508.8229077,508.82381849,0.30440599999997175,509.2707285,509.2707285,,,m,511.12426200000004,511.12426200000004,53,1.218,0.5572062999999616,,,sub-041,40,65,700,bloc_loop.csv,2023-08-16_14h46.54.382,PainUncertainty,2022.2.5,142.8742877716577,
aigu,moderee,stimuli/660Hz,stimuli/moderee,bloc_1,prob20hthp_12trials.xlsx,4,48,20,80,0,,,,,0,0,0,0,3,9,45,8,,,,,,,,4.4,511.12426200000004,515.5247551,515.52493819,0.3049159999999347,515.9689219,515.9689219,,,n,519.4068635,519.4068635,16,2.7,0.6557024999999612,,,sub-041,40,65,700,bloc_loop.csv,2023-08-16_14h46.54.382,PainUncertainty,2022.2.5,142.8742877716577,
grave,forte,stimuli/330Hz,stimuli/forte,bloc_1,prob20hthp_12trials.xlsx,4,48,20,80,0,,,,,0,0,0,0,3,10,46,1,,,,,,,,3,519.4068635,522.4075846000001,522.40777129,0.29977809999991223,522.8504569,522.8504569,,,m,526.6322159,526.6322159,46,3.163,0.5441931000000295,,,sub-041,40,65,700,bloc_loop.csv,2023-08-16_14h46.54.382,PainUncertainty,2022.2.5,142.8742877716577,
aigu,moderee,stimuli/660Hz,stimuli/moderee,bloc_1,prob20hthp_12trials.xlsx,4,48,20,80,0,,,,,0,0,0,0,3,11,47,9,,,,,,,,3.4,526.6322159,530.0334925,530.0335358899999,0.30507810000005975,530.47779,530.47779,,,n,533.2029903,533.2029903,12,1.872,0.7736820999999736,,,sub-041,40,65,700,bloc_loop.csv,2023-08-16_14h46.54.382,PainUncertainty,2022.2.5,142.8742877716577,
grave,forte,stimuli/330Hz,stimuli/forte,bloc_2,prob50_50_4trials.xlsx,2,8,50,50,1,,,,,0,1,1,1,0,0,0,1,,,,,,,,4.8,533.2029903,538.0066258,538.00673489,0.3050675000000638,538.4508475,538.4508475,,,m,540.395477,540.395477,46,1.219,0.6571999000000233,,,sub-041,40,65,700,bloc_loop.csv,2023-08-16_14h46.54.382,PainUncertainty,2022.2.5,142.8742877716577,
aigu,moderee,stimuli/660Hz,stimuli/moderee,bloc_2,prob50_50_4trials.xlsx,2,8,50,50,1,,,,,0,1,1,1,0,1,1,2,,,,,,,,5,540.395477,545.3960177,545.39700049,0.3045817999999372,545.8405706,545.8405706,,,n,547.4779549,547.4779549,13,0.969,0.6127551999999241,,,sub-041,40,65,700,bloc_loop.csv,2023-08-16_14h46.54.382,PainUncertainty,2022.2.5,142.8742877716577,
grave,moderee,stimuli/330Hz,stimuli/moderee,bloc_2,prob50_50_4trials.xlsx,2,8,50,50,1,,,,,0,1,1,1,0,2,2,0,,,,,,,,4.4,547.4779549,551.8832762,551.88334549,0.30528689999994185,552.3310472000001,552.3310472000001,,,n,556.5930406,556.5930406,10,3.407,0.7870597999999518,,,sub-041,40,65,700,bloc_loop.csv,2023-08-16_14h46.54.382,PainUncertainty,2022.2.5,142.8742877716577,
aigu,forte,stimuli/660Hz,stimuli/forte,bloc_2,prob50_50_4trials.xlsx,2,8,50,50,1,,,,,0,1,1,1,0,3,3,3,,,,,,,,4.7,556.5930406,561.2944116,561.29441239,0.30497170000001006,561.7383878,561.7383878,564.207166,564.207166,None,566.5188883,566.5188883,18,2.281,,,,sub-041,40,65,700,bloc_loop.csv,2023-08-16_14h46.54.382,PainUncertainty,2022.2.5,142.8742877716577,
aigu,forte,stimuli/660Hz,stimuli/forte,bloc_2,prob50_50_4trials.xlsx,2,8,50,50,1,,,,,0,1,1,1,1,0,4,3,,,,,,,,3.5,566.5188883,570.0180358,570.01827499,0.3041617999999744,570.4619418,570.4619418,,,m,572.8502986,572.8502986,45,1.356,0.9729085999999825,,,sub-041,40,65,700,bloc_loop.csv,2023-08-16_14h46.54.382,PainUncertainty,2022.2.5,142.8742877716577,
grave,forte,stimuli/330Hz,stimuli/forte,bloc_2,prob50_50_4trials.xlsx,2,8,50,50,1,,,,,0,1,1,1,1,1,5,1,,,,,,,,4.3,572.8502986,577.1501084,577.15040089,0.3048889000000372,577.5948978,577.5948978,,,m,581.8989632,581.8989632,45,3.178,1.056019699999979,,,sub-041,40,65,700,bloc_loop.csv,2023-08-16_14h46.54.382,PainUncertainty,2022.2.5,142.8742877716577,
grave,moderee,stimuli/330Hz,stimuli/moderee,bloc_2,prob50_50_4trials.xlsx,2,8,50,50,1,,,,,0,1,1,1,1,2,6,0,,,,,,,,3.8,581.8989632,585.7002828,585.70015569,0.30476690000000417,586.1440011,586.1440011,,,n,589.1915618,589.1915618,5,2.462,0.5208290999999008,,,sub-041,40,65,700,bloc_loop.csv,2023-08-16_14h46.54.382,PainUncertainty,2022.2.5,142.8742877716577,
aigu,moderee,stimuli/660Hz,stimuli/moderee,bloc_2,prob50_50_4trials.xlsx,2,8,50,50,1,,,,,0,1,1,1,1,3,7,2,,,,,,,,4.2,589.1915618,593.3951119,593.39513669,0.3055143000000271,593.8396539,593.8396539,,,n,600.8508338,600.8508338,11,3.65,1.3301532999998926,,,sub-041,40,65,700,bloc_loop.csv,2023-08-16_14h46.54.382,PainUncertainty,2022.2.5,142.8742877716577,
,,,,bloc_2,prob50_50_4trials.xlsx,2,8,50,50,1,,,,,0,1,1,1,,,,,0,0,0,0,,,,,,,,,,,,,,,,,,,600.8508338,673.9255419,sub-041,40,65,700,bloc_loop.csv,2023-08-16_14h46.54.382,PainUncertainty,2022.2.5,142.8742877716577,
aigu,forte,stimuli/660Hz,stimuli/forte,bloc_3,prob80hthp_12trials.xlsx,2,24,80,20,0,,,,,0,2,2,2,0,0,0,10,,,,,,,,4.3,674.9332425,679.2388737,679.23871979,0.3050369000000046,679.6827746,679.6827746,682.1520891,682.1520891,None,684.7651776,684.7651776,43,2.559,,,,sub-041,40,65,700,bloc_loop.csv,2023-08-16_14h46.54.382,PainUncertainty,2022.2.5,142.8742877716577,
grave,moderee,stimuli/330Hz,stimuli/moderee,bloc_3,prob80hthp_12trials.xlsx,2,24,80,20,0,,,,,0,2,2,2,0,1,1,0,,,,,,,,3.7,684.7651776,688.4694653,688.46925249,0.30523729999993066,688.9170884,688.9170884,,,n,691.2406617,691.2406617,12,1.619,0.6158202999999958,,,sub-041,40,65,700,bloc_loop.csv,2023-08-16_14h46.54.382,PainUncertainty,2022.2.5,142.8742877716577,
aigu,forte,stimuli/660Hz,stimuli/forte,bloc_3,prob80hthp_12trials.xlsx,2,24,80,20,0,,,,,0,2,2,2,0,2,2,8,,,,,,,,3,691.2406617,694.2404933,694.24053899,0.2995903000000908,694.685588,694.685588,,,m,698.4955699,698.4955699,39,2.253,1.5022519999999986,,,sub-041,40,65,700,bloc_loop.csv,2023-08-16_14h46.54.382,PainUncertainty,2022.2.5,142.8742877716577,
aigu,forte,stimuli/660Hz,stimuli/forte,bloc_3,prob80hthp_12trials.xlsx,2,24,80,20,0,,,,,0,2,2,2,0,3,3,6,,,,,,,,3.6,698.4955699,702.0956839,702.0956116899999,0.3054826000000048,702.5427639,702.5427639,,,m,704.9239395,704.9239395,45,1.712,0.590201699999966,,,sub-041,40,65,700,bloc_loop.csv,2023-08-16_14h46.54.382,PainUncertainty,2022.2.5,142.8742877716577,
grave,moderee,stimuli/330Hz,stimuli/moderee,bloc_3,prob80hthp_12trials.xlsx,2,24,80,20,0,,,,,0,2,2,2,0,4,4,1,,,,,,,,3.9,704.9239395,708.8254024,708.82543399,0.30503989999999703,709.2697646,709.2697646,,,m,712.0857415,712.0857415,44,1.921,0.8145888999999897,,,sub-041,40,65,700,bloc_loop.csv,2023-08-16_14h46.54.382,PainUncertainty,2022.2.5,142.8742877716577,
aigu,forte,stimuli/660Hz,stimuli/forte,bloc_3,prob80hthp_12trials.xlsx,2,24,80,20,0,,,,,0,2,2,2,0,5,5,7,,,,,,,,4.5,712.0857415,716.5906134,716.59079459,0.3049422000000277,717.0380113,717.0380113,,,None,722.1581207,722.1581207,42,2.602,,,,sub-041,40,65,700,bloc_loop.csv,2023-08-16_14h46.54.382,PainUncertainty,2022.2.5,142.8742877716577,
grave,moderee,stimuli/330Hz,stimuli/moderee,bloc_3,prob80hthp_12trials.xlsx,2,24,80,20,0,,,,,0,2,2,2,0,6,6,3,,,,,,,,4.9,722.1581207,727.0637077,727.06391519,0.29949920000001384,727.5063437,727.5063437,,,n,732.2944069,732.2944069,10,4.142,0.5781321999999136,,,sub-041,40,65,700,bloc_loop.csv,2023-08-16_14h46.54.382,PainUncertainty,2022.2.5,142.8742877716577,
aigu,forte,stimuli/660Hz,stimuli/forte,bloc_3,prob80hthp_12trials.xlsx,2,24,80,20,0,,,,,0,2,2,2,0,7,7,9,,,,,,,,4.9,732.2944069,737.1967372,737.19692549,0.3050318000000516,737.6409258,737.6409258,,,m,740.1917797,740.1917797,39,1.816,0.6551700999999639,,,sub-041,40,65,700,bloc_loop.csv,2023-08-16_14h46.54.382,PainUncertainty,2022.2.5,142.8742877716577,
aigu,moderee,stimuli/660Hz,stimuli/moderee,bloc_3,prob80hthp_12trials.xlsx,2,24,80,20,0,,,,,0,2,2,2,0,8,8,11,,,,,,,,4.9,740.1917797,745.0935689,745.09374179,0.30503060000000914,745.5381568,745.5381568,,,n,751.3033971,751.3033971,12,5.211,0.49033289999988483,,,sub-041,40,65,700,bloc_loop.csv,2023-08-16_14h46.54.382,PainUncertainty,2022.2.5,142.8742877716577,
grave,moderee,stimuli/330Hz,stimuli/moderee,bloc_3,prob80hthp_12trials.xlsx,2,24,80,20,0,,,,,0,2,2,2,0,9,9,2,,,,,,,,4.3,751.3033971,755.60916,755.60915899,0.3053295000000844,756.057175,756.057175,,,n,759.7932401,759.7932401,13,2.267,1.3977961999999025,,,sub-041,40,65,700,bloc_loop.csv,2023-08-16_14h46.54.382,PainUncertainty,2022.2.5,142.8742877716577,
grave,forte,stimuli/330Hz,stimuli/forte,bloc_3,prob80hthp_12trials.xlsx,2,24,80,20,0,,,,,0,2,2,2,0,10,10,5,,,,,,,,3.4,759.7932401,763.1930131,763.19301409,0.3049179000000777,763.637324,763.637324,,,m,767.2752433,767.2752433,43,3.059,0.5038792999998805,,,sub-041,40,65,700,bloc_loop.csv,2023-08-16_14h46.54.382,PainUncertainty,2022.2.5,142.8742877716577,
grave,moderee,stimuli/330Hz,stimuli/moderee,bloc_3,prob80hthp_12trials.xlsx,2,24,80,20,0,,,,,0,2,2,2,0,11,11,4,,,,,,,,3.6,767.2752433,770.8744927,770.87458519,0.3049567999998999,771.3188612,771.3188612,,,n,775.5893921,775.5893921,10,3.519,0.6711329999999407,,,sub-041,40,65,700,bloc_loop.csv,2023-08-16_14h46.54.382,PainUncertainty,2022.2.5,142.8742877716577,
aigu,forte,stimuli/660Hz,stimuli/forte,bloc_3,prob80hthp_12trials.xlsx,2,24,80,20,0,,,,,0,2,2,2,1,0,12,7,,,,,,,,4.8,775.5893921,780.3893844,780.38941979,0.3055159000000458,780.8339673,780.8339673,,,m,787.3060437,787.3060437,44,4.74,1.6306952999999567,,,sub-041,40,65,700,bloc_loop.csv,2023-08-16_14h46.54.382,PainUncertainty,2022.2.5,142.8742877716577,
aigu,forte,stimuli/660Hz,stimuli/forte,bloc_3,prob80hthp_12trials.xlsx,2,24,80,20,0,,,,,0,2,2,2,1,1,13,10,,,,,,,,3.2,787.3060437,790.5097701,790.50909009,0.3049287999999706,790.952812,790.952812,,,m,792.5520943,792.5520943,46,0.806,0.7085823999999548,,,sub-041,40,65,700,bloc_loop.csv,2023-08-16_14h46.54.382,PainUncertainty,2022.2.5,142.8742877716577,
grave,moderee,stimuli/330Hz,stimuli/moderee,bloc_3,prob80hthp_12trials.xlsx,2,24,80,20,0,,,,,0,2,2,2,1,2,14,2,,,,,,,,3.6,792.5520943,796.1558866,796.15577619,0.3050538999999617,796.6044926,796.6044926,,,n,798.8813727,798.8813727,15,1.224,0.994442299999946,,,sub-041,40,65,700,bloc_loop.csv,2023-08-16_14h46.54.382,PainUncertainty,2022.2.5,142.8742877716577,
grave,moderee,stimuli/330Hz,stimuli/moderee,bloc_3,prob80hthp_12trials.xlsx,2,24,80,20,0,,,,,0,2,2,2,1,3,15,1,,,,,,,,4.6,798.8813727,803.4825486,803.48258579,0.30505589999995664,803.9269784,803.9269784,,,n,805.6599007,805.6599007,12,1.025,0.6434721999999056,,,sub-041,40,65,700,bloc_loop.csv,2023-08-16_14h46.54.382,PainUncertainty,2022.2.5,142.8742877716577,
grave,moderee,stimuli/330Hz,stimuli/moderee,bloc_3,prob80hthp_12trials.xlsx,2,24,80,20,0,,,,,0,2,2,2,1,4,16,0,,,,,,,,3.4,805.6599007,809.0595063000001,809.05949729,0.3054248999999345,809.5037621,809.5037621,,,n,811.7838433000001,811.7838433000001,9,1.612,0.5974611999998842,,,sub-041,40,65,700,bloc_loop.csv,2023-08-16_14h46.54.382,PainUncertainty,2022.2.5,142.8742877716577,
aigu,forte,stimuli/660Hz,stimuli/forte,bloc_3,prob80hthp_12trials.xlsx,2,24,80,20,0,,,,,0,2,2,2,1,5,17,6,,,,,,,,3.9,811.7838433000001,815.6851752,815.68525909,0.3051857000000382,816.1298233,816.1298233,,,m,819.9712192000001,819.9712192000001,43,3.261,0.4995447000000013,,,sub-041,40,65,700,bloc_loop.csv,2023-08-16_14h46.54.382,PainUncertainty,2022.2.5,142.8742877716577,
aigu,moderee,stimuli/660Hz,stimuli/moderee,bloc_3,prob80hthp_12trials.xlsx,2,24,80,20,0,,,,,0,2,2,2,1,6,18,11,,,,,,,,3.3,819.9712192000001,823.2702818,823.27025889,0.30469029999994746,823.7143581,823.7143581,,,n,828.5233151,828.5233151,7,3.94,0.791593300000045,,,sub-041,40,65,700,bloc_loop.csv,2023-08-16_14h46.54.382,PainUncertainty,2022.2.5,142.8742877716577,
aigu,forte,stimuli/660Hz,stimuli/forte,bloc_3,prob80hthp_12trials.xlsx,2,24,80,20,0,,,,,0,2,2,2,1,7,19,8,,,,,,,,3.4,828.5233151,831.923253,831.92323539,0.3052464999999529,832.3715851000001,832.3715851000001,,,m,836.3717128,836.3717128,43,2.733,1.202894199999946,,,sub-041,40,65,700,bloc_loop.csv,2023-08-16_14h46.54.382,PainUncertainty,2022.2.5,142.8742877716577,
aigu,forte,stimuli/660Hz,stimuli/forte,bloc_3,prob80hthp_12trials.xlsx,2,24,80,20,0,,,,,0,2,2,2,1,8,20,9,,,,,,,,3.6,836.3717128,839.9729398000001,839.97285679,0.30164080000008653,840.4174343,840.4174343,,,m,845.2932567,845.2932567,44,2.858,1.946736299999884,,,sub-041,40,65,700,bloc_loop.csv,2023-08-16_14h46.54.382,PainUncertainty,2022.2.5,142.8742877716577,
grave,moderee,stimuli/330Hz,stimuli/moderee,bloc_3,prob80hthp_12trials.xlsx,2,24,80,20,0,,,,,0,2,2,2,1,9,21,4,,,,,,,,4.6,845.2932567,849.8975768,849.89761159,0.3051338999999871,850.3419365,850.3419365,,,n,854.0863366,854.0863366,9,3.124,0.5596263999999564,,,sub-041,40,65,700,bloc_loop.csv,2023-08-16_14h46.54.382,PainUncertainty,2022.2.5,142.8742877716577,
grave,moderee,stimuli/330Hz,stimuli/moderee,bloc_3,prob80hthp_12trials.xlsx,2,24,80,20,0,,,,,0,2,2,2,1,10,22,3,,,,,,,,4.4,854.0863366,858.4890683,858.4892225899999,0.30636570000001484,858.9387625,858.9387625,,,None,865.310196,865.310196,9,3.851,,,,sub-041,40,65,700,bloc_loop.csv,2023-08-16_14h46.54.382,PainUncertainty,2022.2.5,142.8742877716577,
grave,forte,stimuli/330Hz,stimuli/forte,bloc_3,prob80hthp_12trials.xlsx,2,24,80,20,0,,,,,0,2,2,2,1,11,23,5,,,,,,,,4.4,865.310196,869.7129992,869.71293669,0.30007690000002185,870.1572793,870.1572793,,,m,872.6315926,872.6315926,47,1.794,0.6018887999999833,,,sub-041,40,65,700,bloc_loop.csv,2023-08-16_14h46.54.382,PainUncertainty,2022.2.5,142.8742877716577,
grave,moderee,stimuli/330Hz,stimuli/moderee,bloc_4,prob50_50_4trials.xlsx,2,8,50,50,1,,,,,0,3,3,3,0,0,0,0,,,,,,,,5,872.6315926,877.6371168000001,877.63705869,0.30542939999998,878.088445,878.088445,,,n,882.2247377,882.2247377,13,1.831,2.223908700000038,,,sub-041,40,65,700,bloc_loop.csv,2023-08-16_14h46.54.382,PainUncertainty,2022.2.5,142.8742877716577,
aigu,forte,stimuli/660Hz,stimuli/forte,bloc_4,prob50_50_4trials.xlsx,2,8,50,50,1,,,,,0,3,3,3,0,1,1,3,,,,,,,,5,882.2247377,887.2284927000001,887.22858739,0.3059622999999192,887.6775735,887.6775735,,,None,891.5611735000001,891.5611735000001,12,1.372,,,,sub-041,40,65,700,bloc_loop.csv,2023-08-16_14h46.54.382,PainUncertainty,2022.2.5,142.8742877716577,
grave,forte,stimuli/330Hz,stimuli/forte,bloc_4,prob50_50_4trials.xlsx,2,8,50,50,1,,,,,0,3,3,3,0,2,2,1,,,,,,,,3.3,891.5611735000001,894.8612933,894.8617093900001,0.3046527999999853,895.3094208000001,895.3094208000001,,,m,899.2511867,899.2511867,44,2.183,1.6789499999998725,,,sub-041,40,65,700,bloc_loop.csv,2023-08-16_14h46.54.382,PainUncertainty,2022.2.5,142.8742877716577,
aigu,moderee,stimuli/660Hz,stimuli/moderee,bloc_4,prob50_50_4trials.xlsx,2,8,50,50,1,,,,,0,3,3,3,0,3,3,2,,,,,,,,4.5,899.2511867,903.7514906,903.7515272899999,0.3019008000001122,904.1957564,904.1957564,,,n,907.1809794,907.1809794,10,2.434,0.48311739999996917,,,sub-041,40,65,700,bloc_loop.csv,2023-08-16_14h46.54.382,PainUncertainty,2022.2.5,142.8742877716577,
grave,forte,stimuli/330Hz,stimuli/forte,bloc_4,prob50_50_4trials.xlsx,2,8,50,50,1,,,,,0,3,3,3,1,0,4,1,,,,,,,,4.4,907.1809794,911.5858216,911.58581139,0.30492930000013985,912.0297555999999,912.0297555999999,,,m,914.4725807000001,914.4725807000001,48,1.331,1.029413899999895,,,sub-041,40,65,700,bloc_loop.csv,2023-08-16_14h46.54.382,PainUncertainty,2022.2.5,142.8742877716577,
aigu,moderee,stimuli/660Hz,stimuli/moderee,bloc_4,prob50_50_4trials.xlsx,2,8,50,50,1,,,,,0,3,3,3,1,1,5,2,,,,,,,,4.3,914.4725807000001,918.7742455000001,918.7741693899999,0.29911010000000715,919.2166702999999,919.2166702999999,,,n,923.1850425000001,923.1850425000001,48,2.642,1.266113799999971,,,sub-041,40,65,700,bloc_loop.csv,2023-08-16_14h46.54.382,PainUncertainty,2022.2.5,142.8742877716577,
grave,moderee,stimuli/330Hz,stimuli/moderee,bloc_4,prob50_50_4trials.xlsx,2,8,50,50,1,,,,,0,3,3,3,1,2,6,0,,,,,,,,3.9,923.1850425000001,927.0874735000001,927.0875724900001,0.30498390000002473,927.5317788000001,927.5317788000001,,,n,932.4740794999999,932.4740794999999,8,3.773,1.090995899999939,,,sub-041,40,65,700,bloc_loop.csv,2023-08-16_14h46.54.382,PainUncertainty,2022.2.5,142.8742877716577,
aigu,forte,stimuli/660Hz,stimuli/forte,bloc_4,prob50_50_4trials.xlsx,2,8,50,50,1,,,,,0,3,3,3,1,3,7,3,,,,,,,,3.6,932.4740794999999,936.0746299000001,936.07475689,0.3049020000000837,936.5259090999999,936.5259090999999,,,m,941.9808413,941.9808413,45,2.829,0.5972938000001022,,,sub-041,40,65,700,bloc_loop.csv,2023-08-16_14h46.54.382,PainUncertainty,2022.2.5,142.8742877716577,
,,,,bloc_4,prob50_50_4trials.xlsx,2,8,50,50,1,,,,,0,3,3,3,,,,,0,0,0,0,,,,,,,,,,,,,,,,,,,941.9808413,1011.5070549999999,sub-041,40,65,700,bloc_loop.csv,2023-08-16_14h46.54.382,PainUncertainty,2022.2.5,142.8742877716577,
aigu,moderee,stimuli/660Hz,stimuli/moderee,bloc_5,prob20hthp_12trials.xlsx,2,24,20,80,0,,,,,0,4,4,4,0,0,0,6,,,,,,,,4.3,1012.4596779,1016.7645844,1016.7646173899999,0.3051288999999997,1017.2088046,1017.2088046,,,n,1020.8686692,1020.8686692,12,2.858,0.7186930999999959,,,sub-041,40,65,700,bloc_loop.csv,2023-08-16_14h46.54.382,PainUncertainty,2022.2.5,142.8742877716577,
grave,forte,stimuli/330Hz,stimuli/forte,bloc_5,prob20hthp_12trials.xlsx,2,24,20,80,0,,,,,0,4,4,4,0,1,1,2,,,,,,,,4.1,1020.8686692,1024.9739368,1024.97412629,0.30519679999997607,1025.4186427999998,1025.4186427999998,,,m,1027.8066250000002,1027.8066250000002,48,1.795,0.5264129000000821,,,sub-041,40,65,700,bloc_loop.csv,2023-08-16_14h46.54.382,PainUncertainty,2022.2.5,142.8742877716577,
aigu,moderee,stimuli/660Hz,stimuli/moderee,bloc_5,prob20hthp_12trials.xlsx,2,24,20,80,0,,,,,0,4,4,4,0,2,2,9,,,,,,,,4.9,1027.8066250000002,1032.7113539000002,1032.71135579,0.30155549999994946,1033.1555234000002,1033.1555234000002,,,n,1035.1113104,1035.1113104,14,0.899,1.0050177999997914,,,sub-041,40,65,700,bloc_loop.csv,2023-08-16_14h46.54.382,PainUncertainty,2022.2.5,142.8742877716577,
grave,moderee,stimuli/330Hz,stimuli/moderee,bloc_5,prob20hthp_12trials.xlsx,2,24,20,80,0,,,,,0,4,4,4,0,3,3,5,,,,,,,,4.9,1035.1113104,1040.0104841000002,1040.01060729,0.3050373999999465,1040.4550454,1040.4550454,,,n,1042.2746938999999,1042.2746938999999,13,1.15,0.586094399999979,,,sub-041,40,65,700,bloc_loop.csv,2023-08-16_14h46.54.382,PainUncertainty,2022.2.5,142.8742877716577,
grave,forte,stimuli/330Hz,stimuli/forte,bloc_5,prob20hthp_12trials.xlsx,2,24,20,80,0,,,,,0,4,4,4,0,4,4,0,,,,,,,,4.9,1042.2746938999999,1047.1785358000002,1047.1785500899998,0.30601500000011583,1047.6259398000002,1047.6259398000002,,,m,1052.8099301000002,1052.8099301000002,44,4.407,0.7242871999998215,,,sub-041,40,65,700,bloc_loop.csv,2023-08-16_14h46.54.382,PainUncertainty,2022.2.5,142.8742877716577,
grave,forte,stimuli/330Hz,stimuli/forte,bloc_5,prob20hthp_12trials.xlsx,2,24,20,80,0,,,,,0,4,4,4,0,5,5,1,,,,,,,,3.9,1052.8099301000002,1056.7138736000002,1056.71388469,0.30514279999988503,1057.1582917,1057.1582917,,,m,1059.1586379999999,1059.1586379999999,48,1.147,0.7661514000000125,,,sub-041,40,65,700,bloc_loop.csv,2023-08-16_14h46.54.382,PainUncertainty,2022.2.5,142.8742877716577,
aigu,moderee,stimuli/660Hz,stimuli/moderee,bloc_5,prob20hthp_12trials.xlsx,2,24,20,80,0,,,,,0,4,4,4,0,6,6,10,,,,,,,,4.9,1059.1586379999999,1064.0619342,1064.0619637900002,0.30464759999995294,1064.5061102999998,1064.5061102999998,,,n,1065.8079779,1065.8079779,11,0.662,0.5812002999999777,,,sub-041,40,65,700,bloc_loop.csv,2023-08-16_14h46.54.382,PainUncertainty,2022.2.5,142.8742877716577,
aigu,moderee,stimuli/660Hz,stimuli/moderee,bloc_5,prob20hthp_12trials.xlsx,2,24,20,80,0,,,,,0,4,4,4,0,7,7,8,,,,,,,,4.4,1065.8079779,1070.2085802000001,1070.20852339,0.3050439999999526,1070.6525576,1070.6525576,,,n,1075.0484970000002,1075.0484970000002,9,3.67,0.6521811000001208,,,sub-041,40,65,700,bloc_loop.csv,2023-08-16_14h46.54.382,PainUncertainty,2022.2.5,142.8742877716577,
aigu,moderee,stimuli/660Hz,stimuli/moderee,bloc_5,prob20hthp_12trials.xlsx,2,24,20,80,0,,,,,0,4,4,4,0,8,8,7,,,,,,,,3.3,1075.0484970000002,1078.3482546,1078.3482410899999,0.3052176999999574,1078.7924383,1078.7924383,,,n,1082.4199699,1082.4199699,10,2.97,0.5714203999999654,,,sub-041,40,65,700,bloc_loop.csv,2023-08-16_14h46.54.382,PainUncertainty,2022.2.5,142.8742877716577,
grave,forte,stimuli/330Hz,stimuli/forte,bloc_5,prob20hthp_12trials.xlsx,2,24,20,80,0,,,,,0,4,4,4,0,9,9,3,,,,,,,,3.9,1082.4199699,1086.3217619000002,1086.32174779,0.3047983999999815,1086.7657602,1086.7657602,,,m,1089.2604645000001,1089.2604645000001,42,1.891,0.5467734000000064,,,sub-041,40,65,700,bloc_loop.csv,2023-08-16_14h46.54.382,PainUncertainty,2022.2.5,142.8742877716577,
grave,forte,stimuli/330Hz,stimuli/forte,bloc_5,prob20hthp_12trials.xlsx,2,24,20,80,0,,,,,0,4,4,4,0,10,10,4,,,,,,,,3.7,1089.2604645000001,1092.961769,1092.9614516899999,0.30478370000014365,1093.4125341,1093.4125341,,,m,1096.0389160999998,1096.0389160999998,40,2.08,0.49019379999992907,,,sub-041,40,65,700,bloc_loop.csv,2023-08-16_14h46.54.382,PainUncertainty,2022.2.5,142.8742877716577,
aigu,forte,stimuli/660Hz,stimuli/forte,bloc_5,prob20hthp_12trials.xlsx,2,24,20,80,0,,,,,0,4,4,4,0,11,11,11,,,,,,,,3.5,1096.0389160999998,1099.5382454,1099.53836029,0.30474119999985305,1099.9824143,1099.9824143,,,m,1101.811333,1101.811333,37,1.281,0.4812969999999268,,,sub-041,40,65,700,bloc_loop.csv,2023-08-16_14h46.54.382,PainUncertainty,2022.2.5,142.8742877716577,
grave,forte,stimuli/330Hz,stimuli/forte,bloc_5,prob20hthp_12trials.xlsx,2,24,20,80,0,,,,,0,4,4,4,1,0,12,0,,,,,,,,3.4,1101.811333,1105.2126354000002,1105.21265229,0.30482939999978953,1105.656673,1105.656673,,,m,1107.4879884000002,1107.4879884000002,42,1.294,0.4675197000000253,,,sub-041,40,65,700,bloc_loop.csv,2023-08-16_14h46.54.382,PainUncertainty,2022.2.5,142.8742877716577,
grave,forte,stimuli/330Hz,stimuli/forte,bloc_5,prob20hthp_12trials.xlsx,2,24,20,80,0,,,,,0,4,4,4,1,1,13,4,,,,,,,,3,1107.4879884000002,1110.4909072,1110.4909898899998,0.2991288999999142,1110.9293057,1110.9293057,,,m,1112.9227698,1112.9227698,41,1.539,0.399917599999867,,,sub-041,40,65,700,bloc_loop.csv,2023-08-16_14h46.54.382,PainUncertainty,2022.2.5,142.8742877716577,
aigu,forte,stimuli/660Hz,stimuli/forte,bloc_5,prob20hthp_12trials.xlsx,2,24,20,80,0,,,,,0,4,4,4,1,2,14,11,,,,,,,,3.3,1112.9227698,1116.2279090000002,1116.22783469,0.30504259999997885,1116.6757646,1116.6757646,,,m,1118.7118824,1118.7118824,42,1.371,0.5844532999998364,,,sub-041,40,65,700,bloc_loop.csv,2023-08-16_14h46.54.382,PainUncertainty,2022.2.5,142.8742877716577,
aigu,moderee,stimuli/660Hz,stimuli/moderee,bloc_5,prob20hthp_12trials.xlsx,2,24,20,80,0,,,,,0,4,4,4,1,3,15,8,,,,,,,,3.9,1118.7118824,1122.6173964999998,1122.6173072899999,0.30568749999997635,1123.0663368,1123.0663368,,,n,1124.8664493,1124.8664493,8,1.26,0.4728706000001921,,,sub-041,40,65,700,bloc_loop.csv,2023-08-16_14h46.54.382,PainUncertainty,2022.2.5,142.8742877716577,
grave,forte,stimuli/330Hz,stimuli/forte,bloc_5,prob20hthp_12trials.xlsx,2,24,20,80,0,,,,,0,4,4,4,1,4,16,3,,,,,,,,3.8,1124.8664493,1128.666662,1128.6668000900002,0.30475559999990764,1129.1108663,1129.1108663,,,m,1133.3395643,1133.3395643,51,3.525,0.6323613999999225,,,sub-041,40,65,700,bloc_loop.csv,2023-08-16_14h46.54.382,PainUncertainty,2022.2.5,142.8742877716577,
grave,moderee,stimuli/330Hz,stimuli/moderee,bloc_5,prob20hthp_12trials.xlsx,2,24,20,80,0,,,,,0,4,4,4,1,5,17,5,,,,,,,,4.1,1133.3395643,1137.4386768999998,1137.4386675899998,0.30527600000004895,1137.8870296,1137.8870296,,,m,1140.0052925,1140.0052925,44,1.21,0.8574145000001181,,,sub-041,40,65,700,bloc_loop.csv,2023-08-16_14h46.54.382,PainUncertainty,2022.2.5,142.8742877716577,
aigu,moderee,stimuli/660Hz,stimuli/moderee,bloc_5,prob20hthp_12trials.xlsx,2,24,20,80,0,,,,,0,4,4,4,1,6,18,9,,,,,,,,3.4,1140.0052925,1143.4045243,1143.4047602899998,0.30474770000000717,1143.8489964,1143.8489964,,,n,1147.7611723,1147.7611723,8,3.247,0.5918705000000273,,,sub-041,40,65,700,bloc_loop.csv,2023-08-16_14h46.54.382,PainUncertainty,2022.2.5,142.8742877716577,
grave,forte,stimuli/330Hz,stimuli/forte,bloc_5,prob20hthp_12trials.xlsx,2,24,20,80,0,,,,,0,4,4,4,1,7,19,2,,,,,,,,3.6,1147.7611723,1151.3638919,1151.36394029,0.30497669999999744,1151.8086032,1151.8086032,,,m,1153.1471053999999,1153.1471053999999,44,0.809,0.46735240000009526,,,sub-041,40,65,700,bloc_loop.csv,2023-08-16_14h46.54.382,PainUncertainty,2022.2.5,142.8742877716577,
grave,forte,stimuli/330Hz,stimuli/forte,bloc_5,prob20hthp_12trials.xlsx,2,24,20,80,0,,,,,0,4,4,4,1,8,20,1,,,,,,,,3.5,1153.1471053999999,1156.6493297000002,1156.6493098899998,0.3047660000001997,1157.0934598,1157.0934598,,,m,1159.3511401,1159.3511401,45,1.666,0.5191719999999123,,,sub-041,40,65,700,bloc_loop.csv,2023-08-16_14h46.54.382,PainUncertainty,2022.2.5,142.8742877716577,
aigu,moderee,stimuli/660Hz,stimuli/moderee,bloc_5,prob20hthp_12trials.xlsx,2,24,20,80,0,,,,,0,4,4,4,1,9,21,10,,,,,,,,3.7,1159.3511401,1163.0531587,1163.0532078899998,0.29994220000003224,1163.4975981000002,1163.4975981000002,,,n,1165.9369014,1165.9369014,11,1.357,1.019844899999839,,,sub-041,40,65,700,bloc_loop.csv,2023-08-16_14h46.54.382,PainUncertainty,2022.2.5,142.8742877716577,
aigu,moderee,stimuli/660Hz,stimuli/moderee,bloc_5,prob20hthp_12trials.xlsx,2,24,20,80,0,,,,,0,4,4,4,1,10,22,6,,,,,,,,4.7,1165.9369014,1170.6370693,1170.63713799,0.3051024999999754,1171.0884891,1171.0884891,,,n,1173.995558,1173.995558,13,2.393,0.45695710000006784,,,sub-041,40,65,700,bloc_loop.csv,2023-08-16_14h46.54.382,PainUncertainty,2022.2.5,142.8742877716577,
aigu,moderee,stimuli/660Hz,stimuli/moderee,bloc_5,prob20hthp_12trials.xlsx,2,24,20,80,0,,,,,0,4,4,4,1,11,23,7,,,,,,,,5,1173.995558,1178.9990681999998,1178.9991669899998,0.3050439999999526,1179.4432550000001,1179.4432550000001,,,n,1183.0127281,1183.0127281,10,2.191,1.3186692999998968,,,sub-041,40,65,700,bloc_loop.csv,2023-08-16_14h46.54.382,PainUncertainty,2022.2.5,142.8742877716577,
aigu,moderee,stimuli/660Hz,stimuli/moderee,bloc_6,prob50_50_4trials.xlsx,2,8,50,50,0,,,,,0,5,5,5,0,0,0,2,,,,,,,,4.5,1183.0127281,1187.5143392999998,1187.5143238899998,0.3050896999998258,1187.9623780000002,1187.9623780000002,,,n,1190.1911435000002,1190.1911435000002,13,1.735,0.43209559999979774,,,sub-041,40,65,700,bloc_loop.csv,2023-08-16_14h46.54.382,PainUncertainty,2022.2.5,142.8742877716577,
grave,moderee,stimuli/330Hz,stimuli/moderee,bloc_6,prob50_50_4trials.xlsx,2,8,50,50,0,,,,,0,5,5,5,0,1,1,0,,,,,,,,3.4,1190.1911435000002,1193.5911084,1193.5911531899999,0.29915939999978036,1194.0295124,1194.0295124,,,n,1196.7770199000001,1196.7770199000001,17,2.24,0.3933733000000075,,,sub-041,40,65,700,bloc_loop.csv,2023-08-16_14h46.54.382,PainUncertainty,2022.2.5,142.8742877716577,
grave,forte,stimuli/330Hz,stimuli/forte,bloc_6,prob50_50_4trials.xlsx,2,8,50,50,0,,,,,0,5,5,5,0,2,2,1,,,,,,,,3.7,1196.7770199000001,1200.4807328000002,1200.48081549,0.3048860000001241,1200.9249513999998,1200.9249513999998,,,m,1203.1080648000002,1203.1080648000002,45,1.559,0.5698247999999921,,,sub-041,40,65,700,bloc_loop.csv,2023-08-16_14h46.54.382,PainUncertainty,2022.2.5,142.8742877716577,
aigu,forte,stimuli/660Hz,stimuli/forte,bloc_6,prob50_50_4trials.xlsx,2,8,50,50,0,,,,,0,5,5,5,0,3,3,3,,,,,,,,4.2,1203.1080648000002,1207.3086155,1207.3084057899998,0.30516499999998814,1207.7557995000002,1207.7557995000002,,,m,1209.5841845999998,1209.5841845999998,44,1.205,0.5583967999999686,,,sub-041,40,65,700,bloc_loop.csv,2023-08-16_14h46.54.382,PainUncertainty,2022.2.5,142.8742877716577,
aigu,forte,stimuli/660Hz,stimuli/forte,bloc_6,prob50_50_4trials.xlsx,2,8,50,50,0,,,,,0,5,5,5,1,0,4,3,,,,,,,,4.3,1209.5841845999998,1213.8856424,1213.8854520900002,0.3050015999999687,1214.3323383000002,1214.3323383000002,,,m,1218.1383371000002,1218.1383371000002,45,2.201,1.5241584000001467,,,sub-041,40,65,700,bloc_loop.csv,2023-08-16_14h46.54.382,PainUncertainty,2022.2.5,142.8742877716577,
aigu,moderee,stimuli/660Hz,stimuli/moderee,bloc_6,prob50_50_4trials.xlsx,2,8,50,50,0,,,,,0,5,5,5,1,1,5,2,,,,,,,,3.3,1218.1383371000002,1221.4419005,1221.4420565900002,0.3046997999999803,1221.8858491,1221.8858491,,,n,1223.6535614999998,1223.6535614999998,13,1.107,0.5982923000000255,,,sub-041,40,65,700,bloc_loop.csv,2023-08-16_14h46.54.382,PainUncertainty,2022.2.5,142.8742877716577,
grave,moderee,stimuli/330Hz,stimuli/moderee,bloc_6,prob50_50_4trials.xlsx,2,8,50,50,0,,,,,0,5,5,5,1,2,6,0,,,,,,,,3.1,1223.6535614999998,1226.7551082999998,1226.7554157900001,0.3046676999999818,1227.1989162999998,1227.1989162999998,,,n,1228.8658369999998,1228.8658369999998,14,1.079,0.5065537999997787,,,sub-041,40,65,700,bloc_loop.csv,2023-08-16_14h46.54.382,PainUncertainty,2022.2.5,142.8742877716577,
grave,forte,stimuli/330Hz,stimuli/forte,bloc_6,prob50_50_4trials.xlsx,2,8,50,50,0,,,,,0,5,5,5,1,3,7,1,,,,,,,,4.8,1228.8658369999998,1233.6654145000002,1233.66545109,0.3048003000001245,1234.1099835999999,1234.1099835999999,,,n,1238.0421763,1238.0421763,18,2.378,1.4829548000001296,,,sub-041,40,65,700,bloc_loop.csv,2023-08-16_14h46.54.382,PainUncertainty,2022.2.5,142.8742877716577,
grave,forte,stimuli/330Hz,stimuli/forte,bloc_7,prob80hthp_12trials.xlsx,2,24,80,20,1,,,,,0,6,6,6,0,0,0,5,,,,,,,,3.1,1238.0421763,1241.1454048,1241.14540109,0.30509520000009616,1241.5897804,1241.5897804,,,m,1244.0198578,1244.0198578,48,1.829,0.5367032000000336,,,sub-041,40,65,700,bloc_loop.csv,2023-08-16_14h46.54.382,PainUncertainty,2022.2.5,142.8742877716577,
aigu,forte,stimuli/660Hz,stimuli/forte,bloc_7,prob80hthp_12trials.xlsx,2,24,80,20,1,,,,,0,6,6,6,0,1,1,6,,,,,,,,4.7,1244.0198578,1248.7225017,1248.7227757899998,0.3049938999999995,1249.1667378000002,1249.1667378000002,,,m,1251.3747794,1251.3747794,44,1.253,0.8770944999999983,,,sub-041,40,65,700,bloc_loop.csv,2023-08-16_14h46.54.382,PainUncertainty,2022.2.5,142.8742877716577,
grave,moderee,stimuli/330Hz,stimuli/moderee,bloc_7,prob80hthp_12trials.xlsx,2,24,80,20,1,,,,,0,6,6,6,0,2,2,3,,,,,,,,4.8,1251.3747794,1256.1748865,1256.1747814900002,0.3054183999997804,1256.6189752,1256.6189752,,,n,1258.2337785999998,1258.2337785999998,9,1.018,0.5384657000000743,,,sub-041,40,65,700,bloc_loop.csv,2023-08-16_14h46.54.382,PainUncertainty,2022.2.5,142.8742877716577,
grave,moderee,stimuli/330Hz,stimuli/moderee,bloc_7,prob80hthp_12trials.xlsx,2,24,80,20,1,,,,,0,6,6,6,0,3,3,2,,,,,,,,3.7,1258.2337785999998,1261.9327942999998,1261.9329652899999,0.29963389999988976,1262.3772973,1262.3772973,,,n,1265.3808094,1265.3808094,10,2.309,0.6259502999999995,,,sub-041,40,65,700,bloc_loop.csv,2023-08-16_14h46.54.382,PainUncertainty,2022.2.5,142.8742877716577,
grave,moderee,stimuli/330Hz,stimuli/moderee,bloc_7,prob80hthp_12trials.xlsx,2,24,80,20,1,,,,,0,6,6,6,0,4,4,4,,,,,,,,3.7,1265.3808094,1269.0861374,1269.0861682900002,0.3051407000000381,1269.5302576,1269.5302576,,,n,1271.8701538999999,1271.8701538999999,7,1.754,0.5182280999998738,,,sub-041,40,65,700,bloc_loop.csv,2023-08-16_14h46.54.382,PainUncertainty,2022.2.5,142.8742877716577,
aigu,forte,stimuli/660Hz,stimuli/forte,bloc_7,prob80hthp_12trials.xlsx,2,24,80,20,1,,,,,0,6,6,6,0,5,5,8,,,,,,,,3.6,1271.8701538999999,1275.4756696999998,1275.4757623899998,0.3055841000000328,1275.9249163999998,1275.9249163999998,,,m,1280.8059581000002,1280.8059581000002,44,4.296,0.5316263999999364,,,sub-041,40,65,700,bloc_loop.csv,2023-08-16_14h46.54.382,PainUncertainty,2022.2.5,142.8742877716577,
aigu,forte,stimuli/660Hz,stimuli/forte,bloc_7,prob80hthp_12trials.xlsx,2,24,80,20,1,,,,,0,6,6,6,0,6,6,10,,,,,,,,3.4,1280.8059581000002,1284.2059389,1284.2059260899998,0.30494679999992513,1284.6500559,1284.6500559,,,m,1287.0122188999999,1287.0122188999999,45,1.775,0.5133409999999685,,,sub-041,40,65,700,bloc_loop.csv,2023-08-16_14h46.54.382,PainUncertainty,2022.2.5,142.8742877716577,
aigu,moderee,stimuli/660Hz,stimuli/moderee,bloc_7,prob80hthp_12trials.xlsx,2,24,80,20,1,,,,,0,6,6,6,0,7,7,11,,,,,,,,3.4,1287.0122188999999,1290.4153059999999,1290.4153084900001,0.30502270000010867,1290.8594226,1290.8594226,,,n,1294.3321176999998,1294.3321176999998,9,2.816,0.5866059000001087,,,sub-041,40,65,700,bloc_loop.csv,2023-08-16_14h46.54.382,PainUncertainty,2022.2.5,142.8742877716577,
aigu,forte,stimuli/660Hz,stimuli/forte,bloc_7,prob80hthp_12trials.xlsx,2,24,80,20,1,,,,,0,6,6,6,0,8,8,9,,,,,,,,4,1294.3321176999998,1298.3330068,1298.3334002899999,0.30090130000007775,1298.7773261000002,1298.7773261000002,,,m,1300.663756,1300.663756,43,1.309,0.4947843999999577,,,sub-041,40,65,700,bloc_loop.csv,2023-08-16_14h46.54.382,PainUncertainty,2022.2.5,142.8742877716577,
grave,moderee,stimuli/330Hz,stimuli/moderee,bloc_7,prob80hthp_12trials.xlsx,2,24,80,20,1,,,,,0,6,6,6,0,9,9,0,,,,,,,,4,1300.663756,1304.6667330999999,1304.6667548900002,0.30495010000004186,1305.1110202999998,1305.1110202999998,,,n,1308.9138609000001,1308.9138609000001,11,3.274,0.4549395999998751,,,sub-041,40,65,700,bloc_loop.csv,2023-08-16_14h46.54.382,PainUncertainty,2022.2.5,142.8742877716577,
aigu,forte,stimuli/660Hz,stimuli/forte,bloc_7,prob80hthp_12trials.xlsx,2,24,80,20,1,,,,,0,6,6,6,0,10,10,7,,,,,,,,3.7,1308.9138609000001,1312.6193013000002,1312.6191813900002,0.30513159999986783,1313.0634344,1313.0634344,,,m,1315.3885306000002,1315.3885306000002,46,1.767,0.48078869999983453,,,sub-041,40,65,700,bloc_loop.csv,2023-08-16_14h46.54.382,PainUncertainty,2022.2.5,142.8742877716577,
grave,moderee,stimuli/330Hz,stimuli/moderee,bloc_7,prob80hthp_12trials.xlsx,2,24,80,20,1,,,,,0,6,6,6,0,11,11,1,,,,,,,,3,1315.3885306000002,1318.3905037999998,1318.39051919,0.30577870000001894,1318.8349174999998,1318.8349174999998,,,n,1320.0883067,1320.0883067,12,0.749,0.44135739999990165,,,sub-041,40,65,700,bloc_loop.csv,2023-08-16_14h46.54.382,PainUncertainty,2022.2.5,142.8742877716577,
grave,moderee,stimuli/330Hz,stimuli/moderee,bloc_7,prob80hthp_12trials.xlsx,2,24,80,20,1,,,,,0,6,6,6,1,0,12,4,,,,,,,,3.5,1320.0883067,1323.592955,1323.5930503900001,0.2998809999999139,1324.0374572,1324.0374572,,,n,1326.8346157,1326.8346157,14,2.354,0.39287260000003243,,,sub-041,40,65,700,bloc_loop.csv,2023-08-16_14h46.54.382,PainUncertainty,2022.2.5,142.8742877716577,
grave,moderee,stimuli/330Hz,stimuli/moderee,bloc_7,prob80hthp_12trials.xlsx,2,24,80,20,1,,,,,0,6,6,6,1,1,13,0,,,,,,,,3,1326.8346157,1329.8366683,1329.8368113899999,0.3048515000000407,1330.2844034999998,1330.2844034999998,,,n,1331.7101511,1331.7101511,14,0.954,0.40519510000001446,,,sub-041,40,65,700,bloc_loop.csv,2023-08-16_14h46.54.382,PainUncertainty,2022.2.5,142.8742877716577,
aigu,forte,stimuli/660Hz,stimuli/forte,bloc_7,prob80hthp_12trials.xlsx,2,24,80,20,1,,,,,0,6,6,6,1,2,14,6,,,,,,,,4.1,1331.7101511,1335.8093533,1335.8093568900001,0.3052050999999665,1336.2575339,1336.2575339,,,m,1339.2254569000002,1339.2254569000002,45,1.489,1.424245699999915,,,sub-041,40,65,700,bloc_loop.csv,2023-08-16_14h46.54.382,PainUncertainty,2022.2.5,142.8742877716577,
aigu,forte,stimuli/660Hz,stimuli/forte,bloc_7,prob80hthp_12trials.xlsx,2,24,80,20,1,,,,,0,6,6,6,1,3,15,8,,,,,,,,3.5,1339.2254569000002,1342.7270343999999,1342.7274582900002,0.3049332000000504,1343.1739716000002,1343.1739716000002,,,m,1344.7253245000002,1344.7253245000002,46,0.857,0.6108047000001307,,,sub-041,40,65,700,bloc_loop.csv,2023-08-16_14h46.54.382,PainUncertainty,2022.2.5,142.8742877716577,
grave,moderee,stimuli/330Hz,stimuli/moderee,bloc_7,prob80hthp_12trials.xlsx,2,24,80,20,1,,,,,0,6,6,6,1,4,16,2,,,,,,,,4.3,1344.7253245000002,1349.0262042999998,1349.0261504900002,0.3048882999999023,1349.4702695,1349.4702695,,,n,1352.0305343999999,1352.0305343999999,10,1.809,0.695090999999934,,,sub-041,40,65,700,bloc_loop.csv,2023-08-16_14h46.54.382,PainUncertainty,2022.2.5,142.8742877716577,
aigu,moderee,stimuli/660Hz,stimuli/moderee,bloc_7,prob80hthp_12trials.xlsx,2,24,80,20,1,,,,,0,6,6,6,1,5,17,11,,,,,,,,5,1352.0305343999999,1357.0339897,1357.03404539,0.3055159000000458,1357.4821223,1357.4821223,,,n,1360.4899021,1360.4899021,8,2.414,0.5319253999999773,,,sub-041,40,65,700,bloc_loop.csv,2023-08-16_14h46.54.382,PainUncertainty,2022.2.5,142.8742877716577,
grave,moderee,stimuli/330Hz,stimuli/moderee,bloc_7,prob80hthp_12trials.xlsx,2,24,80,20,1,,,,,0,6,6,6,1,6,18,3,,,,,,,,3.3,1360.4899021,1363.7940254999999,1363.7920453899999,0.300915699999905,1364.2361437,1364.2361437,,,n,1366.3088466,1366.3088466,10,1.302,0.6960394000001315,,,sub-041,40,65,700,bloc_loop.csv,2023-08-16_14h46.54.382,PainUncertainty,2022.2.5,142.8742877716577,
aigu,forte,stimuli/660Hz,stimuli/forte,bloc_7,prob80hthp_12trials.xlsx,2,24,80,20,1,,,,,0,6,6,6,1,7,19,9,,,,,,,,3.5,1366.3088466,1369.8133220999998,1369.8137910900002,0.30457899999987603,1370.2573978,1370.2573978,,,m,1372.5926040999998,1372.5926040999998,46,1.725,0.5250145999999631,,,sub-041,40,65,700,bloc_loop.csv,2023-08-16_14h46.54.382,PainUncertainty,2022.2.5,142.8742877716577,
grave,moderee,stimuli/330Hz,stimuli/moderee,bloc_7,prob80hthp_12trials.xlsx,2,24,80,20,1,,,,,0,6,6,6,1,8,20,1,,,,,,,,3.3,1372.5926040999998,1375.8973016,1375.89743049,0.3049042999998619,1376.3436978999998,1376.3436978999998,,,n,1378.5390284,1378.5390284,9,1.594,0.525479799999971,,,sub-041,40,65,700,bloc_loop.csv,2023-08-16_14h46.54.382,PainUncertainty,2022.2.5,142.8742877716577,
grave,forte,stimuli/330Hz,stimuli/forte,bloc_7,prob80hthp_12trials.xlsx,2,24,80,20,1,,,,,0,6,6,6,1,9,21,5,,,,,,,,3.4,1378.5390284,1381.9397024,1381.9397675900002,0.30511010000009264,1382.384263,1382.384263,,,m,1384.5649382000001,1384.5649382000001,46,1.628,0.49928239999997004,,,sub-041,40,65,700,bloc_loop.csv,2023-08-16_14h46.54.382,PainUncertainty,2022.2.5,142.8742877716577,
aigu,forte,stimuli/660Hz,stimuli/forte,bloc_7,prob80hthp_12trials.xlsx,2,24,80,20,1,,,,,0,6,6,6,1,10,22,10,,,,,,,,4,1384.5649382000001,1388.5662152,1388.56594419,0.30572219999999106,1389.0145576,1389.0145576,,,m,1391.7279778000002,1391.7279778000002,47,2.123,0.5324265000000423,,,sub-041,40,65,700,bloc_loop.csv,2023-08-16_14h46.54.382,PainUncertainty,2022.2.5,142.8742877716577,
aigu,forte,stimuli/660Hz,stimuli/forte,bloc_7,prob80hthp_12trials.xlsx,2,24,80,20,1,,,,,0,6,6,6,1,11,23,7,,,,,,,,5,1391.7279778000002,1396.7331715999999,1396.73330469,0.30495010000004186,1397.1813041,1397.1813041,,,m,1401.4578686999998,1401.4578686999998,47,1.725,0.5246421999999029,,,sub-041,40,65,700,bloc_loop.csv,2023-08-16_14h46.54.382,PainUncertainty,2022.2.5,142.8742877716577,
,,,,bloc_7,prob80hthp_12trials.xlsx,2,24,80,20,1,,,,,0,6,6,6,,,,,0,0,0,0,,,,,,,,,,,,,,,,,,,1401.4578686999998,1683.4753461999999,sub-041,40,65,700,bloc_loop.csv,2023-08-16_14h46.54.382,PainUncertainty,2022.2.5,142.8742877716577,
grave,forte,stimuli/330Hz,stimuli/forte,bloc_8,prob50_50_4trials.xlsx,3,12,50,50,0,,,,,0,7,7,7,0,0,0,1,,,,,,,,3.6,1684.4115582,1688.0108212,1688.0107653900002,0.30523070000003827,1688.4552697,1688.4552697,,,m,1691.0615103999999,1691.0615103999999,46,1.815,0.7271526999999196,,,sub-041,40,65,700,bloc_loop.csv,2023-08-16_14h46.54.382,PainUncertainty,2022.2.5,142.8742877716577,
aigu,forte,stimuli/660Hz,stimuli/forte,bloc_8,prob50_50_4trials.xlsx,3,12,50,50,0,,,,,0,7,7,7,0,1,1,3,,,,,,,,3,1691.0615103999999,1694.0669828999999,1694.06695379,0.3051532999998017,1694.5113411000002,1694.5113411000002,,,m,1698.4013998,1698.4013998,48,1.899,1.910926399999994,,,sub-041,40,65,700,bloc_loop.csv,2023-08-16_14h46.54.382,PainUncertainty,2022.2.5,142.8742877716577,
grave,moderee,stimuli/330Hz,stimuli/moderee,bloc_8,prob50_50_4trials.xlsx,3,12,50,50,0,,,,,0,7,7,7,0,2,2,0,,,,,,,,5,1698.4013998,1703.4011703,1703.40118129,0.3053887000000941,1703.8456237999999,1703.8456237999999,,,n,1707.1118193000002,1707.1118193000002,11,1.65,1.5577653999999939,,,sub-041,40,65,700,bloc_loop.csv,2023-08-16_14h46.54.382,PainUncertainty,2022.2.5,142.8742877716577,
aigu,moderee,stimuli/660Hz,stimuli/moderee,bloc_8,prob50_50_4trials.xlsx,3,12,50,50,0,,,,,0,7,7,7,0,3,3,2,,,,,,,,4.3,1707.1118193000002,1711.4160909000002,1711.41635639,0.3047732999998516,1711.8607826000002,1711.8607826000002,,,n,1715.7629364999998,1715.7629364999998,12,3.296,0.5446525999999494,,,sub-041,40,65,700,bloc_loop.csv,2023-08-16_14h46.54.382,PainUncertainty,2022.2.5,142.8742877716577,
aigu,moderee,stimuli/660Hz,stimuli/moderee,bloc_8,prob50_50_4trials.xlsx,3,12,50,50,0,,,,,0,7,7,7,1,0,4,2,,,,,,,,4.9,1715.7629364999998,1720.6672678999998,1720.6671339900001,0.3051633000000038,1721.1114422,1721.1114422,,,n,1723.5810729999998,1723.5810729999998,10,1.774,0.6156883999998399,,,sub-041,40,65,700,bloc_loop.csv,2023-08-16_14h46.54.382,PainUncertainty,2022.2.5,142.8742877716577,
aigu,forte,stimuli/660Hz,stimuli/forte,bloc_8,prob50_50_4trials.xlsx,3,12,50,50,0,,,,,0,7,7,7,1,1,5,3,,,,,,,,4.8,1723.5810729999998,1728.3838796999999,1728.38390099,0.30477010000004157,1728.8277026,1728.8277026,,,m,1731.2711005,1731.2711005,47,1.158,1.2005611000000727,,,sub-041,40,65,700,bloc_loop.csv,2023-08-16_14h46.54.382,PainUncertainty,2022.2.5,142.8742877716577,
grave,moderee,stimuli/330Hz,stimuli/moderee,bloc_8,prob50_50_4trials.xlsx,3,12,50,50,0,,,,,0,7,7,7,1,2,6,0,,,,,,,,4.2,1731.2711005,1735.4745425,1735.47464599,0.3050838000001477,1735.9186915999999,1735.9186915999999,,,n,1738.0808662,1738.0808662,13,1.448,0.6442668000000822,,,sub-041,40,65,700,bloc_loop.csv,2023-08-16_14h46.54.382,PainUncertainty,2022.2.5,142.8742877716577,
grave,forte,stimuli/330Hz,stimuli/forte,bloc_8,prob50_50_4trials.xlsx,3,12,50,50,0,,,,,0,7,7,7,1,3,7,1,,,,,,,,4,1738.0808662,1742.0864044,1742.0866615900002,0.3053734000000077,1742.5345459999999,1742.5345459999999,,,m,1744.7481403000002,1744.7481403000002,44,1.308,0.8490679000000227,,,sub-041,40,65,700,bloc_loop.csv,2023-08-16_14h46.54.382,PainUncertainty,2022.2.5,142.8742877716577,
aigu,forte,stimuli/660Hz,stimuli/forte,bloc_8,prob50_50_4trials.xlsx,3,12,50,50,0,,,,,0,7,7,7,2,0,8,3,,,,,,,,3.8,1744.7481403000002,1748.5528934,1748.55338509,0.3044753000001492,1748.9966694999998,1748.9966694999998,,,m,1751.5420098999998,1751.5420098999998,45,1.552,0.9283919999999171,,,sub-041,40,65,700,bloc_loop.csv,2023-08-16_14h46.54.382,PainUncertainty,2022.2.5,142.8742877716577,
grave,forte,stimuli/330Hz,stimuli/forte,bloc_8,prob50_50_4trials.xlsx,3,12,50,50,0,,,,,0,7,7,7,2,1,9,1,,,,,,,,4.3,1751.5420098999998,1755.8458354,1755.84578589,0.3044967999999244,1756.2898662000002,1756.2898662000002,,,m,1757.8734078000002,1757.8734078000002,44,0.877,0.626440000000116,,,sub-041,40,65,700,bloc_loop.csv,2023-08-16_14h46.54.382,PainUncertainty,2022.2.5,142.8742877716577,
grave,moderee,stimuli/330Hz,stimuli/moderee,bloc_8,prob50_50_4trials.xlsx,3,12,50,50,0,,,,,0,7,7,7,2,2,10,0,,,,,,,,3.2,1757.8734078000002,1761.0749038,1761.0749649900001,0.30508919999988393,1761.5190854000002,1761.5190854000002,,,n,1764.860842,1764.860842,10,2.713,0.5682633999998643,,,sub-041,40,65,700,bloc_loop.csv,2023-08-16_14h46.54.382,PainUncertainty,2022.2.5,142.8742877716577,
aigu,moderee,stimuli/660Hz,stimuli/moderee,bloc_8,prob50_50_4trials.xlsx,3,12,50,50,0,,,,,0,7,7,7,2,3,11,2,,,,,,,,4.6,1764.860842,1769.4647329999998,1769.46480859,0.30490210000016305,1769.9092440999998,1769.9092440999998,,,n,1771.9098828,1771.9098828,6,1.41,0.5201525000001084,,,sub-041,40,65,700,bloc_loop.csv,2023-08-16_14h46.54.382,PainUncertainty,2022.2.5,142.8742877716577,
aigu,moderee,stimuli/660Hz,stimuli/moderee,bloc_9,prob20hthp_12trials.xlsx,3,36,80,20,0,,,,,0,8,8,8,0,0,0,10,,,,,,,,4,1771.9098828,1775.9100312,1775.9100855899999,0.30493860000001405,1776.354308,1776.354308,,,m,1779.5523281,1779.5523281,44,1.67,1.463143099999911,,,sub-041,40,65,700,bloc_loop.csv,2023-08-16_14h46.54.382,PainUncertainty,2022.2.5,142.8742877716577,
aigu,moderee,stimuli/660Hz,stimuli/moderee,bloc_9,prob20hthp_12trials.xlsx,3,36,80,20,0,,,,,0,8,8,8,0,1,1,9,,,,,,,,3.6,1779.5523281,1783.1556009,1783.15449319,0.3051548000000821,1783.6025653000002,1783.6025653000002,,,n,1787.5627132,1787.5627132,9,3.503,0.38386479999996936,,,sub-041,40,65,700,bloc_loop.csv,2023-08-16_14h46.54.382,PainUncertainty,2022.2.5,142.8742877716577,
grave,forte,stimuli/330Hz,stimuli/forte,bloc_9,prob20hthp_12trials.xlsx,3,36,80,20,0,,,,,0,8,8,8,0,2,2,3,,,,,,,,4.4,1787.5627132,1791.9676298999998,1791.9676755899998,0.30509219999999004,1792.4114684,1792.4114684,,,m,1794.2292604,1794.2292604,45,1.164,0.5947640999999066,,,sub-041,40,65,700,bloc_loop.csv,2023-08-16_14h46.54.382,PainUncertainty,2022.2.5,142.8742877716577,
aigu,forte,stimuli/660Hz,stimuli/forte,bloc_9,prob20hthp_12trials.xlsx,3,36,80,20,0,,,,,0,8,8,8,0,3,3,11,,,,,,,,5,1794.2292604,1799.2320949,1799.23218259,0.3049906999999621,1799.6761809999998,1799.6761809999998,,,m,1802.2543107000001,1802.2543107000001,44,0.816,1.6976507999999058,,,sub-041,40,65,700,bloc_loop.csv,2023-08-16_14h46.54.382,PainUncertainty,2022.2.5,142.8742877716577,
grave,forte,stimuli/330Hz,stimuli/forte,bloc_9,prob20hthp_12trials.xlsx,3,36,80,20,0,,,,,0,8,8,8,0,4,4,2,,,,,,,,3.4,1802.2543107000001,1805.6564051,1805.6567224900002,0.3047661999999036,1806.1006274000001,1806.1006274000001,,,m,1808.0582831000002,1808.0582831000002,48,1.134,0.7577095000000327,,,sub-041,40,65,700,bloc_loop.csv,2023-08-16_14h46.54.382,PainUncertainty,2022.2.5,142.8742877716577,
aigu,moderee,stimuli/660Hz,stimuli/moderee,bloc_9,prob20hthp_12trials.xlsx,3,36,80,20,0,,,,,0,8,8,8,0,5,5,7,,,,,,,,4.1,1808.0582831000002,1812.1572599,1812.15729769,0.3055166999999983,1812.6054021,1812.6054021,,,n,1815.6379559000002,1815.6379559000002,14,2.421,0.5259294999999611,,,sub-041,40,65,700,bloc_loop.csv,2023-08-16_14h46.54.382,PainUncertainty,2022.2.5,142.8742877716577,
grave,forte,stimuli/330Hz,stimuli/forte,bloc_9,prob20hthp_12trials.xlsx,3,36,80,20,0,,,,,0,8,8,8,0,6,6,0,,,,,,,,3.5,1815.6379559000002,1819.1372012000002,1819.1373177899998,0.3053689000000759,1819.5858097,1819.5858097,,,m,1821.6983951000002,1821.6983951000002,46,1.385,0.6486997000000656,,,sub-041,40,65,700,bloc_loop.csv,2023-08-16_14h46.54.382,PainUncertainty,2022.2.5,142.8742877716577,
aigu,moderee,stimuli/660Hz,stimuli/moderee,bloc_9,prob20hthp_12trials.xlsx,3,36,80,20,0,,,,,0,8,8,8,0,7,7,6,,,,,,,,4.6,1821.6983951000002,1826.2982404,1826.29808979,0.30521020000014687,1826.7422505999998,1826.7422505999998,,,n,1829.4342732999999,1829.4342732999999,10,2.16,0.4646209000001136,,,sub-041,40,65,700,bloc_loop.csv,2023-08-16_14h46.54.382,PainUncertainty,2022.2.5,142.8742877716577,
aigu,moderee,stimuli/660Hz,stimuli/moderee,bloc_9,prob20hthp_12trials.xlsx,3,36,80,20,0,,,,,0,8,8,8,0,8,8,8,,,,,,,,4.1,1829.4342732999999,1833.5351693000002,1833.5354640899998,0.3060089999999036,1833.9828951999998,1833.9828951999998,,,n,1836.9499784999998,1836.9499784999998,14,2.427,0.4659099000001561,,,sub-041,40,65,700,bloc_loop.csv,2023-08-16_14h46.54.382,PainUncertainty,2022.2.5,142.8742877716577,
grave,forte,stimuli/330Hz,stimuli/forte,bloc_9,prob20hthp_12trials.xlsx,3,36,80,20,0,,,,,0,8,8,8,0,9,9,1,,,,,,,,3.1,1836.9499784999998,1840.0500883,1840.0498511899998,0.30514240000002246,1840.4972934000002,1840.4972934000002,,,m,1842.4166165000001,1842.4166165000001,46,1.357,0.48849219999999605,,,sub-041,40,65,700,bloc_loop.csv,2023-08-16_14h46.54.382,PainUncertainty,2022.2.5,142.8742877716577,
grave,moderee,stimuli/330Hz,stimuli/moderee,bloc_9,prob20hthp_12trials.xlsx,3,36,80,20,0,,,,,0,8,8,8,0,10,10,5,,,,,,,,3.5,1842.4166165000001,1845.9181441,1845.91816769,0.30555600000002414,1846.3649572,1846.3649572,,,m,1848.3477401999999,1848.3477401999999,45,0.893,1.0125838000000158,,,sub-041,40,65,700,bloc_loop.csv,2023-08-16_14h46.54.382,PainUncertainty,2022.2.5,142.8742877716577,
grave,forte,stimuli/330Hz,stimuli/forte,bloc_9,prob20hthp_12trials.xlsx,3,36,80,20,0,,,,,0,8,8,8,0,11,11,4,,,,,,,,3.1,1848.3477401999999,1851.4536434000001,1851.45357519,0.3052233000000797,1851.9020408000001,1851.9020408000001,,,m,1854.9999923999999,1854.9999923999999,46,2.561,0.4665026999999782,,,sub-041,40,65,700,bloc_loop.csv,2023-08-16_14h46.54.382,PainUncertainty,2022.2.5,142.8742877716577,
aigu,moderee,stimuli/660Hz,stimuli/moderee,bloc_9,prob20hthp_12trials.xlsx,3,36,80,20,0,,,,,0,8,8,8,1,0,12,9,,,,,,,,3,1854.9999923999999,1858.0029312000001,1858.0030621899998,0.30487719999996443,1858.4472298,1858.4472298,,,n,1859.8909238,1859.8909238,14,0.87,0.49895329999992555,,,sub-041,40,65,700,bloc_loop.csv,2023-08-16_14h46.54.382,PainUncertainty,2022.2.5,142.8742877716577,
aigu,forte,stimuli/660Hz,stimuli/forte,bloc_9,prob20hthp_12trials.xlsx,3,36,80,20,0,,,,,0,8,8,8,1,1,13,11,,,,,,,,3.5,1859.8909238,1863.3924551999999,1863.39241909,0.30504160000009506,1863.8366016,1863.8366016,,,m,1866.190122,1866.190122,43,1.788,0.5115830999999389,,,sub-041,40,65,700,bloc_loop.csv,2023-08-16_14h46.54.382,PainUncertainty,2022.2.5,142.8742877716577,
grave,forte,stimuli/330Hz,stimuli/forte,bloc_9,prob20hthp_12trials.xlsx,3,36,80,20,0,,,,,0,8,8,8,1,2,14,3,,,,,,,,3.9,1866.190122,1870.0947178000001,1870.0946232899998,0.3050789999999779,1870.5387504,1870.5387504,,,m,1871.9625621,1871.9625621,46,0.836,0.5037429000000202,,,sub-041,40,65,700,bloc_loop.csv,2023-08-16_14h46.54.382,PainUncertainty,2022.2.5,142.8742877716577,
grave,moderee,stimuli/330Hz,stimuli/moderee,bloc_9,prob20hthp_12trials.xlsx,3,36,80,20,0,,,,,0,8,8,8,1,3,15,5,,,,,,,,4.6,1871.9625621,1876.5683734,1876.5681248899998,0.3050175999999283,1877.0158132000001,1877.0158132000001,,,n,1880.2431898,1880.2431898,14,2.573,0.592074499999967,,,sub-041,40,65,700,bloc_loop.csv,2023-08-16_14h46.54.382,PainUncertainty,2022.2.5,142.8742877716577,
aigu,moderee,stimuli/660Hz,stimuli/moderee,bloc_9,prob20hthp_12trials.xlsx,3,36,80,20,0,,,,,0,8,8,8,1,4,16,10,,,,,,,,3.7,1880.2431898,1883.9435460999998,1883.94373789,0.30489040000020395,1884.3877381000002,1884.3877381000002,,,n,1886.1435415,1886.1435415,10,0.739,0.951843599999961,,,sub-041,40,65,700,bloc_loop.csv,2023-08-16_14h46.54.382,PainUncertainty,2022.2.5,142.8742877716577,
aigu,moderee,stimuli/660Hz,stimuli/moderee,bloc_9,prob20hthp_12trials.xlsx,3,36,80,20,0,,,,,0,8,8,8,1,5,17,8,,,,,,,,3.2,1886.1435415,1889.3469461,1889.34716409,0.3049588000001222,1889.7949895000002,1889.7949895000002,,,n,1892.3616757,1892.3616757,8,1.968,0.5218768000000864,,,sub-041,40,65,700,bloc_loop.csv,2023-08-16_14h46.54.382,PainUncertainty,2022.2.5,142.8742877716577,
grave,forte,stimuli/330Hz,stimuli/forte,bloc_9,prob20hthp_12trials.xlsx,3,36,80,20,0,,,,,0,8,8,8,1,6,18,4,,,,,,,,5,1892.3616757,1897.3618427000001,1897.36186109,0.3026672000000872,1897.8062912999999,1897.8062912999999,,,m,1900.2758265000002,1900.2758265000002,46,1.907,0.4917796999999382,,,sub-041,40,65,700,bloc_loop.csv,2023-08-16_14h46.54.382,PainUncertainty,2022.2.5,142.8742877716577,
aigu,moderee,stimuli/660Hz,stimuli/moderee,bloc_9,prob20hthp_12trials.xlsx,3,36,80,20,0,,,,,0,8,8,8,1,7,19,7,,,,,,,,3.3,1900.2758265000002,1903.5779275,1903.57790589,0.30506020000007084,1904.0221431,1904.0221431,,,n,1906.0138114000001,1906.0138114000001,11,1.517,0.41367569999999887,,,sub-041,40,65,700,bloc_loop.csv,2023-08-16_14h46.54.382,PainUncertainty,2022.2.5,142.8742877716577,
aigu,moderee,stimuli/660Hz,stimuli/moderee,bloc_9,prob20hthp_12trials.xlsx,3,36,80,20,0,,,,,0,8,8,8,1,8,20,6,,,,,,,,4.2,1906.0138114000001,1910.2175084,1910.21746349,0.3052698000001328,1910.6618754,1910.6618754,,,n,1911.9460485999998,1911.9460485999998,17,0.774,0.44291039999995974,,,sub-041,40,65,700,bloc_loop.csv,2023-08-16_14h46.54.382,PainUncertainty,2022.2.5,142.8742877716577,
grave,forte,stimuli/330Hz,stimuli/forte,bloc_9,prob20hthp_12trials.xlsx,3,36,80,20,0,,,,,0,8,8,8,1,9,21,2,,,,,,,,3.7,1911.9460485999998,1915.649,1915.64892889,0.3050479999997151,1916.0928957,1916.0928957,,,m,1918.0686458,1918.0686458,51,1.419,0.5067319000000907,,,sub-041,40,65,700,bloc_loop.csv,2023-08-16_14h46.54.382,PainUncertainty,2022.2.5,142.8742877716577,
grave,forte,stimuli/330Hz,stimuli/forte,bloc_9,prob20hthp_12trials.xlsx,3,36,80,20,0,,,,,0,8,8,8,1,10,22,1,,,,,,,,3.6,1918.0686458,1921.6705751,1921.67077679,0.3019717000001947,1922.1144979,1922.1144979,,,m,1924.5607182999997,1924.5607182999997,45,1.491,0.9021796999996923,,,sub-041,40,65,700,bloc_loop.csv,2023-08-16_14h46.54.382,PainUncertainty,2022.2.5,142.8742877716577,
grave,forte,stimuli/330Hz,stimuli/forte,bloc_9,prob20hthp_12trials.xlsx,3,36,80,20,0,,,,,0,8,8,8,1,11,23,0,,,,,,,,5,1924.5607182999997,1929.5599683,1929.55999919,0.30508340000005774,1930.0041852,1930.0041852,,,m,1932.5548767999999,1932.5548767999999,51,2.045,0.44861390000016854,,,sub-041,40,65,700,bloc_loop.csv,2023-08-16_14h46.54.382,PainUncertainty,2022.2.5,142.8742877716577,
grave,forte,stimuli/330Hz,stimuli/forte,bloc_9,prob20hthp_12trials.xlsx,3,36,80,20,0,,,,,0,8,8,8,2,0,24,3,,,,,,,,4,1932.5548767999999,1936.5543263999998,1936.55430189,0.29934549999961746,1936.9987818,1936.9987818,,,m,1938.8692191999999,1938.8692191999999,48,1.356,0.4385794000000942,,,sub-041,40,65,700,bloc_loop.csv,2023-08-16_14h46.54.382,PainUncertainty,2022.2.5,142.8742877716577,
aigu,moderee,stimuli/660Hz,stimuli/moderee,bloc_9,prob20hthp_12trials.xlsx,3,36,80,20,0,,,,,0,8,8,8,2,1,25,9,,,,,,,,4,1938.8692191999999,1942.8744867999999,1942.8744028899998,0.30533299999979135,1943.3220846,1943.3220846,,,n,1946.6559824,1946.6559824,9,2.809,0.4489713000003803,,,sub-041,40,65,700,bloc_loop.csv,2023-08-16_14h46.54.382,PainUncertainty,2022.2.5,142.8742877716577,
aigu,forte,stimuli/660Hz,stimuli/forte,bloc_9,prob20hthp_12trials.xlsx,3,36,80,20,0,,,,,0,8,8,8,2,2,26,11,,,,,,,,4.5,1946.6559824,1951.1603483,1951.16023569,0.3051040999998804,1951.6079918,1951.6079918,,,m,1953.1296606,1953.1296606,49,1.072,0.3932361999997056,,,sub-041,40,65,700,bloc_loop.csv,2023-08-16_14h46.54.382,PainUncertainty,2022.2.5,142.8742877716577,
grave,forte,stimuli/330Hz,stimuli/forte,bloc_9,prob20hthp_12trials.xlsx,3,36,80,20,0,,,,,0,8,8,8,2,3,27,1,,,,,,,,3.8,1953.1296606,1956.9312878,1956.93125889,0.305085500000132,1957.3754632999999,1957.3754632999999,,,m,1958.7908030999997,1958.7908030999997,50,0.954,0.395634399999949,,,sub-041,40,65,700,bloc_loop.csv,2023-08-16_14h46.54.382,PainUncertainty,2022.2.5,142.8742877716577,
grave,forte,stimuli/330Hz,stimuli/forte,bloc_9,prob20hthp_12trials.xlsx,3,36,80,20,0,,,,,0,8,8,8,2,4,28,0,,,,,,,,3.1,1958.7908030999997,1961.8902352,1961.8902054899997,0.30521600000020044,1962.338471,1962.338471,,,m,1963.5856080999997,1963.5856080999997,50,0.823,0.35876059999975496,,,sub-041,40,65,700,bloc_loop.csv,2023-08-16_14h46.54.382,PainUncertainty,2022.2.5,142.8742877716577,
grave,forte,stimuli/330Hz,stimuli/forte,bloc_9,prob20hthp_12trials.xlsx,3,36,80,20,0,,,,,0,8,8,8,2,5,29,2,,,,,,,,3.4,1963.5856080999997,1966.9880757,1966.9880302899999,0.3050564000000122,1967.4321873999997,1967.4321873999997,,,m,1969.6618236,1969.6618236,49,1.691,0.45586070000001655,,,sub-041,40,65,700,bloc_loop.csv,2023-08-16_14h46.54.382,PainUncertainty,2022.2.5,142.8742877716577,
grave,moderee,stimuli/330Hz,stimuli/moderee,bloc_9,prob20hthp_12trials.xlsx,3,36,80,20,0,,,,,0,8,8,8,2,6,30,5,,,,,,,,4.2,1969.6618236,1973.8637522,1973.86393879,0.30552559999978257,1974.3120694999998,1974.3120694999998,,,n,1976.0875158,1976.0875158,10,1.212,0.5014670000001615,,,sub-041,40,65,700,bloc_loop.csv,2023-08-16_14h46.54.382,PainUncertainty,2022.2.5,142.8742877716577,
aigu,moderee,stimuli/660Hz,stimuli/moderee,bloc_9,prob20hthp_12trials.xlsx,3,36,80,20,0,,,,,0,8,8,8,2,7,31,7,,,,,,,,3.5,1976.0875158,1979.5866674,1979.5866609899997,0.3053577000000587,1980.0309687999998,1980.0309687999998,,,n,1982.3701624999999,1982.3701624999999,11,1.835,0.45191719999968427,,,sub-041,40,65,700,bloc_loop.csv,2023-08-16_14h46.54.382,PainUncertainty,2022.2.5,142.8742877716577,
aigu,moderee,stimuli/660Hz,stimuli/moderee,bloc_9,prob20hthp_12trials.xlsx,3,36,80,20,0,,,,,0,8,8,8,2,8,32,6,,,,,,,,4.5,1982.3701624999999,1986.8727405,1986.87453889,0.3033634999997048,1987.3200532,1987.3200532,,,n,1989.7758295999997,1989.7758295999997,10,1.941,0.4285654999999906,,,sub-041,40,65,700,bloc_loop.csv,2023-08-16_14h46.54.382,PainUncertainty,2022.2.5,142.8742877716577,
grave,forte,stimuli/330Hz,stimuli/forte,bloc_9,prob20hthp_12trials.xlsx,3,36,80,20,0,,,,,0,8,8,8,2,9,33,4,,,,,,,,4.6,1989.7758295999997,1994.3801113,1994.3802372899997,0.3049445999999989,1994.8243088,1994.8243088,,,m,1997.3681541,1997.3681541,51,2.002,0.4719934000000876,,,sub-041,40,65,700,bloc_loop.csv,2023-08-16_14h46.54.382,PainUncertainty,2022.2.5,142.8742877716577,
aigu,moderee,stimuli/660Hz,stimuli/moderee,bloc_9,prob20hthp_12trials.xlsx,3,36,80,20,0,,,,,0,8,8,8,2,10,34,8,,,,,,,,3.8,1997.3681541,2001.1726365,2001.17262139,0.30067719999988185,2001.617709,2001.617709,,,n,2003.8584385999998,2003.8584385999998,14,1.677,0.49733759999992344,,,sub-041,40,65,700,bloc_loop.csv,2023-08-16_14h46.54.382,PainUncertainty,2022.2.5,142.8742877716577,
aigu,moderee,stimuli/660Hz,stimuli/moderee,bloc_9,prob20hthp_12trials.xlsx,3,36,80,20,0,,,,,0,8,8,8,2,11,35,10,,,,,,,,3.7,2003.8584385999998,2007.5627814,2007.5627838899998,0.3010831000001417,2008.0084763999998,2008.0084763999998,,,n,2010.0331646999998,2010.0331646999998,9,1.545,0.45185019999973974,,,sub-041,40,65,700,bloc_loop.csv,2023-08-16_14h46.54.382,PainUncertainty,2022.2.5,142.8742877716577,
