cue_,stimulus_,cue_fichier,stimulus_fichier,block_name,block_trials_file,block_n_reps,block_ntrials,block_prob_highP_highT,block_prob_highP_lowT,block_pause_after,Bloc_essai.thisRepN,Bloc_essai.thisTrialN,Bloc_essai.thisN,Bloc_essai.thisIndex,blocks.thisRepN,blocks.thisTrialN,blocks.thisN,blocks.thisIndex,trials.thisRepN,trials.thisTrialN,trials.thisN,trials.thisIndex,pause_loop.thisRepN,pause_loop.thisTrialN,pause_loop.thisN,pause_loop.thisIndex,key_resp_5.started,start_calib.started,key_resp_2.started,ISI_duration,pause.started,pause.stopped,cue.started,ISI.started,choice_pain.started,Choice.started,choice_pain.keys,choice_pain.rt,main_text.started,confirm_text.started,ratingScale.response,ratingScale.rt,key_resp_3.started,key_resp_6.started,participant,low_ma,high_ma,failsafe_ma,block_file,date,expName,psychopyVersion,frameRate,
grave,forte,stimuli/330Hz,stimuli/forte,,,,,,,,0,0,0,1,,,,,,,,,,,,,18.51920939999991,20.175022699999772,25.516147100000126,4.3,26.869313000000147,31.173176299999795,31.16995928999977,0.3025001999999404,31.61403160000009,31.61403160000009,m,1.0154270999996697,34.2670250000001,34.2670250000001,62,1.54,,,sub-033,40,120,700,bloc_loop.csv,2023-06-29_18h00.28.676,PainUncertainty,2022.2.5,143.67403235532666,
grave,moderee,stimuli/330Hz,stimuli/moderee,,,,,,,,0,1,1,0,,,,,,,,,,,,,,,,3.9,34.2670250000001,38.170502099999794,38.170473489999765,0.3056566999998722,38.61748059999991,38.61748059999991,n,0.9215055999998185,42.084389199999805,42.084389199999805,31,2.495,,,sub-033,40,120,700,bloc_loop.csv,2023-06-29_18h00.28.676,PainUncertainty,2022.2.5,143.67403235532666,
aigu,moderee,stimuli/660Hz,stimuli/moderee,,,,,,,,0,2,2,2,,,,,,,,,,,,,,,,4.8,42.084389199999805,46.88692559999981,46.887003889999775,0.3047812999998314,47.33091430000013,47.33091430000013,n,0.7623308000001998,50.01733779999995,50.01733779999995,30,1.849,,,sub-033,40,120,700,bloc_loop.csv,2023-06-29_18h00.28.676,PainUncertainty,2022.2.5,143.67403235532666,
aigu,forte,stimuli/660Hz,stimuli/forte,,,,,,,,0,3,3,3,,,,,,,,,,,,,,,,4.3,50.01733779999995,54.31834170000002,54.31824109000017,0.30527550000033443,54.76260259999981,54.76260259999981,m,1.037983599999734,57.74028120000003,57.74028120000003,68,1.913,,,sub-033,40,120,700,bloc_loop.csv,2023-06-29_18h00.28.676,PainUncertainty,2022.2.5,143.67403235532666,
aigu,moderee,stimuli/660Hz,stimuli/moderee,bloc_1,prob20hthp_12trials.xlsx,4,48,20,80,0,,,,,0,0,0,0,0,0,0,6,,,,,,,,4,95.30409719999989,99.30990639999982,99.3099081899998,0.30055220000031113,99.75465609999992,99.75465609999992,n,0.6568523000000823,101.31286150000005,101.31286150000005,30,0.841,,,sub-033,40,120,700,bloc_loop.csv,2023-06-29_18h00.28.676,PainUncertainty,2022.2.5,143.67403235532666,
aigu,moderee,stimuli/660Hz,stimuli/moderee,bloc_1,prob20hthp_12trials.xlsx,4,48,20,80,0,,,,,0,0,0,0,0,1,1,9,,,,,,,,4.6,101.31286150000005,105.91483599999992,105.91482779000016,0.30515609999974913,106.36153299999978,106.36153299999978,n,0.6740752999994584,109.43844709999985,109.43844709999985,29,2.323,,,sub-033,40,120,700,bloc_loop.csv,2023-06-29_18h00.28.676,PainUncertainty,2022.2.5,143.67403235532666,
grave,forte,stimuli/330Hz,stimuli/forte,bloc_1,prob20hthp_12trials.xlsx,4,48,20,80,0,,,,,0,0,0,0,0,2,2,4,,,,,,,,3.3,109.43844709999985,112.74214619999975,112.74209179000017,0.30527040000015404,113.18656190000002,113.18656190000002,m,0.49800439999989976,116.00785289999976,116.00785289999976,65,2.266,,,sub-033,40,120,700,bloc_loop.csv,2023-06-29_18h00.28.676,PainUncertainty,2022.2.5,143.67403235532666,
aigu,forte,stimuli/660Hz,stimuli/forte,bloc_1,prob20hthp_12trials.xlsx,4,48,20,80,0,,,,,0,0,0,0,0,3,3,11,,,,,,,,3.5,116.00785289999976,119.5068083000001,119.5068605899999,0.30484859999978653,119.9511008999998,119.9511008999998,m,0.7692403999999442,123.47654299999977,123.47654299999977,68,2.704,,,sub-033,40,120,700,bloc_loop.csv,2023-06-29_18h00.28.676,PainUncertainty,2022.2.5,143.67403235532666,
grave,forte,stimuli/330Hz,stimuli/forte,bloc_1,prob20hthp_12trials.xlsx,4,48,20,80,0,,,,,0,0,0,0,0,4,4,2,,,,,,,,3.4,123.47654299999977,126.87590850000015,126.87585939,0.305317500000001,127.3205754999999,127.3205754999999,m,0.7864788999995653,129.26543249999986,129.26543249999986,66,1.07,,,sub-033,40,120,700,bloc_loop.csv,2023-06-29_18h00.28.676,PainUncertainty,2022.2.5,143.67403235532666,
grave,moderee,stimuli/330Hz,stimuli/moderee,bloc_1,prob20hthp_12trials.xlsx,4,48,20,80,0,,,,,0,0,0,0,0,5,5,5,,,,,,,,3.7,129.26543249999986,132.96681880000006,132.96686229000017,0.304884900000161,133.4109367000001,133.4109367000001,n,0.7120985999999903,136.5712982,136.5712982,20,2.392,,,sub-033,40,120,700,bloc_loop.csv,2023-06-29_18h00.28.676,PainUncertainty,2022.2.5,143.67403235532666,
aigu,moderee,stimuli/660Hz,stimuli/moderee,bloc_1,prob20hthp_12trials.xlsx,4,48,20,80,0,,,,,0,0,0,0,0,6,6,10,,,,,,,,3,136.5712982,139.57188050000013,139.57186539000014,0.3048749000004136,140.01604319999979,140.01604319999979,n,0.5875922999998693,141.3860638000001,141.3860638000001,25,0.718,,,sub-033,40,120,700,bloc_loop.csv,2023-06-29_18h00.28.676,PainUncertainty,2022.2.5,143.67403235532666,
aigu,moderee,stimuli/660Hz,stimuli/moderee,bloc_1,prob20hthp_12trials.xlsx,4,48,20,80,0,,,,,0,0,0,0,0,7,7,8,,,,,,,,3,141.3860638000001,144.39191140000003,144.3918638899998,0.3052392999998119,144.83873059999996,144.83873059999996,n,0.6564125999998396,146.83772520000002,146.83772520000002,22,1.273,,,sub-033,40,120,700,bloc_loop.csv,2023-06-29_18h00.28.676,PainUncertainty,2022.2.5,143.67403235532666,
grave,forte,stimuli/330Hz,stimuli/forte,bloc_1,prob20hthp_12trials.xlsx,4,48,20,80,0,,,,,0,0,0,0,0,8,8,3,,,,,,,,3,146.83772520000002,149.83674539999993,149.83689768999994,0.3052485999996861,150.28110349999997,150.28110349999997,m,0.5438730999994732,152.32197210000004,152.32197210000004,68,1.422,,,sub-033,40,120,700,bloc_loop.csv,2023-06-29_18h00.28.676,PainUncertainty,2022.2.5,143.67403235532666,
aigu,moderee,stimuli/660Hz,stimuli/moderee,bloc_1,prob20hthp_12trials.xlsx,4,48,20,80,0,,,,,0,0,0,0,0,9,9,7,,,,,,,,3.7,152.32197210000004,156.02512220000017,156.02514318999994,0.30525859999988825,156.47317350000003,156.47317350000003,n,0.49863449999975273,159.51787349999995,159.51787349999995,22,2.476,,,sub-033,40,120,700,bloc_loop.csv,2023-06-29_18h00.28.676,PainUncertainty,2022.2.5,143.67403235532666,
grave,forte,stimuli/330Hz,stimuli/forte,bloc_1,prob20hthp_12trials.xlsx,4,48,20,80,0,,,,,0,0,0,0,0,10,10,0,,,,,,,,4.1,159.51787349999995,163.62360320000016,163.62361618999995,0.30577210000001287,164.07265619999998,164.07265619999998,m,0.47591019999981654,166.4254891999999,166.4254891999999,63,1.822,,,sub-033,40,120,700,bloc_loop.csv,2023-06-29_18h00.28.676,PainUncertainty,2022.2.5,143.67403235532666,
grave,forte,stimuli/330Hz,stimuli/forte,bloc_1,prob20hthp_12trials.xlsx,4,48,20,80,0,,,,,0,0,0,0,0,11,11,1,,,,,,,,5,166.4254891999999,171.43007499999976,171.4302050899999,0.30486740000014834,171.87793809999994,171.87793809999994,m,0.549543999999969,173.97427389999984,173.97427389999984,69,1.467,,,sub-033,40,120,700,bloc_loop.csv,2023-06-29_18h00.28.676,PainUncertainty,2022.2.5,143.67403235532666,
aigu,moderee,stimuli/660Hz,stimuli/moderee,bloc_1,prob20hthp_12trials.xlsx,4,48,20,80,0,,,,,0,0,0,0,1,0,12,10,,,,,,,,4.3,173.97427389999984,178.2778183999999,178.27783588999984,0.30515699999978096,178.72198320000007,178.72198320000007,n,0.47866350000003877,181.9704830999999,181.9704830999999,24,2.69,,,sub-033,40,120,700,bloc_loop.csv,2023-06-29_18h00.28.676,PainUncertainty,2022.2.5,143.67403235532666,
grave,forte,stimuli/330Hz,stimuli/forte,bloc_1,prob20hthp_12trials.xlsx,4,48,20,80,0,,,,,0,0,0,0,1,1,13,0,,,,,,,,4,181.9704830999999,185.9731781999999,185.9732189899999,0.3052812000000813,186.42451119999987,186.42451119999987,m,0.5138772999998764,187.6456948,187.6456948,61,0.654,,,sub-033,40,120,700,bloc_loop.csv,2023-06-29_18h00.28.676,PainUncertainty,2022.2.5,143.67403235532666,
grave,forte,stimuli/330Hz,stimuli/forte,bloc_1,prob20hthp_12trials.xlsx,4,48,20,80,0,,,,,0,0,0,0,1,2,14,4,,,,,,,,4.1,187.6456948,191.74513209999986,191.7450660900002,0.2991720999998506,192.1831984999999,192.1831984999999,m,0.47687580000001617,193.43466949999993,193.43466949999993,67,0.717,,,sub-033,40,120,700,bloc_loop.csv,2023-06-29_18h00.28.676,PainUncertainty,2022.2.5,143.67403235532666,
grave,forte,stimuli/330Hz,stimuli/forte,bloc_1,prob20hthp_12trials.xlsx,4,48,20,80,0,,,,,0,0,0,0,1,3,15,2,,,,,,,,4.6,193.43466949999993,198.03759309999987,198.03764729000005,0.30508149999968737,198.48363960000006,198.48363960000006,m,0.48193259999970905,200.10327629999983,200.10327629999983,70,1.058,,,sub-033,40,120,700,bloc_loop.csv,2023-06-29_18h00.28.676,PainUncertainty,2022.2.5,143.67403235532666,
aigu,moderee,stimuli/660Hz,stimuli/moderee,bloc_1,prob20hthp_12trials.xlsx,4,48,20,80,0,,,,,0,0,0,0,1,4,16,8,,,,,,,,4.2,200.10327629999983,204.30879159999995,204.30876909,0.30743240000037986,204.76062899999988,204.76062899999988,n,0.43278549999968163,207.2492204,207.2492204,23,1.989,,,sub-033,40,120,700,bloc_loop.csv,2023-06-29_18h00.28.676,PainUncertainty,2022.2.5,143.67403235532666,
aigu,moderee,stimuli/660Hz,stimuli/moderee,bloc_1,prob20hthp_12trials.xlsx,4,48,20,80,0,,,,,0,0,0,0,1,5,17,7,,,,,,,,3.9,207.2492204,211.1499389999999,211.15000138999977,0.3049848999999085,211.59777619999977,211.59777619999977,n,0.5345209999995859,214.62209799999982,214.62209799999982,27,2.413,,,sub-033,40,120,700,bloc_loop.csv,2023-06-29_18h00.28.676,PainUncertainty,2022.2.5,143.67403235532666,
grave,forte,stimuli/330Hz,stimuli/forte,bloc_1,prob20hthp_12trials.xlsx,4,48,20,80,0,,,,,0,0,0,0,1,6,18,1,,,,,,,,4,214.62209799999982,218.62343580000015,218.6245202899998,0.30406989999983125,219.06729029999997,219.06729029999997,m,0.6260566999999355,220.90639499999997,220.90639499999997,77,1.133,,,sub-033,40,120,700,bloc_loop.csv,2023-06-29_18h00.28.676,PainUncertainty,2022.2.5,143.67403235532666,
grave,moderee,stimuli/330Hz,stimuli/moderee,bloc_1,prob20hthp_12trials.xlsx,4,48,20,80,0,,,,,0,0,0,0,1,7,19,5,,,,,,,,3.2,220.90639499999997,224.1102476000001,224.11022509000014,0.30521409999983007,224.5584899999999,224.5584899999999,n,0.5081351999997423,226.3567324999999,226.3567324999999,24,1.238,,,sub-033,40,120,700,bloc_loop.csv,2023-06-29_18h00.28.676,PainUncertainty,2022.2.5,143.67403235532666,
aigu,moderee,stimuli/660Hz,stimuli/moderee,bloc_1,prob20hthp_12trials.xlsx,4,48,20,80,0,,,,,0,0,0,0,1,8,20,9,,,,,,,,3.2,226.3567324999999,229.56226079999988,229.56237158999994,0.3046044999996411,230.00621580000006,230.00621580000006,n,0.5555323999997199,232.84915999999976,232.84915999999976,24,2.217,,,sub-033,40,120,700,bloc_loop.csv,2023-06-29_18h00.28.676,PainUncertainty,2022.2.5,143.67403235532666,
aigu,forte,stimuli/660Hz,stimuli/forte,bloc_1,prob20hthp_12trials.xlsx,4,48,20,80,0,,,,,0,0,0,0,1,9,21,11,,,,,,,,4.3,232.84915999999976,237.15309979999984,237.1531605899998,0.3052784999999858,237.60268300000007,237.60268300000007,m,0.48151469999993424,238.84521929999983,238.84521929999983,74,0.703,,,sub-033,40,120,700,bloc_loop.csv,2023-06-29_18h00.28.676,PainUncertainty,2022.2.5,143.67403235532666,
grave,forte,stimuli/330Hz,stimuli/forte,bloc_1,prob20hthp_12trials.xlsx,4,48,20,80,0,,,,,0,0,0,0,1,10,22,3,,,,,,,,4.7,238.84521929999983,243.54963499999985,243.54976529000015,0.3048713000002863,243.99389789999987,243.99389789999987,m,1.137412999999924,247.0659443999998,247.0659443999998,66,1.849,,,sub-033,40,120,700,bloc_loop.csv,2023-06-29_18h00.28.676,PainUncertainty,2022.2.5,143.67403235532666,
aigu,moderee,stimuli/660Hz,stimuli/moderee,bloc_1,prob20hthp_12trials.xlsx,4,48,20,80,0,,,,,0,0,0,0,1,11,23,6,,,,,,,,3.9,247.0659443999998,250.96737429999985,250.9675850900001,0.30004179999968983,251.41280240000015,251.41280240000015,n,0.447983000000022,254.18233550000014,254.18233550000014,25,2.24,,,sub-033,40,120,700,bloc_loop.csv,2023-06-29_18h00.28.676,PainUncertainty,2022.2.5,143.67403235532666,
aigu,forte,stimuli/660Hz,stimuli/forte,bloc_1,prob20hthp_12trials.xlsx,4,48,20,80,0,,,,,0,0,0,0,2,0,24,11,,,,,,,,3.8,254.18233550000014,257.9825845999999,257.9826211900002,0.3048920999999609,258.4306909000002,258.4306909000002,m,0.4492054000002099,260.399848,260.399848,65,1.442,,,sub-033,40,120,700,bloc_loop.csv,2023-06-29_18h00.28.676,PainUncertainty,2022.2.5,143.67403235532666,
grave,moderee,stimuli/330Hz,stimuli/moderee,bloc_1,prob20hthp_12trials.xlsx,4,48,20,80,0,,,,,0,0,0,0,2,1,25,5,,,,,,,,4.1,260.399848,264.5044305000001,264.5043526900002,0.30487270000003264,264.95265960000006,264.95265960000006,n,0.4693576999998186,267.58237710000003,267.58237710000003,28,2.073,,,sub-033,40,120,700,bloc_loop.csv,2023-06-29_18h00.28.676,PainUncertainty,2022.2.5,143.67403235532666,
grave,forte,stimuli/330Hz,stimuli/forte,bloc_1,prob20hthp_12trials.xlsx,4,48,20,80,0,,,,,0,0,0,0,2,2,26,1,,,,,,,,4.6,267.58237710000003,272.1853335999999,272.18535048999985,0.30481749999989916,272.6293132999999,272.6293132999999,m,0.5358836999998857,275.71862329999976,275.71862329999976,66,2.487,,,sub-033,40,120,700,bloc_loop.csv,2023-06-29_18h00.28.676,PainUncertainty,2022.2.5,143.67403235532666,
grave,forte,stimuli/330Hz,stimuli/forte,bloc_1,prob20hthp_12trials.xlsx,4,48,20,80,0,,,,,0,0,0,0,2,3,27,4,,,,,,,,4.4,275.71862329999976,280.1244114000001,280.12404639000016,0.2997295000000122,280.56843089999984,280.56843089999984,m,0.5606308999999783,282.41986510000015,282.41986510000015,72,1.21,,,sub-033,40,120,700,bloc_loop.csv,2023-06-29_18h00.28.676,PainUncertainty,2022.2.5,143.67403235532666,
aigu,moderee,stimuli/660Hz,stimuli/moderee,bloc_1,prob20hthp_12trials.xlsx,4,48,20,80,0,,,,,0,0,0,0,2,4,28,8,,,,,,,,3.6,282.41986510000015,286.02018799999996,286.02019698999976,0.3051126000000295,286.4649822000001,286.4649822000001,n,0.7057574999998906,288.8460589000001,288.8460589000001,26,1.621,,,sub-033,40,120,700,bloc_loop.csv,2023-06-29_18h00.28.676,PainUncertainty,2022.2.5,143.67403235532666,
aigu,moderee,stimuli/660Hz,stimuli/moderee,bloc_1,prob20hthp_12trials.xlsx,4,48,20,80,0,,,,,0,0,0,0,2,5,29,6,,,,,,,,4.5,288.8460589000001,293.3474725000001,293.34754348999996,0.30518050000000585,293.7941808999999,293.7941808999999,n,0.45705969999971785,295.8517046000002,295.8517046000002,22,1.532,,,sub-033,40,120,700,bloc_loop.csv,2023-06-29_18h00.28.676,PainUncertainty,2022.2.5,143.67403235532666,
aigu,moderee,stimuli/660Hz,stimuli/moderee,bloc_1,prob20hthp_12trials.xlsx,4,48,20,80,0,,,,,0,0,0,0,2,6,30,10,,,,,,,,4.8,295.8517046000002,300.6538562999999,300.6540259900001,0.30518309999979465,301.1026646999999,301.1026646999999,n,0.4501956999997674,303.0618556999998,303.0618556999998,19,1.448,,,sub-033,40,120,700,bloc_loop.csv,2023-06-29_18h00.28.676,PainUncertainty,2022.2.5,143.67403235532666,
aigu,moderee,stimuli/660Hz,stimuli/moderee,bloc_1,prob20hthp_12trials.xlsx,4,48,20,80,0,,,,,0,0,0,0,2,7,31,7,,,,,,,,4,303.0618556999998,307.0648261000001,307.06490349000006,0.2991233000002467,307.50746200000003,307.50746200000003,n,0.5117949999998928,309.25123329999997,309.25123329999997,21,1.163,,,sub-033,40,120,700,bloc_loop.csv,2023-06-29_18h00.28.676,PainUncertainty,2022.2.5,143.67403235532666,
grave,forte,stimuli/330Hz,stimuli/forte,bloc_1,prob20hthp_12trials.xlsx,4,48,20,80,0,,,,,0,0,0,0,2,8,32,3,,,,,,,,4.2,309.25123329999997,313.4540599000002,313.4542437899998,0.305203999999776,313.9030306999998,313.9030306999998,m,0.5480873999999858,316.64113540000017,316.64113540000017,68,2.106,,,sub-033,40,120,700,bloc_loop.csv,2023-06-29_18h00.28.676,PainUncertainty,2022.2.5,143.67403235532666,
aigu,moderee,stimuli/660Hz,stimuli/moderee,bloc_1,prob20hthp_12trials.xlsx,4,48,20,80,0,,,,,0,0,0,0,2,9,33,9,,,,,,,,3.6,316.64113540000017,320.24654310000005,320.2466498900001,0.3046518000001015,320.6916557999998,320.6916557999998,n,0.43514349999986734,321.99679030000016,321.99679030000016,25,0.786,,,sub-033,40,120,700,bloc_loop.csv,2023-06-29_18h00.28.676,PainUncertainty,2022.2.5,143.67403235532666,
grave,forte,stimuli/330Hz,stimuli/forte,bloc_1,prob20hthp_12trials.xlsx,4,48,20,80,0,,,,,0,0,0,0,2,10,34,2,,,,,,,,3.6,321.99679030000016,325.6013449000002,325.6013995900001,0.30557309999994686,326.0509766,326.0509766,m,0.482730399999582,328.0393700999998,328.0393700999998,69,1.448,,,sub-033,40,120,700,bloc_loop.csv,2023-06-29_18h00.28.676,PainUncertainty,2022.2.5,143.67403235532666,
grave,forte,stimuli/330Hz,stimuli/forte,bloc_1,prob20hthp_12trials.xlsx,4,48,20,80,0,,,,,0,0,0,0,2,11,35,0,,,,,,,,3.4,328.0393700999998,331.4423095000002,331.44232709,0.3055731999997988,331.88731229999985,331.88731229999985,m,0.44530810000014753,333.0443381,333.0443381,70,0.649,,,sub-033,40,120,700,bloc_loop.csv,2023-06-29_18h00.28.676,PainUncertainty,2022.2.5,143.67403235532666,
aigu,forte,stimuli/660Hz,stimuli/forte,bloc_1,prob20hthp_12trials.xlsx,4,48,20,80,0,,,,,0,0,0,0,3,0,36,11,,,,,,,,5,333.0443381,338.0473041,338.04731939000004,0.30578449999984514,338.4970830000002,338.4970830000002,m,0.5664522000001853,342.7022059000001,342.7022059000001,70,3.586,,,sub-033,40,120,700,bloc_loop.csv,2023-06-29_18h00.28.676,PainUncertainty,2022.2.5,143.67403235532666,
grave,forte,stimuli/330Hz,stimuli/forte,bloc_1,prob20hthp_12trials.xlsx,4,48,20,80,0,,,,,0,0,0,0,3,1,37,4,,,,,,,,3,342.7022059000001,345.70822899999985,345.7081460900002,0.30512850000013714,346.1569374999999,346.1569374999999,m,0.7823214000000007,347.74145009999984,347.74145009999984,67,0.718,,,sub-033,40,120,700,bloc_loop.csv,2023-06-29_18h00.28.676,PainUncertainty,2022.2.5,143.67403235532666,
aigu,moderee,stimuli/660Hz,stimuli/moderee,bloc_1,prob20hthp_12trials.xlsx,4,48,20,80,0,,,,,0,0,0,0,3,2,38,6,,,,,,,,4.1,347.74145009999984,351.8408284000002,351.8407158899998,0.3050879000002169,352.2847433000002,352.2847433000002,n,0.5471992999996473,355.0490077999998,355.0490077999998,29,2.15,,,sub-033,40,120,700,bloc_loop.csv,2023-06-29_18h00.28.676,PainUncertainty,2022.2.5,143.67403235532666,
grave,forte,stimuli/330Hz,stimuli/forte,bloc_1,prob20hthp_12trials.xlsx,4,48,20,80,0,,,,,0,0,0,0,3,3,39,2,,,,,,,,3.4,355.0490077999998,358.45311189999984,358.45301549000015,0.2991456999998263,358.89092089999986,358.89092089999986,m,0.5008531999997103,360.3560831,360.3560831,69,0.897,,,sub-033,40,120,700,bloc_loop.csv,2023-06-29_18h00.28.676,PainUncertainty,2022.2.5,143.67403235532666,
grave,forte,stimuli/330Hz,stimuli/forte,bloc_1,prob20hthp_12trials.xlsx,4,48,20,80,0,,,,,0,0,0,0,3,4,40,3,,,,,,,,3.1,360.3560831,363.4601668999999,363.46015358999995,0.30490880000024845,363.90475370000013,363.90475370000013,m,0.7867371999996067,365.9047894,365.9047894,71,1.133,,,sub-033,40,120,700,bloc_loop.csv,2023-06-29_18h00.28.676,PainUncertainty,2022.2.5,143.67403235532666,
aigu,moderee,stimuli/660Hz,stimuli/moderee,bloc_1,prob20hthp_12trials.xlsx,4,48,20,80,0,,,,,0,0,0,0,3,5,41,7,,,,,,,,4.5,365.9047894,370.40587400000004,370.4060099900001,0.30454850000023725,370.85003689999985,370.85003689999985,n,0.72561609999957,372.33255359999976,372.33255359999976,24,0.703,,,sub-033,40,120,700,bloc_loop.csv,2023-06-29_18h00.28.676,PainUncertainty,2022.2.5,143.67403235532666,
grave,moderee,stimuli/330Hz,stimuli/moderee,bloc_1,prob20hthp_12trials.xlsx,4,48,20,80,0,,,,,0,0,0,0,3,6,42,5,,,,,,,,3.4,372.33255359999976,375.73243520000005,375.7324550900001,0.30490829999962443,376.17673030000014,376.17673030000014,n,0.6949558999999681,378.3767434000001,378.3767434000001,28,1.44,,,sub-033,40,120,700,bloc_loop.csv,2023-06-29_18h00.28.676,PainUncertainty,2022.2.5,143.67403235532666,
grave,forte,stimuli/330Hz,stimuli/forte,bloc_1,prob20hthp_12trials.xlsx,4,48,20,80,0,,,,,0,0,0,0,3,7,43,0,,,,,,,,4.5,378.3767434000001,382.87912800000004,382.8792629900002,0.30534179999995104,383.3284242,383.3284242,m,0.786855899999864,386.02255000000014,386.02255000000014,65,1.835,,,sub-033,40,120,700,bloc_loop.csv,2023-06-29_18h00.28.676,PainUncertainty,2022.2.5,143.67403235532666,
aigu,moderee,stimuli/660Hz,stimuli/moderee,bloc_1,prob20hthp_12trials.xlsx,4,48,20,80,0,,,,,0,0,0,0,3,8,44,10,,,,,,,,3.4,386.02255000000014,389.4216772,389.42182239000005,0.30478409999977885,389.8662416000002,389.8662416000002,n,0.5983903999999711,391.4431233999999,391.4431233999999,26,0.921,,,sub-033,40,120,700,bloc_loop.csv,2023-06-29_18h00.28.676,PainUncertainty,2022.2.5,143.67403235532666,
aigu,moderee,stimuli/660Hz,stimuli/moderee,bloc_1,prob20hthp_12trials.xlsx,4,48,20,80,0,,,,,0,0,0,0,3,9,45,8,,,,,,,,4.6,391.4431233999999,396.0474869999998,396.04736828999995,0.3052593999996134,396.49201230000017,396.49201230000017,n,0.6425270999998247,398.2534802,398.2534802,19,1.053,,,sub-033,40,120,700,bloc_loop.csv,2023-06-29_18h00.28.676,PainUncertainty,2022.2.5,143.67403235532666,
aigu,moderee,stimuli/660Hz,stimuli/moderee,bloc_1,prob20hthp_12trials.xlsx,4,48,20,80,0,,,,,0,0,0,0,3,10,46,9,,,,,,,,3.6,398.2534802,401.8536073999999,401.8537978900002,0.3050386999998409,402.2980173000001,402.2980173000001,n,0.5712484999994558,404.5383240000001,404.5383240000001,23,1.591,,,sub-033,40,120,700,bloc_loop.csv,2023-06-29_18h00.28.676,PainUncertainty,2022.2.5,143.67403235532666,
grave,forte,stimuli/330Hz,stimuli/forte,bloc_1,prob20hthp_12trials.xlsx,4,48,20,80,0,,,,,0,0,0,0,3,11,47,1,,,,,,,,4.1,404.5383240000001,408.6392175000001,408.63918239000014,0.3053410000002259,409.08426819999977,409.08426819999977,m,0.6411850999998023,411.1919745,411.1919745,68,1.385,,,sub-033,40,120,700,bloc_loop.csv,2023-06-29_18h00.28.676,PainUncertainty,2022.2.5,143.67403235532666,
grave,moderee,stimuli/330Hz,stimuli/moderee,bloc_2,prob50_50_4trials.xlsx,2,8,50,50,1,,,,,0,1,1,1,0,0,0,0,,,,,,,,3.9,411.1919745,415.0917510999998,415.09170779000016,0.3049470000000838,415.5360154,415.5360154,n,0.5649726999995437,417.1564663999998,417.1564663999998,24,0.991,,,sub-033,40,120,700,bloc_loop.csv,2023-06-29_18h00.28.676,PainUncertainty,2022.2.5,143.67403235532666,
aigu,moderee,stimuli/660Hz,stimuli/moderee,bloc_2,prob50_50_4trials.xlsx,2,8,50,50,1,,,,,0,1,1,1,0,1,1,2,,,,,,,,3.1,417.1564663999998,420.25910539999995,420.25908938999993,0.30479849999983344,420.7035203999999,420.7035203999999,n,0.5770622999998523,422.6240352,422.6240352,14,1.267,,,sub-033,40,120,700,bloc_loop.csv,2023-06-29_18h00.28.676,PainUncertainty,2022.2.5,143.67403235532666,
aigu,forte,stimuli/660Hz,stimuli/forte,bloc_2,prob50_50_4trials.xlsx,2,8,50,50,1,,,,,0,1,1,1,0,2,2,3,,,,,,,,4,422.6240352,426.62760690000005,426.62743299000005,0.3058184000001347,427.0749919,427.0749919,m,0.7001696000002084,428.52311499999996,428.52311499999996,70,0.692,,,sub-033,40,120,700,bloc_loop.csv,2023-06-29_18h00.28.676,PainUncertainty,2022.2.5,143.67403235532666,
grave,forte,stimuli/330Hz,stimuli/forte,bloc_2,prob50_50_4trials.xlsx,2,8,50,50,1,,,,,0,1,1,1,0,3,3,1,,,,,,,,4,428.52311499999996,432.52400709999984,432.52402689,0.30509040000015375,432.9684004999999,432.9684004999999,m,0.8166532999998708,435.06300150000015,435.06300150000015,72,1.226,,,sub-033,40,120,700,bloc_loop.csv,2023-06-29_18h00.28.676,PainUncertainty,2022.2.5,143.67403235532666,
aigu,forte,stimuli/660Hz,stimuli/forte,bloc_2,prob50_50_4trials.xlsx,2,8,50,50,1,,,,,0,1,1,1,1,0,4,3,,,,,,,,4.2,435.06300150000015,439.26788829999987,439.2679903900001,0.305128799999693,439.7166078999999,439.7166078999999,m,0.6827464999996664,441.52540899999985,441.52540899999985,73,1.049,,,sub-033,40,120,700,bloc_loop.csv,2023-06-29_18h00.28.676,PainUncertainty,2022.2.5,143.67403235532666,
aigu,moderee,stimuli/660Hz,stimuli/moderee,bloc_2,prob50_50_4trials.xlsx,2,8,50,50,1,,,,,0,1,1,1,1,1,5,2,,,,,,,,3.2,441.52540899999985,444.7272237000002,444.7273133900001,0.3049019000000044,445.17134510000005,445.17134510000005,n,0.5491990999998961,447.4250986000002,447.4250986000002,24,1.633,,,sub-033,40,120,700,bloc_loop.csv,2023-06-29_18h00.28.676,PainUncertainty,2022.2.5,143.67403235532666,
grave,forte,stimuli/330Hz,stimuli/forte,bloc_2,prob50_50_4trials.xlsx,2,8,50,50,1,,,,,0,1,1,1,1,2,6,1,,,,,,,,4.7,447.4250986000002,452.1309314,452.1309258899999,0.3048051000000669,452.57517419999976,452.57517419999976,m,0.6256189999999151,454.60488699999996,454.60488699999996,70,1.317,,,sub-033,40,120,700,bloc_loop.csv,2023-06-29_18h00.28.676,PainUncertainty,2022.2.5,143.67403235532666,
grave,moderee,stimuli/330Hz,stimuli/moderee,bloc_2,prob50_50_4trials.xlsx,2,8,50,50,1,,,,,0,1,1,1,1,3,7,0,,,,,,,,3.2,454.60488699999996,457.8048798,457.8048807899998,0.29918099999986225,458.2477009999998,458.2477009999998,n,0.6333552999999483,462.2206477999998,462.2206477999998,24,1.307,,,sub-033,40,120,700,bloc_loop.csv,2023-06-29_18h00.28.676,PainUncertainty,2022.2.5,143.67403235532666,
,,,,bloc_2,prob50_50_4trials.xlsx,2,8,50,50,1,,,,,0,1,1,1,,,,,0,0,0,0,,,,,,,,,,,,,,,,,462.2206477999998,527.0074794000002,sub-033,40,120,700,bloc_loop.csv,2023-06-29_18h00.28.676,PainUncertainty,2022.2.5,143.67403235532666,
aigu,forte,stimuli/660Hz,stimuli/forte,bloc_3,prob80hthp_12trials.xlsx,2,24,80,20,0,,,,,0,2,2,2,0,0,0,7,,,,,,,,4.3,528.0001950000001,532.2998093000001,532.2998219899998,0.30519699999968,532.7440407999998,532.7440407999998,m,0.6534224999995786,534.8262283999998,534.8262283999998,68,1.377,,,sub-033,40,120,700,bloc_loop.csv,2023-06-29_18h00.28.676,PainUncertainty,2022.2.5,143.67403235532666,
aigu,forte,stimuli/660Hz,stimuli/forte,bloc_3,prob80hthp_12trials.xlsx,2,24,80,20,0,,,,,0,2,2,2,0,1,1,10,,,,,,,,3.2,534.8262283999998,538.0301657,538.03017299,0.30500260000007984,538.4781911999999,538.4781911999999,m,0.46827239999993253,540.6820032,540.6820032,66,1.654,,,sub-033,40,120,700,bloc_loop.csv,2023-06-29_18h00.28.676,PainUncertainty,2022.2.5,143.67403235532666,
aigu,moderee,stimuli/660Hz,stimuli/moderee,bloc_3,prob80hthp_12trials.xlsx,2,24,80,20,0,,,,,0,2,2,2,0,2,2,11,,,,,,,,3,540.6820032,543.6837873999998,543.6836595899997,0.3050012000003335,544.1300674999998,544.1300674999998,n,0.4404294999999365,546.9966261,546.9966261,23,2.35,,,sub-033,40,120,700,bloc_loop.csv,2023-06-29_18h00.28.676,PainUncertainty,2022.2.5,143.67403235532666,
grave,forte,stimuli/330Hz,stimuli/forte,bloc_3,prob80hthp_12trials.xlsx,2,24,80,20,0,,,,,0,2,2,2,0,3,3,5,,,,,,,,3.2,546.9966261,550.1978104,550.1978727899998,0.3051951000002191,550.6423245999999,550.6423245999999,m,0.416099199999735,552.6894771000002,552.6894771000002,68,1.551,,,sub-033,40,120,700,bloc_loop.csv,2023-06-29_18h00.28.676,PainUncertainty,2022.2.5,143.67403235532666,
grave,moderee,stimuli/330Hz,stimuli/moderee,bloc_3,prob80hthp_12trials.xlsx,2,24,80,20,0,,,,,0,2,2,2,0,4,4,3,,,,,,,,4.5,552.6894771000002,557.1917263,557.1918181899998,0.3051282999999785,557.6359594,557.6359594,n,0.7467378999995162,559.5329775,559.5329775,18,1.087,,,sub-033,40,120,700,bloc_loop.csv,2023-06-29_18h00.28.676,PainUncertainty,2022.2.5,143.67403235532666,
grave,moderee,stimuli/330Hz,stimuli/moderee,bloc_3,prob80hthp_12trials.xlsx,2,24,80,20,0,,,,,0,2,2,2,0,5,5,0,,,,,,,,4.9,559.5329775,564.4357458999998,564.4357218899997,0.3049940000000788,564.8802707,564.8802707,n,0.48460519999980534,567.8481280999999,567.8481280999999,23,2.412,,,sub-033,40,120,700,bloc_loop.csv,2023-06-29_18h00.28.676,PainUncertainty,2022.2.5,143.67403235532666,
aigu,forte,stimuli/660Hz,stimuli/forte,bloc_3,prob80hthp_12trials.xlsx,2,24,80,20,0,,,,,0,2,2,2,0,6,6,6,,,,,,,,3.9,567.8481280999999,571.7497149000001,571.7495665899999,0.3059650000000147,572.1947128000002,572.1947128000002,m,0.4760791999997309,574.2289282000002,574.2289282000002,66,1.475,,,sub-033,40,120,700,bloc_loop.csv,2023-06-29_18h00.28.676,PainUncertainty,2022.2.5,143.67403235532666,
grave,moderee,stimuli/330Hz,stimuli/moderee,bloc_3,prob80hthp_12trials.xlsx,2,24,80,20,0,,,,,0,2,2,2,0,7,7,2,,,,,,,,4.4,574.2289282000002,578.6318867,578.63198429,0.30504629999995814,579.0804275999999,579.0804275999999,n,0.5039695999998912,580.5109435999998,580.5109435999998,20,0.872,,,sub-033,40,120,700,bloc_loop.csv,2023-06-29_18h00.28.676,PainUncertainty,2022.2.5,143.67403235532666,
grave,moderee,stimuli/330Hz,stimuli/moderee,bloc_3,prob80hthp_12trials.xlsx,2,24,80,20,0,,,,,0,2,2,2,0,8,8,1,,,,,,,,4.3,580.5109435999998,584.8130808999999,584.8133969899998,0.3049901999997928,585.2645349,585.2645349,n,0.5468783999999687,587.4048637999999,587.4048637999999,23,1.51,,,sub-033,40,120,700,bloc_loop.csv,2023-06-29_18h00.28.676,PainUncertainty,2022.2.5,143.67403235532666,
aigu,forte,stimuli/660Hz,stimuli/forte,bloc_3,prob80hthp_12trials.xlsx,2,24,80,20,0,,,,,0,2,2,2,0,9,9,9,,,,,,,,3.7,587.4048637999999,591.1059641000002,591.1060687900001,0.3046649000002617,591.5502969999998,591.5502969999998,m,0.493312899999637,593.5117154,593.5117154,68,1.4,,,sub-033,40,120,700,bloc_loop.csv,2023-06-29_18h00.28.676,PainUncertainty,2022.2.5,143.67403235532666,
aigu,forte,stimuli/660Hz,stimuli/forte,bloc_3,prob80hthp_12trials.xlsx,2,24,80,20,0,,,,,0,2,2,2,0,10,10,8,,,,,,,,3.3,593.5117154,596.8145165999999,596.81448639,0.3052703999996993,597.2590274999998,597.2590274999998,m,0.4738991999997779,598.5192769999999,598.5192769999999,73,0.704,,,sub-033,40,120,700,bloc_loop.csv,2023-06-29_18h00.28.676,PainUncertainty,2022.2.5,143.67403235532666,
grave,moderee,stimuli/330Hz,stimuli/moderee,bloc_3,prob80hthp_12trials.xlsx,2,24,80,20,0,,,,,0,2,2,2,0,11,11,4,,,,,,,,3.7,598.5192769999999,602.2249001,602.22489539,0.3056286999999429,602.6748165999998,602.6748165999998,n,0.48757279999972525,605.8241397000002,605.8241397000002,24,2.6,,,sub-033,40,120,700,bloc_loop.csv,2023-06-29_18h00.28.676,PainUncertainty,2022.2.5,143.67403235532666,
grave,moderee,stimuli/330Hz,stimuli/moderee,bloc_3,prob80hthp_12trials.xlsx,2,24,80,20,0,,,,,0,2,2,2,1,0,12,2,,,,,,,,3.8,605.8241397000002,609.6286349000002,609.62873909,0.3047882999999274,610.0733879999998,610.0733879999998,n,0.47035409999989497,611.8062749000001,611.8062749000001,10,1.197,,,sub-033,40,120,700,bloc_loop.csv,2023-06-29_18h00.28.676,PainUncertainty,2022.2.5,143.67403235532666,
grave,moderee,stimuli/330Hz,stimuli/moderee,bloc_3,prob80hthp_12trials.xlsx,2,24,80,20,0,,,,,0,2,2,2,1,1,13,3,,,,,,,,4.3,611.8062749000001,616.1084596000001,616.1084495899997,0.30527329999995345,616.5531885999999,616.5531885999999,n,0.5627596999997877,617.7866803000002,617.7866803000002,10,0.612,,,sub-033,40,120,700,bloc_loop.csv,2023-06-29_18h00.28.676,PainUncertainty,2022.2.5,143.67403235532666,
grave,moderee,stimuli/330Hz,stimuli/moderee,bloc_3,prob80hthp_12trials.xlsx,2,24,80,20,0,,,,,0,2,2,2,1,2,14,0,,,,,,,,4,617.7866803000002,621.7897981000001,621.7897712900001,0.3053117999997994,622.2383303000001,622.2383303000001,n,0.7998691999996481,625.8127678999999,625.8127678999999,16,2.703,,,sub-033,40,120,700,bloc_loop.csv,2023-06-29_18h00.28.676,PainUncertainty,2022.2.5,143.67403235532666,
aigu,forte,stimuli/660Hz,stimuli/forte,bloc_3,prob80hthp_12trials.xlsx,2,24,80,20,0,,,,,0,2,2,2,1,3,15,8,,,,,,,,4.8,625.8127678999999,630.6172738,630.6172848899998,0.30502309999974386,631.0616307999999,631.0616307999999,m,0.5567093999998178,633.0888086999998,633.0888086999998,69,1.386,,,sub-033,40,120,700,bloc_loop.csv,2023-06-29_18h00.28.676,PainUncertainty,2022.2.5,143.67403235532666,
grave,moderee,stimuli/330Hz,stimuli/moderee,bloc_3,prob80hthp_12trials.xlsx,2,24,80,20,0,,,,,0,2,2,2,1,4,16,1,,,,,,,,4.4,633.0888086999998,637.4930030999999,637.4930583899998,0.3053133999997044,637.9379045000001,637.9379045000001,n,0.4518185999995694,640.2058954999998,640.2058954999998,21,1.733,,,sub-033,40,120,700,bloc_loop.csv,2023-06-29_18h00.28.676,PainUncertainty,2022.2.5,143.67403235532666,
aigu,forte,stimuli/660Hz,stimuli/forte,bloc_3,prob80hthp_12trials.xlsx,2,24,80,20,0,,,,,0,2,2,2,1,5,17,6,,,,,,,,3.4,640.2058954999998,643.6118597999998,643.6118507899998,0.3051129000000401,644.0598672000001,644.0598672000001,m,0.5506697999999233,645.705774,645.705774,75,1.029,,,sub-033,40,120,700,bloc_loop.csv,2023-06-29_18h00.28.676,PainUncertainty,2022.2.5,143.67403235532666,
grave,forte,stimuli/330Hz,stimuli/forte,bloc_3,prob80hthp_12trials.xlsx,2,24,80,20,0,,,,,0,2,2,2,1,6,18,5,,,,,,,,4.5,645.705774,650.2101311000001,650.21021959,0.30524149999973815,650.6583191,650.6583191,m,0.7337532000001374,652.1007364000002,652.1007364000002,80,0.65,,,sub-033,40,120,700,bloc_loop.csv,2023-06-29_18h00.28.676,PainUncertainty,2022.2.5,143.67403235532666,
aigu,forte,stimuli/660Hz,stimuli/forte,bloc_3,prob80hthp_12trials.xlsx,2,24,80,20,0,,,,,0,2,2,2,1,7,19,7,,,,,,,,3.4,652.1007364000002,655.5020641000001,655.50212829,0.3051490999996531,655.9466868,655.9466868,m,0.7176175999998122,658.9931700000002,658.9931700000002,71,2.261,,,sub-033,40,120,700,bloc_loop.csv,2023-06-29_18h00.28.676,PainUncertainty,2022.2.5,143.67403235532666,
aigu,forte,stimuli/660Hz,stimuli/forte,bloc_3,prob80hthp_12trials.xlsx,2,24,80,20,0,,,,,0,2,2,2,1,8,20,10,,,,,,,,4.9,658.9931700000002,663.8990011999999,663.89895409,0.3051518999996006,664.3434342,664.3434342,m,0.5842044999999416,666.5748850999998,666.5748850999998,67,1.559,,,sub-033,40,120,700,bloc_loop.csv,2023-06-29_18h00.28.676,PainUncertainty,2022.2.5,143.67403235532666,
aigu,moderee,stimuli/660Hz,stimuli/moderee,bloc_3,prob80hthp_12trials.xlsx,2,24,80,20,0,,,,,0,2,2,2,1,9,21,11,,,,,,,,4.3,666.5748850999998,670.8788887999999,670.8789197899998,0.3052725999996255,671.3302669,671.3302669,n,1.0397158999994645,674.4558158,674.4558158,25,2.017,,,sub-033,40,120,700,bloc_loop.csv,2023-06-29_18h00.28.676,PainUncertainty,2022.2.5,143.67403235532666,
aigu,forte,stimuli/660Hz,stimuli/forte,bloc_3,prob80hthp_12trials.xlsx,2,24,80,20,0,,,,,0,2,2,2,1,10,22,9,,,,,,,,3.4,674.4558158,677.8588860999998,677.85893409,0.3049433000001045,678.3103108999999,678.3103108999999,m,0.5715981999996984,680.2939145,680.2939145,72,1.33,,,sub-033,40,120,700,bloc_loop.csv,2023-06-29_18h00.28.676,PainUncertainty,2022.2.5,143.67403235532666,
grave,moderee,stimuli/330Hz,stimuli/moderee,bloc_3,prob80hthp_12trials.xlsx,2,24,80,20,0,,,,,0,2,2,2,1,11,23,4,,,,,,,,4.8,680.2939145,685.0959634000001,685.0959377900001,0.3051354999997784,685.5424075000001,685.5424075000001,n,0.6170001000000411,688.7826556999999,688.7826556999999,19,2.559,,,sub-033,40,120,700,bloc_loop.csv,2023-06-29_18h00.28.676,PainUncertainty,2022.2.5,143.67403235532666,
grave,moderee,stimuli/330Hz,stimuli/moderee,bloc_4,prob50_50_4trials.xlsx,2,8,50,50,1,,,,,0,3,3,3,0,0,0,0,,,,,,,,5,688.7826556999999,693.784463,693.7844888900001,0.30534910000005766,694.2307934999999,694.2307934999999,n,0.54395999999997,696.4282054,696.4282054,18,1.587,,,sub-033,40,120,700,bloc_loop.csv,2023-06-29_18h00.28.676,PainUncertainty,2022.2.5,143.67403235532666,
aigu,moderee,stimuli/660Hz,stimuli/moderee,bloc_4,prob50_50_4trials.xlsx,2,8,50,50,1,,,,,0,3,3,3,0,1,1,2,,,,,,,,3.3,696.4282054,699.7297174999999,699.72957359,0.3051617000000988,700.1737810999998,700.1737810999998,n,0.8355894999999691,702.8886641999998,702.8886641999998,22,1.801,,,sub-033,40,120,700,bloc_loop.csv,2023-06-29_18h00.28.676,PainUncertainty,2022.2.5,143.67403235532666,
aigu,forte,stimuli/660Hz,stimuli/forte,bloc_4,prob50_50_4trials.xlsx,2,8,50,50,1,,,,,0,3,3,3,0,2,2,3,,,,,,,,4.6,702.8886641999998,707.4877545999998,707.48793499,0.3043977999996059,707.9320112999999,707.9320112999999,m,0.5720624999999018,709.4761359999998,709.4761359999998,73,0.913,,,sub-033,40,120,700,bloc_loop.csv,2023-06-29_18h00.28.676,PainUncertainty,2022.2.5,143.67403235532666,
grave,forte,stimuli/330Hz,stimuli/forte,bloc_4,prob50_50_4trials.xlsx,2,8,50,50,1,,,,,0,3,3,3,0,3,3,1,,,,,,,,4.3,709.4761359999998,713.7803678999999,713.7802833899998,0.30518409999967844,714.2264363999998,714.2264363999998,m,0.5549931999998989,716.2565055,716.2565055,66,1.413,,,sub-033,40,120,700,bloc_loop.csv,2023-06-29_18h00.28.676,PainUncertainty,2022.2.5,143.67403235532666,
aigu,forte,stimuli/660Hz,stimuli/forte,bloc_4,prob50_50_4trials.xlsx,2,8,50,50,1,,,,,0,3,3,3,1,0,4,3,,,,,,,,4.8,716.2565055,721.0586859,721.0585630899998,0.30480560000023615,721.5029264999998,721.5029264999998,m,1.0259124999997766,724.0417726999999,724.0417726999999,69,1.454,,,sub-033,40,120,700,bloc_loop.csv,2023-06-29_18h00.28.676,PainUncertainty,2022.2.5,143.67403235532666,
grave,forte,stimuli/330Hz,stimuli/forte,bloc_4,prob50_50_4trials.xlsx,2,8,50,50,1,,,,,0,3,3,3,1,1,5,1,,,,,,,,4.2,724.0417726999999,728.2469583000002,728.2470784899999,0.304626399999961,728.6958758000001,728.6958758000001,m,0.6182318000001032,730.4540391999999,730.4540391999999,66,1.072,,,sub-033,40,120,700,bloc_loop.csv,2023-06-29_18h00.28.676,PainUncertainty,2022.2.5,143.67403235532666,
grave,moderee,stimuli/330Hz,stimuli/moderee,bloc_4,prob50_50_4trials.xlsx,2,8,50,50,1,,,,,0,3,3,3,1,2,6,0,,,,,,,,4.8,730.4540391999999,735.2551788999999,735.2550628900001,0.29905879999978424,735.6978846000002,735.6978846000002,n,0.5263933999999608,737.3299327,737.3299327,17,1.045,,,sub-033,40,120,700,bloc_loop.csv,2023-06-29_18h00.28.676,PainUncertainty,2022.2.5,143.67403235532666,
aigu,moderee,stimuli/660Hz,stimuli/moderee,bloc_4,prob50_50_4trials.xlsx,2,8,50,50,1,,,,,0,3,3,3,1,3,7,2,,,,,,,,4.1,737.3299327,741.4290117,741.4290722899998,0.30503429999998843,741.8759148999998,741.8759148999998,n,0.5670037999998385,746.8302002999999,746.8302002999999,19,2.356,,,sub-033,40,120,700,bloc_loop.csv,2023-06-29_18h00.28.676,PainUncertainty,2022.2.5,143.67403235532666,
,,,,bloc_4,prob50_50_4trials.xlsx,2,8,50,50,1,,,,,0,3,3,3,,,,,0,0,0,0,,,,,,,,,,,,,,,,,746.8302002999999,780.0861679,sub-033,40,120,700,bloc_loop.csv,2023-06-29_18h00.28.676,PainUncertainty,2022.2.5,143.67403235532666,
aigu,moderee,stimuli/660Hz,stimuli/moderee,bloc_5,prob20hthp_12trials.xlsx,2,24,20,80,0,,,,,0,4,4,4,0,0,0,10,,,,,,,,3.5,781.2231422999998,784.7257564000001,784.7258520899998,0.300840700000208,785.1703772999999,785.1703772999999,n,0.5084819999997308,787.6350197000002,787.6350197000002,17,1.904,,,sub-033,40,120,700,bloc_loop.csv,2023-06-29_18h00.28.676,PainUncertainty,2022.2.5,143.67403235532666,
aigu,moderee,stimuli/660Hz,stimuli/moderee,bloc_5,prob20hthp_12trials.xlsx,2,24,20,80,0,,,,,0,4,4,4,0,1,1,7,,,,,,,,4.6,787.6350197000002,792.2408956999998,792.2417159899999,0.30423430000018925,792.6854205,792.6854205,n,0.4820211000001109,795.9029427,795.9029427,22,2.678,,,sub-033,40,120,700,bloc_loop.csv,2023-06-29_18h00.28.676,PainUncertainty,2022.2.5,143.67403235532666,
aigu,moderee,stimuli/660Hz,stimuli/moderee,bloc_5,prob20hthp_12trials.xlsx,2,24,20,80,0,,,,,0,4,4,4,0,2,2,9,,,,,,,,3.8,795.9029427,799.7070709,799.7070445900001,0.3009664999999586,800.1511780999999,800.1511780999999,n,0.4297585999997864,803.3050976999998,803.3050976999998,22,2.667,,,sub-033,40,120,700,bloc_loop.csv,2023-06-29_18h00.28.676,PainUncertainty,2022.2.5,143.67403235532666,
aigu,moderee,stimuli/660Hz,stimuli/moderee,bloc_5,prob20hthp_12trials.xlsx,2,24,20,80,0,,,,,0,4,4,4,0,3,3,8,,,,,,,,3.7,803.3050976999998,807.0065439999998,807.0067042899998,0.30476279999993494,807.4504231999999,807.4504231999999,n,0.4252691999995477,809.3344053999999,809.3344053999999,21,1.386,,,sub-033,40,120,700,bloc_loop.csv,2023-06-29_18h00.28.676,PainUncertainty,2022.2.5,143.67403235532666,
grave,forte,stimuli/330Hz,stimuli/forte,bloc_5,prob20hthp_12trials.xlsx,2,24,20,80,0,,,,,0,4,4,4,0,4,4,1,,,,,,,,3.1,809.3344053999999,812.4374054,812.43738379,0.3052802000001975,812.8819324000001,812.8819324000001,m,0.41653309999992416,814.6427383999999,814.6427383999999,73,1.281,,,sub-033,40,120,700,bloc_loop.csv,2023-06-29_18h00.28.676,PainUncertainty,2022.2.5,143.67403235532666,
grave,forte,stimuli/330Hz,stimuli/forte,bloc_5,prob20hthp_12trials.xlsx,2,24,20,80,0,,,,,0,4,4,4,0,5,5,2,,,,,,,,4.6,814.6427383999999,819.2438702999998,819.2437696899999,0.3052130000000943,819.6880753999999,819.6880753999999,m,0.4988727999998446,821.8540616999999,821.8540616999999,73,1.612,,,sub-033,40,120,700,bloc_loop.csv,2023-06-29_18h00.28.676,PainUncertainty,2022.2.5,143.67403235532666,
aigu,forte,stimuli/660Hz,stimuli/forte,bloc_5,prob20hthp_12trials.xlsx,2,24,20,80,0,,,,,0,4,4,4,0,6,6,11,,,,,,,,3.7,821.8540616999999,825.5570314000001,825.5570529899999,0.30526349999991,826.0060786999998,826.0060786999998,m,0.51187230000005,829.8661646999999,829.8661646999999,73,3.28,,,sub-033,40,120,700,bloc_loop.csv,2023-06-29_18h00.28.676,PainUncertainty,2022.2.5,143.67403235532666,
grave,forte,stimuli/330Hz,stimuli/forte,bloc_5,prob20hthp_12trials.xlsx,2,24,20,80,0,,,,,0,4,4,4,0,7,7,3,,,,,,,,4.6,829.8661646999999,834.4678137000001,834.4677719899998,0.30498609999995097,834.9123208999999,834.9123208999999,m,0.5754243000001225,836.8378506999998,836.8378506999998,70,1.281,,,sub-033,40,120,700,bloc_loop.csv,2023-06-29_18h00.28.676,PainUncertainty,2022.2.5,143.67403235532666,
aigu,moderee,stimuli/660Hz,stimuli/moderee,bloc_5,prob20hthp_12trials.xlsx,2,24,20,80,0,,,,,0,4,4,4,0,8,8,6,,,,,,,,4.1,836.8378506999998,840.9408186999999,840.9408396900001,0.305142899999737,841.3854227000002,841.3854227000002,n,0.576227800000197,844.5786967999998,844.5786967999998,17,2.546,,,sub-033,40,120,700,bloc_loop.csv,2023-06-29_18h00.28.676,PainUncertainty,2022.2.5,143.67403235532666,
grave,forte,stimuli/330Hz,stimuli/forte,bloc_5,prob20hthp_12trials.xlsx,2,24,20,80,0,,,,,0,4,4,4,0,9,9,4,,,,,,,,3.6,844.5786967999998,848.1781030000002,848.17817339,0.30470240000022386,848.6221520999998,848.6221520999998,m,0.5323502000001099,851.6770597,851.6770597,72,2.46,,,sub-033,40,120,700,bloc_loop.csv,2023-06-29_18h00.28.676,PainUncertainty,2022.2.5,143.67403235532666,
grave,forte,stimuli/330Hz,stimuli/forte,bloc_5,prob20hthp_12trials.xlsx,2,24,20,80,0,,,,,0,4,4,4,0,10,10,0,,,,,,,,4.7,851.6770597,856.3803954999998,856.3802245899999,0.30488470000000234,856.8246334999999,856.8246334999999,m,0.8157706999995753,858.8574337999999,858.8574337999999,80,1.136,,,sub-033,40,120,700,bloc_loop.csv,2023-06-29_18h00.28.676,PainUncertainty,2022.2.5,143.67403235532666,
grave,moderee,stimuli/330Hz,stimuli/moderee,bloc_5,prob20hthp_12trials.xlsx,2,24,20,80,0,,,,,0,4,4,4,0,11,11,5,,,,,,,,3.5,858.8574337999999,862.3601291999998,862.3602420899999,0.3046551000002182,862.8045819999998,862.8045819999998,n,0.4753065999998398,865.0620217999999,865.0620217999999,21,1.728,,,sub-033,40,120,700,bloc_loop.csv,2023-06-29_18h00.28.676,PainUncertainty,2022.2.5,143.67403235532666,
grave,moderee,stimuli/330Hz,stimuli/moderee,bloc_5,prob20hthp_12trials.xlsx,2,24,20,80,0,,,,,0,4,4,4,1,0,12,5,,,,,,,,4.4,865.0620217999999,869.4657050999999,869.4655766899998,0.3042958999999428,869.9092925,869.9092925,n,0.556745299999875,872.4958803,872.4958803,22,1.976,,,sub-033,40,120,700,bloc_loop.csv,2023-06-29_18h00.28.676,PainUncertainty,2022.2.5,143.67403235532666,
aigu,moderee,stimuli/660Hz,stimuli/moderee,bloc_5,prob20hthp_12trials.xlsx,2,24,20,80,0,,,,,0,4,4,4,1,1,13,6,,,,,,,,4.9,872.4958803,877.3969127,877.3968960899999,0.3006706999999551,877.8410872,877.8410872,n,0.4403763999998773,880.3969929,880.3969929,20,2.046,,,sub-033,40,120,700,bloc_loop.csv,2023-06-29_18h00.28.676,PainUncertainty,2022.2.5,143.67403235532666,
grave,forte,stimuli/330Hz,stimuli/forte,bloc_5,prob20hthp_12trials.xlsx,2,24,20,80,0,,,,,0,4,4,4,1,2,14,1,,,,,,,,4.7,880.3969929,885.0987894999998,885.0988483899998,0.30026379999981145,885.5436675000001,885.5436675000001,m,0.4514038000002074,887.3192611,887.3192611,68,1.265,,,sub-033,40,120,700,bloc_loop.csv,2023-06-29_18h00.28.676,PainUncertainty,2022.2.5,143.67403235532666,
aigu,forte,stimuli/660Hz,stimuli/forte,bloc_5,prob20hthp_12trials.xlsx,2,24,20,80,0,,,,,0,4,4,4,1,3,15,11,,,,,,,,3.2,887.3192611,890.5230274,890.5230615899998,0.30679639999971187,890.9751007999998,890.9751007999998,m,0.535604599999715,892.6123819,892.6123819,74,1.023,,,sub-033,40,120,700,bloc_loop.csv,2023-06-29_18h00.28.676,PainUncertainty,2022.2.5,143.67403235532666,
aigu,moderee,stimuli/660Hz,stimuli/moderee,bloc_5,prob20hthp_12trials.xlsx,2,24,20,80,0,,,,,0,4,4,4,1,4,16,8,,,,,,,,3.7,892.6123819,896.3158402999998,896.3158641899997,0.30483730000014475,896.7600071000002,896.7600071000002,n,0.42354829999976573,898.8017961,898.8017961,18,1.544,,,sub-033,40,120,700,bloc_loop.csv,2023-06-29_18h00.28.676,PainUncertainty,2022.2.5,143.67403235532666,
grave,forte,stimuli/330Hz,stimuli/forte,bloc_5,prob20hthp_12trials.xlsx,2,24,20,80,0,,,,,0,4,4,4,1,5,17,0,,,,,,,,4.7,898.8017961,903.5043071999999,903.5051092900001,0.3009938999998667,903.9503393,903.9503393,m,0.4136521000000357,906.7485959,906.7485959,74,2.308,,,sub-033,40,120,700,bloc_loop.csv,2023-06-29_18h00.28.676,PainUncertainty,2022.2.5,143.67403235532666,
aigu,moderee,stimuli/660Hz,stimuli/moderee,bloc_5,prob20hthp_12trials.xlsx,2,24,20,80,0,,,,,0,4,4,4,1,6,18,7,,,,,,,,3.5,906.7485959,910.2479775000002,910.2479608900001,0.3052738000001227,910.6922926000002,910.6922926000002,n,0.42736699999977645,911.8811522000001,911.8811522000001,20,0.69,,,sub-033,40,120,700,bloc_loop.csv,2023-06-29_18h00.28.676,PainUncertainty,2022.2.5,143.67403235532666,
grave,forte,stimuli/330Hz,stimuli/forte,bloc_5,prob20hthp_12trials.xlsx,2,24,20,80,0,,,,,0,4,4,4,1,7,19,3,,,,,,,,3.1,911.8811522000001,914.9841378000001,914.9843299900001,0.30531169999994745,915.4286308999999,915.4286308999999,m,0.6578967999998895,918.8214407,918.8214407,70,2.657,,,sub-033,40,120,700,bloc_loop.csv,2023-06-29_18h00.28.676,PainUncertainty,2022.2.5,143.67403235532666,
aigu,moderee,stimuli/660Hz,stimuli/moderee,bloc_5,prob20hthp_12trials.xlsx,2,24,20,80,0,,,,,0,4,4,4,1,8,20,10,,,,,,,,3,918.8214407,921.8254438999998,921.82541079,0.3049937000000682,922.2701699999998,922.2701699999998,n,0.4725914999999077,924.1763279000002,924.1763279000002,24,1.351,,,sub-033,40,120,700,bloc_loop.csv,2023-06-29_18h00.28.676,PainUncertainty,2022.2.5,143.67403235532666,
grave,forte,stimuli/330Hz,stimuli/forte,bloc_5,prob20hthp_12trials.xlsx,2,24,20,80,0,,,,,0,4,4,4,1,9,21,4,,,,,,,,3.1,924.1763279000002,927.2774826999998,927.27748989,0.3050869999997303,927.7223012,927.7223012,m,0.48427519999950164,928.9760661,928.9760661,80,0.689,,,sub-033,40,120,700,bloc_loop.csv,2023-06-29_18h00.28.676,PainUncertainty,2022.2.5,143.67403235532666,
aigu,moderee,stimuli/660Hz,stimuli/moderee,bloc_5,prob20hthp_12trials.xlsx,2,24,20,80,0,,,,,0,4,4,4,1,10,22,9,,,,,,,,3.1,928.9760661,932.0769541,932.0772135899999,0.30462020000004486,932.5212191999999,932.5212191999999,n,0.3613247999996929,934.0135522999999,934.0135522999999,16,1.05,,,sub-033,40,120,700,bloc_loop.csv,2023-06-29_18h00.28.676,PainUncertainty,2022.2.5,143.67403235532666,
grave,forte,stimuli/330Hz,stimuli/forte,bloc_5,prob20hthp_12trials.xlsx,2,24,20,80,0,,,,,0,4,4,4,1,11,23,2,,,,,,,,4,934.0135522999999,938.0147732999999,938.0147342899998,0.3055210000002262,938.4595960000001,938.4595960000001,m,0.37789299999985815,940.0739696,940.0739696,75,1.149,,,sub-033,40,120,700,bloc_loop.csv,2023-06-29_18h00.28.676,PainUncertainty,2022.2.5,143.67403235532666,
grave,moderee,stimuli/330Hz,stimuli/moderee,bloc_6,prob50_50_4trials.xlsx,2,8,50,50,0,,,,,0,5,5,5,0,0,0,0,,,,,,,,4.3,940.0739696,944.3767133000001,944.3767852899998,0.30502530000012484,944.8214386999998,944.8214386999998,n,0.40601589999960197,946.4524198999998,946.4524198999998,18,1.164,,,sub-033,40,120,700,bloc_loop.csv,2023-06-29_18h00.28.676,PainUncertainty,2022.2.5,143.67403235532666,
aigu,moderee,stimuli/660Hz,stimuli/moderee,bloc_6,prob50_50_4trials.xlsx,2,8,50,50,0,,,,,0,5,5,5,0,1,1,2,,,,,,,,3.6,946.4524198999998,950.0582073,950.0582665899999,0.3047364999997626,950.5027833999998,950.5027833999998,n,0.4690647999996145,953.7922649000002,953.7922649000002,20,2.747,,,sub-033,40,120,700,bloc_loop.csv,2023-06-29_18h00.28.676,PainUncertainty,2022.2.5,143.67403235532666,
aigu,forte,stimuli/660Hz,stimuli/forte,bloc_6,prob50_50_4trials.xlsx,2,8,50,50,0,,,,,0,5,5,5,0,2,2,3,,,,,,,,3.1,953.7922649000002,956.8919891,956.89201419,0.3054664999999659,957.3366120999999,957.3366120999999,m,0.46131459999969593,959.5323991999999,959.5323991999999,77,1.671,,,sub-033,40,120,700,bloc_loop.csv,2023-06-29_18h00.28.676,PainUncertainty,2022.2.5,143.67403235532666,
grave,forte,stimuli/330Hz,stimuli/forte,bloc_6,prob50_50_4trials.xlsx,2,8,50,50,0,,,,,0,5,5,5,0,3,3,1,,,,,,,,4.5,959.5323991999999,964.0318757999999,964.03230199,0.3044915000000401,964.4764639999999,964.4764639999999,m,0.45975910000015574,965.561655,965.561655,70,0.567,,,sub-033,40,120,700,bloc_loop.csv,2023-06-29_18h00.28.676,PainUncertainty,2022.2.5,143.67403235532666,
aigu,forte,stimuli/660Hz,stimuli/forte,bloc_6,prob50_50_4trials.xlsx,2,8,50,50,0,,,,,0,5,5,5,1,0,4,3,,,,,,,,4.8,965.561655,970.3660183000002,970.3661701899998,0.30209270000023025,970.8129003999998,970.8129003999998,m,0.7674713999999767,972.9804027999999,972.9804027999999,76,1.328,,,sub-033,40,120,700,bloc_loop.csv,2023-06-29_18h00.28.676,PainUncertainty,2022.2.5,143.67403235532666,
grave,moderee,stimuli/330Hz,stimuli/moderee,bloc_6,prob50_50_4trials.xlsx,2,8,50,50,0,,,,,0,5,5,5,1,1,5,0,,,,,,,,3.2,972.9804027999999,976.1862830999999,976.1862927899999,0.3043417000003501,976.6304015000001,976.6304015000001,n,0.44764230000009775,978.5622978000001,978.5622978000001,22,1.401,,,sub-033,40,120,700,bloc_loop.csv,2023-06-29_18h00.28.676,PainUncertainty,2022.2.5,143.67403235532666,
grave,forte,stimuli/330Hz,stimuli/forte,bloc_6,prob50_50_4trials.xlsx,2,8,50,50,0,,,,,0,5,5,5,1,2,6,1,,,,,,,,4.6,978.5622978000001,983.1661227999998,983.16614009,0.30492499999991196,983.6105259999999,983.6105259999999,m,0.4688823999995293,985.7248825000001,985.7248825000001,76,1.566,,,sub-033,40,120,700,bloc_loop.csv,2023-06-29_18h00.28.676,PainUncertainty,2022.2.5,143.67403235532666,
aigu,moderee,stimuli/660Hz,stimuli/moderee,bloc_6,prob50_50_4trials.xlsx,2,8,50,50,0,,,,,0,5,5,5,1,3,7,2,,,,,,,,4.4,985.7248825000001,990.1253231000001,990.1252444899999,0.29960890000029394,990.5638055,990.5638055,n,0.3906827000000703,991.8650484999998,991.8650484999998,18,0.844,,,sub-033,40,120,700,bloc_loop.csv,2023-06-29_18h00.28.676,PainUncertainty,2022.2.5,143.67403235532666,
grave,moderee,stimuli/330Hz,stimuli/moderee,bloc_7,prob80hthp_12trials.xlsx,2,24,80,20,1,,,,,0,6,6,6,0,0,0,4,,,,,,,,3.4,991.8650484999998,995.2648058999998,995.2648273899997,0.30556049999995594,995.7138227,995.7138227,n,0.42272670000011203,997.3027032999998,997.3027032999998,19,1.081,,,sub-033,40,120,700,bloc_loop.csv,2023-06-29_18h00.28.676,PainUncertainty,2022.2.5,143.67403235532666,
aigu,forte,stimuli/660Hz,stimuli/forte,bloc_7,prob80hthp_12trials.xlsx,2,24,80,20,1,,,,,0,6,6,6,0,1,1,10,,,,,,,,4.5,997.3027032999998,1001.8071979000001,1001.8072880900002,0.30494069999986095,1002.2521237999999,1002.2521237999999,m,0.425629299999855,1003.8104976999998,1003.8104976999998,75,1.06,,,sub-033,40,120,700,bloc_loop.csv,2023-06-29_18h00.28.676,PainUncertainty,2022.2.5,143.67403235532666,
grave,moderee,stimuli/330Hz,stimuli/moderee,bloc_7,prob80hthp_12trials.xlsx,2,24,80,20,1,,,,,0,6,6,6,0,2,2,1,,,,,,,,3,1003.8104976999998,1006.8150003000001,1006.8152771899997,0.3046957999999904,1007.2592734,1007.2592734,n,0.40932280000015453,1008.4155943999999,1008.4155943999999,20,0.676,,,sub-033,40,120,700,bloc_loop.csv,2023-06-29_18h00.28.676,PainUncertainty,2022.2.5,143.67403235532666,
aigu,forte,stimuli/660Hz,stimuli/forte,bloc_7,prob80hthp_12trials.xlsx,2,24,80,20,1,,,,,0,6,6,6,0,3,3,6,,,,,,,,4.6,1008.4155943999999,1013.0167786000002,1013.01685699,0.30507340000031036,1013.4613297999999,1013.4613297999999,m,0.45670599999948536,1014.9707932000001,1014.9707932000001,73,1.002,,,sub-033,40,120,700,bloc_loop.csv,2023-06-29_18h00.28.676,PainUncertainty,2022.2.5,143.67403235532666,
aigu,forte,stimuli/660Hz,stimuli/forte,bloc_7,prob80hthp_12trials.xlsx,2,24,80,20,1,,,,,0,6,6,6,0,4,4,9,,,,,,,,3.6,1014.9707932000001,1018.5734960999998,1018.5736974899999,0.30484260000002905,1019.0216811,1019.0216811,m,0.39343589999998585,1021.4491406000002,1021.4491406000002,69,1.969,,,sub-033,40,120,700,bloc_loop.csv,2023-06-29_18h00.28.676,PainUncertainty,2022.2.5,143.67403235532666,
aigu,forte,stimuli/660Hz,stimuli/forte,bloc_7,prob80hthp_12trials.xlsx,2,24,80,20,1,,,,,0,6,6,6,0,5,5,8,,,,,,,,4.3,1021.4491406000002,1025.7546708,1025.7549779899998,0.30463129999998273,1026.2029452000002,1026.2029452000002,m,0.3718576999999641,1027.6676005999998,1027.6676005999998,74,1.032,,,sub-033,40,120,700,bloc_loop.csv,2023-06-29_18h00.28.676,PainUncertainty,2022.2.5,143.67403235532666,
aigu,forte,stimuli/660Hz,stimuli/forte,bloc_7,prob80hthp_12trials.xlsx,2,24,80,20,1,,,,,0,6,6,6,0,6,6,7,,,,,,,,3.8,1027.6676005999998,1031.4703949,1031.4704109900001,0.3052216999999473,1031.9150295999998,1031.9150295999998,m,0.6464685999994799,1033.9699334000002,1033.9699334000002,73,1.329,,,sub-033,40,120,700,bloc_loop.csv,2023-06-29_18h00.28.676,PainUncertainty,2022.2.5,143.67403235532666,
aigu,moderee,stimuli/660Hz,stimuli/moderee,bloc_7,prob80hthp_12trials.xlsx,2,24,80,20,1,,,,,0,6,6,6,0,7,7,11,,,,,,,,3,1033.9699334000002,1036.9710488,1036.9710500899998,0.3050843999999415,1037.4158794,1037.4158794,n,0.4309923000000708,1039.7409926999999,1039.7409926999999,17,1.837,,,sub-033,40,120,700,bloc_loop.csv,2023-06-29_18h00.28.676,PainUncertainty,2022.2.5,143.67403235532666,
grave,moderee,stimuli/330Hz,stimuli/moderee,bloc_7,prob80hthp_12trials.xlsx,2,24,80,20,1,,,,,0,6,6,6,0,8,8,2,,,,,,,,4.7,1039.7409926999999,1044.4441450999998,1044.44412089,0.3050671999999395,1044.8888883,1044.8888883,n,0.4480479999997442,1047.3671024,1047.3671024,22,1.969,,,sub-033,40,120,700,bloc_loop.csv,2023-06-29_18h00.28.676,PainUncertainty,2022.2.5,143.67403235532666,
grave,moderee,stimuli/330Hz,stimuli/moderee,bloc_7,prob80hthp_12trials.xlsx,2,24,80,20,1,,,,,0,6,6,6,0,9,9,3,,,,,,,,4.8,1047.3671024,1052.1672872,1052.1672929899999,0.30497939999986556,1052.6162415,1052.6162415,n,0.4315624000000753,1055.4451371,1055.4451371,23,2.322,,,sub-033,40,120,700,bloc_loop.csv,2023-06-29_18h00.28.676,PainUncertainty,2022.2.5,143.67403235532666,
grave,forte,stimuli/330Hz,stimuli/forte,bloc_7,prob80hthp_12trials.xlsx,2,24,80,20,1,,,,,0,6,6,6,0,10,10,5,,,,,,,,3.1,1055.4451371,1058.5499488,1058.54997969,0.3052944999999454,1058.9945647,1058.9945647,n,0.35549109999965367,1062.0643061,1062.0643061,80,2.636,,,sub-033,40,120,700,bloc_loop.csv,2023-06-29_18h00.28.676,PainUncertainty,2022.2.5,143.67403235532666,
grave,moderee,stimuli/330Hz,stimuli/moderee,bloc_7,prob80hthp_12trials.xlsx,2,24,80,20,1,,,,,0,6,6,6,0,11,11,0,,,,,,,,3.3,1062.0643061,1065.3657994999999,1065.3637352899998,0.30064020000008895,1065.8083645000002,1065.8083645000002,n,0.534640799999579,1067.1790534000002,1067.1790534000002,25,0.768,,,sub-033,40,120,700,bloc_loop.csv,2023-06-29_18h00.28.676,PainUncertainty,2022.2.5,143.67403235532666,
grave,moderee,stimuli/330Hz,stimuli/moderee,bloc_7,prob80hthp_12trials.xlsx,2,24,80,20,1,,,,,0,6,6,6,1,0,12,1,,,,,,,,4.9,1067.1790534000002,1072.0797496999999,1072.0796587899997,0.3047630000000936,1072.5235351000001,1072.5235351000001,n,0.5433334999997896,1073.9596961000002,1073.9596961000002,19,0.816,,,sub-033,40,120,700,bloc_loop.csv,2023-06-29_18h00.28.676,PainUncertainty,2022.2.5,143.67403235532666,
aigu,forte,stimuli/660Hz,stimuli/forte,bloc_7,prob80hthp_12trials.xlsx,2,24,80,20,1,,,,,0,6,6,6,1,1,13,6,,,,,,,,3.5,1073.9596961000002,1077.4619582999999,1077.4619269899997,0.3059763000001112,1077.9092377000002,1077.9092377000002,m,0.675217099999827,1079.4756828,1079.4756828,72,0.828,,,sub-033,40,120,700,bloc_loop.csv,2023-06-29_18h00.28.676,PainUncertainty,2022.2.5,143.67403235532666,
grave,forte,stimuli/330Hz,stimuli/forte,bloc_7,prob80hthp_12trials.xlsx,2,24,80,20,1,,,,,0,6,6,6,1,2,14,5,,,,,,,,3.5,1079.4756828,1082.976941,1082.9769388900002,0.30495420000033846,1083.4215923000002,1083.4215923000002,m,0.43312239999977464,1085.5681341,1085.5681341,73,1.648,,,sub-033,40,120,700,bloc_loop.csv,2023-06-29_18h00.28.676,PainUncertainty,2022.2.5,143.67403235532666,
aigu,forte,stimuli/660Hz,stimuli/forte,bloc_7,prob80hthp_12trials.xlsx,2,24,80,20,1,,,,,0,6,6,6,1,3,15,8,,,,,,,,3.8,1085.5681341,1089.3731695000001,1089.3732501900001,0.30488270000023476,1089.8172973,1089.8172973,m,0.5250784999998359,1091.7088764,1091.7088764,71,1.302,,,sub-033,40,120,700,bloc_loop.csv,2023-06-29_18h00.28.676,PainUncertainty,2022.2.5,143.67403235532666,
aigu,forte,stimuli/660Hz,stimuli/forte,bloc_7,prob80hthp_12trials.xlsx,2,24,80,20,1,,,,,0,6,6,6,1,4,16,10,,,,,,,,3.9,1091.7088764,1095.6100313000002,1095.6100578899998,0.3049020000003111,1096.0543493,1096.0543493,m,0.49341409999988173,1097.7389835,1097.7389835,69,1.113,,,sub-033,40,120,700,bloc_loop.csv,2023-06-29_18h00.28.676,PainUncertainty,2022.2.5,143.67403235532666,
grave,moderee,stimuli/330Hz,stimuli/moderee,bloc_7,prob80hthp_12trials.xlsx,2,24,80,20,1,,,,,0,6,6,6,1,5,17,4,,,,,,,,4.8,1097.7389835,1102.5413724,1102.54137199,0.30498850000003586,1102.986069,1102.986069,n,0.5269465999995191,1104.6465016000002,1104.6465016000002,24,1.071,,,sub-033,40,120,700,bloc_loop.csv,2023-06-29_18h00.28.676,PainUncertainty,2022.2.5,143.67403235532666,
grave,moderee,stimuli/330Hz,stimuli/moderee,bloc_7,prob80hthp_12trials.xlsx,2,24,80,20,1,,,,,0,6,6,6,1,6,18,3,,,,,,,,3.9,1104.6465016000002,1108.5490943,1108.54915679,0.30487459999994826,1108.9933802,1108.9933802,n,0.6279425000002448,1112.049763,1112.049763,24,2.351,,,sub-033,40,120,700,bloc_loop.csv,2023-06-29_18h00.28.676,PainUncertainty,2022.2.5,143.67403235532666,
aigu,forte,stimuli/660Hz,stimuli/forte,bloc_7,prob80hthp_12trials.xlsx,2,24,80,20,1,,,,,0,6,6,6,1,7,19,9,,,,,,,,4.8,1112.049763,1116.855388,1116.85535409,0.3057002000000466,1117.2999722999998,1117.2999722999998,m,0.46467459999985294,1119.5971436,1119.5971436,78,1.752,,,sub-033,40,120,700,bloc_loop.csv,2023-06-29_18h00.28.676,PainUncertainty,2022.2.5,143.67403235532666,
grave,moderee,stimuli/330Hz,stimuli/moderee,bloc_7,prob80hthp_12trials.xlsx,2,24,80,20,1,,,,,0,6,6,6,1,8,20,2,,,,,,,,4.6,1119.5971436,1124.1966008999998,1124.19668789,0.30530880000014804,1124.6415888000001,1124.6415888000001,n,0.5131680999998025,1127.846947,1127.846947,23,2.628,,,sub-033,40,120,700,bloc_loop.csv,2023-06-29_18h00.28.676,PainUncertainty,2022.2.5,143.67403235532666,
aigu,moderee,stimuli/660Hz,stimuli/moderee,bloc_7,prob80hthp_12trials.xlsx,2,24,80,20,1,,,,,0,6,6,6,1,9,21,11,,,,,,,,3.1,1127.846947,1130.9474799999998,1130.9477013899998,0.3051220000002104,1131.3921449,1131.3921449,n,0.5466593999994984,1133.5869289000002,1133.5869289000002,24,1.592,,,sub-033,40,120,700,bloc_loop.csv,2023-06-29_18h00.28.676,PainUncertainty,2022.2.5,143.67403235532666,
grave,moderee,stimuli/330Hz,stimuli/moderee,bloc_7,prob80hthp_12trials.xlsx,2,24,80,20,1,,,,,0,6,6,6,1,10,22,0,,,,,,,,4,1133.5869289000002,1137.5872235000002,1137.5872663899997,0.3054212000001826,1138.0334908,1138.0334908,n,0.4603462000000036,1141.4393697,1141.4393697,22,2.871,,,sub-033,40,120,700,bloc_loop.csv,2023-06-29_18h00.28.676,PainUncertainty,2022.2.5,143.67403235532666,
aigu,forte,stimuli/660Hz,stimuli/forte,bloc_7,prob80hthp_12trials.xlsx,2,24,80,20,1,,,,,0,6,6,6,1,11,23,7,,,,,,,,3.5,1141.4393697,1144.9420977999998,1144.94239559,0.3051420999995571,1145.39097,1145.39097,m,0.5805461999998442,1149.5483404000001,1149.5483404000001,69,1.545,,,sub-033,40,120,700,bloc_loop.csv,2023-06-29_18h00.28.676,PainUncertainty,2022.2.5,143.67403235532666,
,,,,bloc_7,prob80hthp_12trials.xlsx,2,24,80,20,1,,,,,0,6,6,6,,,,,0,0,0,0,,,,,,,,,,,,,,,,,1149.5483404000001,1188.2389291,sub-033,40,120,700,bloc_loop.csv,2023-06-29_18h00.28.676,PainUncertainty,2022.2.5,143.67403235532666,
grave,moderee,stimuli/330Hz,stimuli/moderee,bloc_8,prob50_50_4trials.xlsx,3,12,50,50,0,,,,,0,7,7,7,0,0,0,0,,,,,,,,3.9,1189.3796581000001,1193.2811726,1193.28113529,0.30595690000018294,1193.7309277999998,1193.7309277999998,n,0.4551267999995616,1195.4539387,1195.4539387,17,1.195,,,sub-033,40,120,700,bloc_loop.csv,2023-06-29_18h00.28.676,PainUncertainty,2022.2.5,143.67403235532666,
aigu,forte,stimuli/660Hz,stimuli/forte,bloc_8,prob50_50_4trials.xlsx,3,12,50,50,0,,,,,0,7,7,7,0,1,1,3,,,,,,,,3.6,1195.4539387,1199.0596737,1199.05957599,0.30553740000004836,1199.5040162999999,1199.5040162999999,m,0.41198819999999614,1201.1145482000002,1201.1145482000002,74,1.142,,,sub-033,40,120,700,bloc_loop.csv,2023-06-29_18h00.28.676,PainUncertainty,2022.2.5,143.67403235532666,
grave,forte,stimuli/330Hz,stimuli/forte,bloc_8,prob50_50_4trials.xlsx,3,12,50,50,0,,,,,0,7,7,7,0,2,2,1,,,,,,,,4.4,1201.1145482000002,1205.5193091,1205.5190892899998,0.3049808999999186,1205.9636388999998,1205.9636388999998,m,0.6614850000000843,1207.8323268,1207.8323268,66,1.136,,,sub-033,40,120,700,bloc_loop.csv,2023-06-29_18h00.28.676,PainUncertainty,2022.2.5,143.67403235532666,
aigu,moderee,stimuli/660Hz,stimuli/moderee,bloc_8,prob50_50_4trials.xlsx,3,12,50,50,0,,,,,0,7,7,7,0,3,3,2,,,,,,,,4.3,1207.8323268,1212.1375535000002,1212.13750499,0.30555309999999736,1212.5826590000001,1212.5826590000001,n,0.8585754000000634,1215.0743151000001,1215.0743151000001,30,1.552,,,sub-033,40,120,700,bloc_loop.csv,2023-06-29_18h00.28.676,PainUncertainty,2022.2.5,143.67403235532666,
aigu,forte,stimuli/660Hz,stimuli/forte,bloc_8,prob50_50_4trials.xlsx,3,12,50,50,0,,,,,0,7,7,7,1,0,4,3,,,,,,,,3,1215.0743151000001,1218.0757952999998,1218.0757822899998,0.3053027999999358,1218.5203351,1218.5203351,m,0.4608573999998953,1220.8470659,1220.8470659,68,1.788,,,sub-033,40,120,700,bloc_loop.csv,2023-06-29_18h00.28.676,PainUncertainty,2022.2.5,143.67403235532666,
aigu,moderee,stimuli/660Hz,stimuli/moderee,bloc_8,prob50_50_4trials.xlsx,3,12,50,50,0,,,,,0,7,7,7,1,1,5,2,,,,,,,,4.7,1220.8470659,1225.5489741000001,1225.5489960899997,0.30532899999980145,1225.9941242,1225.9941242,n,0.44018519999963246,1227.6268132999999,1227.6268132999999,19,1.115,,,sub-033,40,120,700,bloc_loop.csv,2023-06-29_18h00.28.676,PainUncertainty,2022.2.5,143.67403235532666,
grave,forte,stimuli/330Hz,stimuli/forte,bloc_8,prob50_50_4trials.xlsx,3,12,50,50,0,,,,,0,7,7,7,1,2,6,1,,,,,,,,4.9,1227.6268132999999,1232.5312686000002,1232.52941549,0.3052308000001176,1232.9787697000002,1232.9787697000002,m,0.546716099999685,1236.2619786999999,1236.2619786999999,76,2.662,,,sub-033,40,120,700,bloc_loop.csv,2023-06-29_18h00.28.676,PainUncertainty,2022.2.5,143.67403235532666,
grave,moderee,stimuli/330Hz,stimuli/moderee,bloc_8,prob50_50_4trials.xlsx,3,12,50,50,0,,,,,0,7,7,7,1,3,7,0,,,,,,,,4.6,1236.2619786999999,1240.8630819999998,1240.86311349,0.3054653000003782,1241.3081524,1241.3081524,n,0.6991800000000694,1244.5294009999998,1244.5294009999998,19,2.462,,,sub-033,40,120,700,bloc_loop.csv,2023-06-29_18h00.28.676,PainUncertainty,2022.2.5,143.67403235532666,
aigu,moderee,stimuli/660Hz,stimuli/moderee,bloc_8,prob50_50_4trials.xlsx,3,12,50,50,0,,,,,0,7,7,7,2,0,8,2,,,,,,,,4.7,1244.5294009999998,1249.2321977000001,1249.2329052899997,0.30473780000011175,1249.6765279,1249.6765279,n,0.5828550999999607,1251.4053083999997,1251.4053083999997,24,1.079,,,sub-033,40,120,700,bloc_loop.csv,2023-06-29_18h00.28.676,PainUncertainty,2022.2.5,143.67403235532666,
grave,forte,stimuli/330Hz,stimuli/forte,bloc_8,prob50_50_4trials.xlsx,3,12,50,50,0,,,,,0,7,7,7,2,1,9,1,,,,,,,,4.4,1251.4053083999997,1255.8095732000002,1255.8096505899996,0.3051325000005818,1256.2582716999996,1256.2582716999996,m,0.7771846000000551,1259.4179290000002,1259.4179290000002,73,2.307,,,sub-033,40,120,700,bloc_loop.csv,2023-06-29_18h00.28.676,PainUncertainty,2022.2.5,143.67403235532666,
grave,moderee,stimuli/330Hz,stimuli/moderee,bloc_8,prob50_50_4trials.xlsx,3,12,50,50,0,,,,,0,7,7,7,2,2,10,0,,,,,,,,4.7,1259.4179290000002,1264.1234458999998,1264.12350929,0.3046903000004022,1264.5676388000002,1264.5676388000002,n,0.5748928999996679,1266.5813305000001,1266.5813305000001,23,1.357,,,sub-033,40,120,700,bloc_loop.csv,2023-06-29_18h00.28.676,PainUncertainty,2022.2.5,143.67403235532666,
aigu,forte,stimuli/660Hz,stimuli/forte,bloc_8,prob50_50_4trials.xlsx,3,12,50,50,0,,,,,0,7,7,7,2,3,11,3,,,,,,,,5,1266.5813305000001,1271.5825521999996,1271.58350429,0.30407930000001215,1272.0272674999997,1272.0272674999997,m,0.5016386000002058,1275.9827290000003,1275.9827290000003,80,3.386,,,sub-033,40,120,700,bloc_loop.csv,2023-06-29_18h00.28.676,PainUncertainty,2022.2.5,143.67403235532666,
aigu,forte,stimuli/660Hz,stimuli/forte,bloc_9,prob20hthp_12trials.xlsx,3,36,80,20,0,,,,,0,8,8,8,0,0,0,11,,,,,,,,4,1275.9827290000003,1279.9859817999995,1279.9860151899995,0.30177290000028734,1280.4314179000003,1280.4314179000003,m,0.5692191000002822,1283.7563827000004,1283.7563827000004,81,2.679,,,sub-033,40,120,700,bloc_loop.csv,2023-06-29_18h00.28.676,PainUncertainty,2022.2.5,143.67403235532666,
aigu,moderee,stimuli/660Hz,stimuli/moderee,bloc_9,prob20hthp_12trials.xlsx,3,36,80,20,0,,,,,0,8,8,8,0,1,1,6,,,,,,,,4.1,1283.7563827000004,1287.8554684,1287.8557104900003,0.303004499999588,1288.3068366999996,1288.3068366999996,n,0.4234399999991183,1291.7016260999999,1291.7016260999999,17,2.898,,,sub-033,40,120,700,bloc_loop.csv,2023-06-29_18h00.28.676,PainUncertainty,2022.2.5,143.67403235532666,
grave,forte,stimuli/330Hz,stimuli/forte,bloc_9,prob20hthp_12trials.xlsx,3,36,80,20,0,,,,,0,8,8,8,0,2,2,3,,,,,,,,3.4,1291.7016260999999,1295.1058068000002,1295.1058248900001,0.3052552999997715,1295.5502081000004,1295.5502081000004,m,0.47273809999978766,1297.8590206999997,1297.8590206999997,83,1.758,,,sub-033,40,120,700,bloc_loop.csv,2023-06-29_18h00.28.676,PainUncertainty,2022.2.5,143.67403235532666,
grave,moderee,stimuli/330Hz,stimuli/moderee,bloc_9,prob20hthp_12trials.xlsx,3,36,80,20,0,,,,,0,8,8,8,0,3,3,5,,,,,,,,4.7,1297.8590206999997,1302.5581347999996,1302.5581602899995,0.30504000000019005,1303.0024520999996,1303.0024520999996,n,0.4333699000003435,1305.9501849999997,1305.9501849999997,21,2.455,,,sub-033,40,120,700,bloc_loop.csv,2023-06-29_18h00.28.676,PainUncertainty,2022.2.5,143.67403235532666,
aigu,moderee,stimuli/660Hz,stimuli/moderee,bloc_9,prob20hthp_12trials.xlsx,3,36,80,20,0,,,,,0,8,8,8,0,4,4,7,,,,,,,,4.7,1305.9501849999997,1310.6493934,1310.6494670900004,0.304867099999683,1311.0940326,1311.0940326,n,0.42720390000022235,1314.3935742000003,1314.3935742000003,20,2.793,,,sub-033,40,120,700,bloc_loop.csv,2023-06-29_18h00.28.676,PainUncertainty,2022.2.5,143.67403235532666,
grave,forte,stimuli/330Hz,stimuli/forte,bloc_9,prob20hthp_12trials.xlsx,3,36,80,20,0,,,,,0,8,8,8,0,5,5,0,,,,,,,,4.1,1314.3935742000003,1318.4975093000003,1318.4976132900003,0.3049663000001601,1318.9421388,1318.9421388,m,0.7093535999997584,1321.0616166,1321.0616166,73,1.33,,,sub-033,40,120,700,bloc_loop.csv,2023-06-29_18h00.28.676,PainUncertainty,2022.2.5,143.67403235532666,
aigu,moderee,stimuli/660Hz,stimuli/moderee,bloc_9,prob20hthp_12trials.xlsx,3,36,80,20,0,,,,,0,8,8,8,0,6,6,9,,,,,,,,4,1321.0616166,1325.0607475999996,1325.0607729899996,0.30524719999993977,1325.5057890999997,1325.5057890999997,n,0.477866400000039,1326.7535466999998,1326.7535466999998,20,0.696,,,sub-033,40,120,700,bloc_loop.csv,2023-06-29_18h00.28.676,PainUncertainty,2022.2.5,143.67403235532666,
grave,forte,stimuli/330Hz,stimuli/forte,bloc_9,prob20hthp_12trials.xlsx,3,36,80,20,0,,,,,0,8,8,8,0,7,7,2,,,,,,,,3.1,1326.7535466999998,1329.8531905999998,1329.8531208899997,0.30499630000031175,1330.3017026999996,1330.3017026999996,m,0.5250484999992295,1331.5819270000002,1331.5819270000002,70,0.691,,,sub-033,40,120,700,bloc_loop.csv,2023-06-29_18h00.28.676,PainUncertainty,2022.2.5,143.67403235532666,
grave,forte,stimuli/330Hz,stimuli/forte,bloc_9,prob20hthp_12trials.xlsx,3,36,80,20,0,,,,,0,8,8,8,0,8,8,4,,,,,,,,3.1,1331.5819270000002,1334.6872590000003,1334.68736629,0.3050241000000824,1335.1359331000003,1335.1359331000003,m,0.5074965999997403,1336.6828421,1336.6828421,74,0.96,,,sub-033,40,120,700,bloc_loop.csv,2023-06-29_18h00.28.676,PainUncertainty,2022.2.5,143.67403235532666,
aigu,moderee,stimuli/660Hz,stimuli/moderee,bloc_9,prob20hthp_12trials.xlsx,3,36,80,20,0,,,,,0,8,8,8,0,9,9,10,,,,,,,,4.1,1336.6828421,1340.7848371999999,1340.7848823899997,0.3021357999996326,1341.2298460000002,1341.2298460000002,n,0.4491046999996797,1344.7263825999999,1344.7263825999999,21,2.991,,,sub-033,40,120,700,bloc_loop.csv,2023-06-29_18h00.28.676,PainUncertainty,2022.2.5,143.67403235532666,
aigu,moderee,stimuli/660Hz,stimuli/moderee,bloc_9,prob20hthp_12trials.xlsx,3,36,80,20,0,,,,,0,8,8,8,0,10,10,8,,,,,,,,4.2,1344.7263825999999,1348.9316503999999,1348.93182749,0.30485139999927924,1349.3758987,1349.3758987,n,0.38967770000044766,1351.8265681000003,1351.8265681000003,20,1.994,,,sub-033,40,120,700,bloc_loop.csv,2023-06-29_18h00.28.676,PainUncertainty,2022.2.5,143.67403235532666,
grave,forte,stimuli/330Hz,stimuli/forte,bloc_9,prob20hthp_12trials.xlsx,3,36,80,20,0,,,,,0,8,8,8,0,11,11,1,,,,,,,,4.3,1351.8265681000003,1356.1270057000002,1356.1271717900001,0.304970900000626,1356.5716229,1356.5716229,m,0.4539843999996265,1358.4625827999998,1358.4625827999998,71,1.379,,,sub-033,40,120,700,bloc_loop.csv,2023-06-29_18h00.28.676,PainUncertainty,2022.2.5,143.67403235532666,
grave,forte,stimuli/330Hz,stimuli/forte,bloc_9,prob20hthp_12trials.xlsx,3,36,80,20,0,,,,,0,8,8,8,1,0,12,2,,,,,,,,4.1,1358.4625827999998,1362.5655576999998,1362.5656895900004,0.3047995000006267,1363.0094864000002,1363.0094864000002,m,0.4873019999999997,1365.5457033000002,1365.5457033000002,75,1.983,,,sub-033,40,120,700,bloc_loop.csv,2023-06-29_18h00.28.676,PainUncertainty,2022.2.5,143.67403235532666,
grave,forte,stimuli/330Hz,stimuli/forte,bloc_9,prob20hthp_12trials.xlsx,3,36,80,20,0,,,,,0,8,8,8,1,1,13,1,,,,,,,,3.2,1365.5457033000002,1368.7464774,1368.74666689,0.30485979999957635,1369.1907143999997,1369.1907143999997,m,0.5886678000001666,1371.1735411,1371.1735411,77,1.334,,,sub-033,40,120,700,bloc_loop.csv,2023-06-29_18h00.28.676,PainUncertainty,2022.2.5,143.67403235532666,
aigu,forte,stimuli/660Hz,stimuli/forte,bloc_9,prob20hthp_12trials.xlsx,3,36,80,20,0,,,,,0,8,8,8,1,2,14,11,,,,,,,,4.3,1371.1735411,1375.4764508999997,1375.4765396899995,0.3051279000001159,1375.9207055999996,1375.9207055999996,m,0.5195863000003555,1377.8596291000003,1377.8596291000003,68,1.342,,,sub-033,40,120,700,bloc_loop.csv,2023-06-29_18h00.28.676,PainUncertainty,2022.2.5,143.67403235532666,
aigu,moderee,stimuli/660Hz,stimuli/moderee,bloc_9,prob20hthp_12trials.xlsx,3,36,80,20,0,,,,,0,8,8,8,1,3,15,7,,,,,,,,4.4,1377.8596291000003,1382.2619931999998,1382.2620444899997,0.30537419999927806,1382.710744,1382.710744,n,0.48725839999997334,1386.1252186000002,1386.1252186000002,18,2.856,,,sub-033,40,120,700,bloc_loop.csv,2023-06-29_18h00.28.676,PainUncertainty,2022.2.5,143.67403235532666,
grave,forte,stimuli/330Hz,stimuli/forte,bloc_9,prob20hthp_12trials.xlsx,3,36,80,20,0,,,,,0,8,8,8,1,4,16,4,,,,,,,,4.5,1386.1252186000002,1390.6241682999998,1390.6242348899998,0.30511070000011387,1391.0687643,1391.0687643,m,0.5528772000002391,1392.8724565000002,1392.8724565000002,79,1.183,,,sub-033,40,120,700,bloc_loop.csv,2023-06-29_18h00.28.676,PainUncertainty,2022.2.5,143.67403235532666,
aigu,moderee,stimuli/660Hz,stimuli/moderee,bloc_9,prob20hthp_12trials.xlsx,3,36,80,20,0,,,,,0,8,8,8,1,5,17,6,,,,,,,,4.4,1392.8724565000002,1397.2777196999996,1397.2777286900002,0.3049977000000581,1397.7218821999995,1397.7218821999995,n,0.43774809999968056,1400.1811867999995,1400.1811867999995,28,1.953,,,sub-033,40,120,700,bloc_loop.csv,2023-06-29_18h00.28.676,PainUncertainty,2022.2.5,143.67403235532666,
grave,forte,stimuli/330Hz,stimuli/forte,bloc_9,prob20hthp_12trials.xlsx,3,36,80,20,0,,,,,0,8,8,8,1,6,18,0,,,,,,,,4.7,1400.1811867999995,1404.8827804000002,1404.88286119,0.30559460000040417,1405.3280458999998,1405.3280458999998,m,0.5458265000002029,1406.5950234000002,1406.5950234000002,80,0.655,,,sub-033,40,120,700,bloc_loop.csv,2023-06-29_18h00.28.676,PainUncertainty,2022.2.5,143.67403235532666,
grave,forte,stimuli/330Hz,stimuli/forte,bloc_9,prob20hthp_12trials.xlsx,3,36,80,20,0,,,,,0,8,8,8,1,7,19,3,,,,,,,,4,1406.5950234000002,1410.5987145,1410.59882099,0.3050873000001957,1411.0434929000003,1411.0434929000003,m,0.5322092999999768,1413.2948546999996,1413.2948546999996,71,1.635,,,sub-033,40,120,700,bloc_loop.csv,2023-06-29_18h00.28.676,PainUncertainty,2022.2.5,143.67403235532666,
aigu,moderee,stimuli/660Hz,stimuli/moderee,bloc_9,prob20hthp_12trials.xlsx,3,36,80,20,0,,,,,0,8,8,8,1,8,20,10,,,,,,,,3.7,1413.2948546999996,1416.9952571000003,1416.99528769,0.30514149999999063,1417.4397799999997,1417.4397799999997,n,0.3936979999994037,1419.1451981999999,1419.1451981999999,13,1.244,,,sub-033,40,120,700,bloc_loop.csv,2023-06-29_18h00.28.676,PainUncertainty,2022.2.5,143.67403235532666,
grave,moderee,stimuli/330Hz,stimuli/moderee,bloc_9,prob20hthp_12trials.xlsx,3,36,80,20,0,,,,,0,8,8,8,1,9,21,5,,,,,,,,4.7,1419.1451981999999,1423.8502867999996,1423.85032729,0.3051203000004534,1424.2948233999996,1424.2948233999996,n,0.5119782000006126,1425.7967150000004,1425.7967150000004,10,0.94,,,sub-033,40,120,700,bloc_loop.csv,2023-06-29_18h00.28.676,PainUncertainty,2022.2.5,143.67403235532666,
aigu,moderee,stimuli/660Hz,stimuli/moderee,bloc_9,prob20hthp_12trials.xlsx,3,36,80,20,0,,,,,0,8,8,8,1,10,22,9,,,,,,,,3.4,1425.7967150000004,1429.1985845999998,1429.19923409,0.30396139999993466,1429.6423606999997,1429.6423606999997,n,0.47638360000064495,1433.2485250999998,1433.2485250999998,15,3.073,,,sub-033,40,120,700,bloc_loop.csv,2023-06-29_18h00.28.676,PainUncertainty,2022.2.5,143.67403235532666,
aigu,moderee,stimuli/660Hz,stimuli/moderee,bloc_9,prob20hthp_12trials.xlsx,3,36,80,20,0,,,,,0,8,8,8,1,11,23,8,,,,,,,,4.1,1433.2485250999998,1437.3517843,1437.3517142900002,0.30530090000047494,1437.7961268,1437.7961268,n,0.415631399999711,1440.3970891999998,1440.3970891999998,12,2.128,,,sub-033,40,120,700,bloc_loop.csv,2023-06-29_18h00.28.676,PainUncertainty,2022.2.5,143.67403235532666,
aigu,moderee,stimuli/660Hz,stimuli/moderee,bloc_9,prob20hthp_12trials.xlsx,3,36,80,20,0,,,,,0,8,8,8,2,0,24,8,,,,,,,,3,1440.3970891999998,1443.4015480999997,1443.40153279,0.3050069999999323,1443.8527587999997,1443.8527587999997,n,0.43154029999959675,1445.3699299999998,1445.3699299999998,13,1.011,,,sub-033,40,120,700,bloc_loop.csv,2023-06-29_18h00.28.676,PainUncertainty,2022.2.5,143.67403235532666,
grave,forte,stimuli/330Hz,stimuli/forte,bloc_9,prob20hthp_12trials.xlsx,3,36,80,20,0,,,,,0,8,8,8,2,1,25,1,,,,,,,,4.1,1445.3699299999998,1449.4713413999998,1449.4713354899998,0.3053140000001804,1449.9158690000004,1449.9158690000004,m,0.5411747999992258,1451.9266896999998,1451.9266896999998,69,1.392,,,sub-033,40,120,700,bloc_loop.csv,2023-06-29_18h00.28.676,PainUncertainty,2022.2.5,143.67403235532666,
aigu,moderee,stimuli/660Hz,stimuli/moderee,bloc_9,prob20hthp_12trials.xlsx,3,36,80,20,0,,,,,0,8,8,8,2,2,26,9,,,,,,,,3.8,1451.9266896999998,1455.7293905999995,1455.72971059,0.30462989999978163,1456.1733716999997,1456.1733716999997,n,0.4519617000000835,1458.1617815,1458.1617815,21,1.473,,,sub-033,40,120,700,bloc_loop.csv,2023-06-29_18h00.28.676,PainUncertainty,2022.2.5,143.67403235532666,
aigu,moderee,stimuli/660Hz,stimuli/moderee,bloc_9,prob20hthp_12trials.xlsx,3,36,80,20,0,,,,,0,8,8,8,2,3,27,7,,,,,,,,5,1458.1617815,1463.1674744000002,1463.1675874899995,0.3049318999992465,1463.6117897000004,1463.6117897000004,n,0.48629919999939375,1465.6455321000003,1465.6455321000003,11,1.495,,,sub-033,40,120,700,bloc_loop.csv,2023-06-29_18h00.28.676,PainUncertainty,2022.2.5,143.67403235532666,
aigu,moderee,stimuli/660Hz,stimuli/moderee,bloc_9,prob20hthp_12trials.xlsx,3,36,80,20,0,,,,,0,8,8,8,2,4,28,6,,,,,,,,4.4,1465.6455321000003,1470.0502751000004,1470.05026389,0.30499260000033246,1470.4951930999996,1470.4951930999996,n,0.4456387999994149,1472.1211667999996,1472.1211667999996,14,1.1,,,sub-033,40,120,700,bloc_loop.csv,2023-06-29_18h00.28.676,PainUncertainty,2022.2.5,143.67403235532666,
grave,forte,stimuli/330Hz,stimuli/forte,bloc_9,prob20hthp_12trials.xlsx,3,36,80,20,0,,,,,0,8,8,8,2,5,29,3,,,,,,,,3.3,1472.1211667999996,1475.4258602999998,1475.4259188899998,0.30091340000035416,1475.8709204999996,1475.8709204999996,m,0.451832999999624,1477.3659773999998,1477.3659773999998,75,0.981,,,sub-033,40,120,700,bloc_loop.csv,2023-06-29_18h00.28.676,PainUncertainty,2022.2.5,143.67403235532666,
grave,forte,stimuli/330Hz,stimuli/forte,bloc_9,prob20hthp_12trials.xlsx,3,36,80,20,0,,,,,0,8,8,8,2,6,30,2,,,,,,,,4.5,1477.3659773999998,1481.8715061000003,1481.87133269,0.30501430000003893,1482.3159386999996,1482.3159386999996,m,0.4970730999998523,1485.7770891999999,1485.7770891999999,80,2.905,,,sub-033,40,120,700,bloc_loop.csv,2023-06-29_18h00.28.676,PainUncertainty,2022.2.5,143.67403235532666,
grave,forte,stimuli/330Hz,stimuli/forte,bloc_9,prob20hthp_12trials.xlsx,3,36,80,20,0,,,,,0,8,8,8,2,7,31,4,,,,,,,,4.2,1485.7770891999999,1489.9759081000002,1489.9766392900003,0.304673399999956,1490.4205142,1490.4205142,m,0.5268613000002915,1492.3023368000004,1492.3023368000004,77,1.281,,,sub-033,40,120,700,bloc_loop.csv,2023-06-29_18h00.28.676,PainUncertainty,2022.2.5,143.67403235532666,
grave,moderee,stimuli/330Hz,stimuli/moderee,bloc_9,prob20hthp_12trials.xlsx,3,36,80,20,0,,,,,0,8,8,8,2,8,32,5,,,,,,,,3.3,1492.3023368000004,1495.6019595999996,1495.60197119,0.30515959999956976,1496.0463054000002,1496.0463054000002,n,0.459596799999872,1498.8435247999996,1498.8435247999996,13,2.267,,,sub-033,40,120,700,bloc_loop.csv,2023-06-29_18h00.28.676,PainUncertainty,2022.2.5,143.67403235532666,
aigu,moderee,stimuli/660Hz,stimuli/moderee,bloc_9,prob20hthp_12trials.xlsx,3,36,80,20,0,,,,,0,8,8,8,2,9,33,10,,,,,,,,5,1498.8435247999996,1503.845894,1503.8459117899995,0.30493959999967046,1504.2902410999995,1504.2902410999995,n,0.5492110999998658,1507.9584391999997,1507.9584391999997,13,3.037,,,sub-033,40,120,700,bloc_loop.csv,2023-06-29_18h00.28.676,PainUncertainty,2022.2.5,143.67403235532666,
aigu,forte,stimuli/660Hz,stimuli/forte,bloc_9,prob20hthp_12trials.xlsx,3,36,80,20,0,,,,,0,8,8,8,2,10,34,11,,,,,,,,4.3,1507.9584391999997,1512.2639271999997,1512.2657839899996,0.30337600000075327,1512.7126185999996,1512.7126185999996,m,0.45980289999943125,1513.9679468000004,1513.9679468000004,80,0.738,,,sub-033,40,120,700,bloc_loop.csv,2023-06-29_18h00.28.676,PainUncertainty,2022.2.5,143.67403235532666,
grave,forte,stimuli/330Hz,stimuli/forte,bloc_9,prob20hthp_12trials.xlsx,3,36,80,20,0,,,,,0,8,8,8,2,11,35,0,,,,,,,,3.2,1513.9679468000004,1517.1738759999998,1517.17384779,0.3049981000003754,1517.6181853999997,1517.6181853999997,m,0.4536720000000969,1519.2627468,1519.2627468,73,1.163,,,sub-033,40,120,700,bloc_loop.csv,2023-06-29_18h00.28.676,PainUncertainty,2022.2.5,143.67403235532666,
