cue_,stimulus_,cue_fichier,stimulus_fichier,block_name,block_trials_file,block_n_reps,block_ntrials,block_prob_highP_highT,block_prob_highP_lowT,block_pause_after,Bloc_essai.thisRepN,Bloc_essai.thisTrialN,Bloc_essai.thisN,Bloc_essai.thisIndex,blocks.thisRepN,blocks.thisTrialN,blocks.thisN,blocks.thisIndex,trials.thisRepN,trials.thisTrialN,trials.thisN,trials.thisIndex,pause_loop.thisRepN,pause_loop.thisTrialN,pause_loop.thisN,pause_loop.thisIndex,key_resp_5.started,start_calib.started,key_resp_2.started,ISI_duration,pause.started,pause.stopped,cue.started,ISI.started,choice_pain.started,Choice.started,choice_pain.keys,choice_pain.rt,main_text.started,confirm_text.started,ratingScale.response,ratingScale.rt,key_resp_3.started,key_resp_6.started,choice_pain.stopped,Choice.stopped,participant,low_ma,high_ma,failsafe_ma,block_file,date,expName,psychopyVersion,frameRate,
grave,forte,stimuli/330Hz,stimuli/forte,,,,,,,,0,0,0,1,,,,,,,,,,,,,20.735122300000512,184.68494900000042,236.60814220000066,3.5,238.17103510000015,241.67075560000012,241.67092338000057,0.302461499999481,242.11678709999978,242.11678709999978,n,0.795517500000642,244.7352316000015,244.7352316000015,33,1.751,,,,,sub-046,70,135,700,bloc_loop.csv,2023-09-12_10h18.23.595,PainUncertainty,2022.2.5,143.05496744208773,
aigu,forte,stimuli/660Hz,stimuli/forte,,,,,,,,0,1,1,3,,,,,,,,,,,,,,,,4.9,244.7352316000015,249.63719579999997,249.6372109800008,0.30500779999965744,250.08563870000035,250.08563870000035,m,0.9900665999994089,253.0328180000015,253.0328180000015,67,1.879,,,,,sub-046,70,135,700,bloc_loop.csv,2023-09-12_10h18.23.595,PainUncertainty,2022.2.5,143.05496744208773,
aigu,moderee,stimuli/660Hz,stimuli/moderee,,,,,,,,0,2,2,2,,,,,,,,,,,,,,,,3.8,253.0328180000015,256.83256450000044,256.83262438000145,0.3048479999997653,257.277138200001,257.277138200001,n,0.8069418999984919,259.77587649999987,259.77587649999987,25,1.629,,,,,sub-046,70,135,700,bloc_loop.csv,2023-09-12_10h18.23.595,PainUncertainty,2022.2.5,143.05496744208773,
grave,moderee,stimuli/330Hz,stimuli/moderee,,,,,,,,0,3,3,0,,,,,,,,,,,,,,,,3.3,259.77587649999987,263.076375300001,263.07627918000014,0.30518320000010135,263.52475270000105,263.52475270000105,n,0.5345875000002707,266.5070615000004,266.5070615000004,18,2.42,,,,,sub-046,70,135,700,bloc_loop.csv,2023-09-12_10h18.23.595,PainUncertainty,2022.2.5,143.05496744208773,
grave,forte,stimuli/330Hz,stimuli/forte,bloc_1,prob20hthp_12trials.xlsx,4,48,20,80,0,,,,,0,0,0,0,0,0,0,0,,,,,,,,4,334.25622269999985,338.25900730000103,338.25894758000084,0.30515159999958996,338.7031072000009,338.7031072000009,n,1.1391487999990204,342.5041705000003,342.5041705000003,43,2.593,,,,,sub-046,70,135,700,bloc_loop.csv,2023-09-12_10h18.23.595,PainUncertainty,2022.2.5,143.05496744208773,
aigu,moderee,stimuli/660Hz,stimuli/moderee,bloc_1,prob20hthp_12trials.xlsx,4,48,20,80,0,,,,,0,0,0,0,0,1,1,9,,,,,,,,3,342.5041705000003,345.50348230000054,345.50367638000114,0.30441740000060236,345.9474573000007,345.9474573000007,n,0.6792666000001191,349.8551453,349.8551453,12,3.178,,,,,sub-046,70,135,700,bloc_loop.csv,2023-09-12_10h18.23.595,PainUncertainty,2022.2.5,143.05496744208773,
aigu,moderee,stimuli/660Hz,stimuli/moderee,bloc_1,prob20hthp_12trials.xlsx,4,48,20,80,0,,,,,0,0,0,0,0,2,2,8,,,,,,,,4.4,349.8551453,354.2607549000004,354.26097078000146,0.3055492999992566,354.70943500000067,354.70943500000067,n,0.825072800000271,358.71163330000127,358.71163330000127,16,3.108,,,,,sub-046,70,135,700,bloc_loop.csv,2023-09-12_10h18.23.595,PainUncertainty,2022.2.5,143.05496744208773,
grave,forte,stimuli/330Hz,stimuli/forte,bloc_1,prob20hthp_12trials.xlsx,4,48,20,80,0,,,,,0,0,0,0,0,3,3,4,,,,,,,,3.8,358.71163330000127,362.51180680000107,362.5117787800003,0.2993200999990222,362.949965400001,362.949965400001,m,0.7307055000001128,366.94533260000026,366.94533260000026,75,3.205,,,,,sub-046,70,135,700,bloc_loop.csv,2023-09-12_10h18.23.595,PainUncertainty,2022.2.5,143.05496744208773,
grave,forte,stimuli/330Hz,stimuli/forte,bloc_1,prob20hthp_12trials.xlsx,4,48,20,80,0,,,,,0,0,0,0,0,4,4,1,,,,,,,,5,366.94533260000026,371.95045840000057,371.95071828000016,0.30490800000006857,372.39458470000136,372.39458470000136,m,0.6183424999999261,376.9841567000003,376.9841567000003,83,3.92,,,,,sub-046,70,135,700,bloc_loop.csv,2023-09-12_10h18.23.595,PainUncertainty,2022.2.5,143.05496744208773,
grave,forte,stimuli/330Hz,stimuli/forte,bloc_1,prob20hthp_12trials.xlsx,4,48,20,80,0,,,,,0,0,0,0,0,5,5,2,,,,,,,,4.4,376.9841567000003,381.38948620000156,381.3894446799999,0.3048389999985375,381.8332343000002,381.8332343000002,m,1.0089077000011457,385.47330839999995,385.47330839999995,73,2.553,,,,,sub-046,70,135,700,bloc_loop.csv,2023-09-12_10h18.23.595,PainUncertainty,2022.2.5,143.05496744208773,
aigu,moderee,stimuli/660Hz,stimuli/moderee,bloc_1,prob20hthp_12trials.xlsx,4,48,20,80,0,,,,,0,0,0,0,0,6,6,10,,,,,,,,3.2,385.47330839999995,388.67538890000105,388.67521138000063,0.3047466000007262,389.1189976000005,389.1189976000005,n,0.6655530999996699,393.17688910000106,393.17688910000106,16,3.338,,,,,sub-046,70,135,700,bloc_loop.csv,2023-09-12_10h18.23.595,PainUncertainty,2022.2.5,143.05496744208773,
aigu,moderee,stimuli/660Hz,stimuli/moderee,bloc_1,prob20hthp_12trials.xlsx,4,48,20,80,0,,,,,0,0,0,0,0,7,7,7,,,,,,,,4.6,393.17688910000106,397.78019210000093,397.7802663800006,0.3046962000007625,398.22455360000095,398.22455360000095,n,0.5279587999993964,400.8339340000002,400.8339340000002,17,2.031,,,,,sub-046,70,135,700,bloc_loop.csv,2023-09-12_10h18.23.595,PainUncertainty,2022.2.5,143.05496744208773,
aigu,moderee,stimuli/660Hz,stimuli/moderee,bloc_1,prob20hthp_12trials.xlsx,4,48,20,80,0,,,,,0,0,0,0,0,8,8,6,,,,,,,,3.9,400.8339340000002,404.7391493000014,404.7392638800005,0.3047733999992488,405.18376100000023,405.18376100000023,n,0.6508021999998164,409.69133300000067,409.69133300000067,21,3.775,,,,,sub-046,70,135,700,bloc_loop.csv,2023-09-12_10h18.23.595,PainUncertainty,2022.2.5,143.05496744208773,
grave,forte,stimuli/330Hz,stimuli/forte,bloc_1,prob20hthp_12trials.xlsx,4,48,20,80,0,,,,,0,0,0,0,0,9,9,3,,,,,,,,4.6,409.69133300000067,414.29605020000054,414.29611268000133,0.30470079999940936,414.74012310000035,414.74012310000035,m,0.578446299999996,419.89082430000053,419.89082430000053,74,4.497,,,,,sub-046,70,135,700,bloc_loop.csv,2023-09-12_10h18.23.595,PainUncertainty,2022.2.5,143.05496744208773,
grave,moderee,stimuli/330Hz,stimuli/moderee,bloc_1,prob20hthp_12trials.xlsx,4,48,20,80,0,,,,,0,0,0,0,0,10,10,5,,,,,,,,4,419.89082430000053,423.8944984999998,423.8946753800004,0.30150420000063605,424.3389134000008,424.3389134000008,m,1.0582376000002114,429.817276400001,429.817276400001,34,4.344,,,,,sub-046,70,135,700,bloc_loop.csv,2023-09-12_10h18.23.595,PainUncertainty,2022.2.5,143.05496744208773,
aigu,forte,stimuli/660Hz,stimuli/forte,bloc_1,prob20hthp_12trials.xlsx,4,48,20,80,0,,,,,0,0,0,0,0,11,11,11,,,,,,,,3.7,429.817276400001,433.5208308000001,433.52084438000145,0.30490520000057586,433.9646418000011,433.9646418000011,m,0.8407216999985394,439.07332060000044,439.07332060000044,58,4.192,,,,,sub-046,70,135,700,bloc_loop.csv,2023-09-12_10h18.23.595,PainUncertainty,2022.2.5,143.05496744208773,
aigu,moderee,stimuli/660Hz,stimuli/moderee,bloc_1,prob20hthp_12trials.xlsx,4,48,20,80,0,,,,,0,0,0,0,1,0,12,9,,,,,,,,4.6,439.07332060000044,443.67473170000085,443.67481368000097,0.3014595000004192,444.11897090000093,444.11897090000093,n,0.98180610000054,449.6085314000011,449.6085314000011,19,4.428,,,,,sub-046,70,135,700,bloc_loop.csv,2023-09-12_10h18.23.595,PainUncertainty,2022.2.5,143.05496744208773,
grave,forte,stimuli/330Hz,stimuli/forte,bloc_1,prob20hthp_12trials.xlsx,4,48,20,80,0,,,,,0,0,0,0,1,1,13,1,,,,,,,,3.1,449.6085314000011,452.710254900001,452.7102375799999,0.3051175000000512,453.15434020000066,453.15434020000066,m,0.6624931000005745,457.4713788000008,457.4713788000008,68,3.602,,,,,sub-046,70,135,700,bloc_loop.csv,2023-09-12_10h18.23.595,PainUncertainty,2022.2.5,143.05496744208773,
grave,forte,stimuli/330Hz,stimuli/forte,bloc_1,prob20hthp_12trials.xlsx,4,48,20,80,0,,,,,0,0,0,0,1,2,14,0,,,,,,,,3.4,457.4713788000008,460.8708563,460.87081648000037,0.30559489999905054,461.3192880000006,461.3192880000006,m,0.9763009999987844,464.57054640000024,464.57054640000024,59,2.22,,,,,sub-046,70,135,700,bloc_loop.csv,2023-09-12_10h18.23.595,PainUncertainty,2022.2.5,143.05496744208773,
grave,forte,stimuli/330Hz,stimuli/forte,bloc_1,prob20hthp_12trials.xlsx,4,48,20,80,0,,,,,0,0,0,0,1,3,15,2,,,,,,,,3.7,464.57054640000024,468.27458020000086,468.2747644800014,0.3015841999986151,468.7194782000006,468.7194782000006,m,0.6745854000000691,473.2997460000006,473.2997460000006,69,3.83,,,,,sub-046,70,135,700,bloc_loop.csv,2023-09-12_10h18.23.595,PainUncertainty,2022.2.5,143.05496744208773,
aigu,moderee,stimuli/660Hz,stimuli/moderee,bloc_1,prob20hthp_12trials.xlsx,4,48,20,80,0,,,,,0,0,0,0,1,4,16,10,,,,,,,,3.6,473.2997460000006,476.90058339999996,476.90055857999994,0.30513369999971474,477.3448036000009,477.3448036000009,n,0.6317765999992844,480.71738970000115,480.71738970000115,23,2.662,,,,,sub-046,70,135,700,bloc_loop.csv,2023-09-12_10h18.23.595,PainUncertainty,2022.2.5,143.05496744208773,
aigu,forte,stimuli/660Hz,stimuli/forte,bloc_1,prob20hthp_12trials.xlsx,4,48,20,80,0,,,,,0,0,0,0,1,5,17,11,,,,,,,,3.9,480.71738970000115,484.61680909999995,484.61684088000163,0.2999961000004987,485.0616781000008,485.0616781000008,m,0.8582151999999041,489.8926056,489.8926056,73,3.898,,,,,sub-046,70,135,700,bloc_loop.csv,2023-09-12_10h18.23.595,PainUncertainty,2022.2.5,143.05496744208773,
aigu,moderee,stimuli/660Hz,stimuli/moderee,bloc_1,prob20hthp_12trials.xlsx,4,48,20,80,0,,,,,0,0,0,0,1,6,18,8,,,,,,,,3.7,489.8926056,493.597009000001,493.59709668000085,0.3051311999988684,494.0414286000014,494.0414286000014,n,0.7001737999999023,497.0861321000011,497.0861321000011,17,2.267,,,,,sub-046,70,135,700,bloc_loop.csv,2023-09-12_10h18.23.595,PainUncertainty,2022.2.5,143.05496744208773,
grave,forte,stimuli/330Hz,stimuli/forte,bloc_1,prob20hthp_12trials.xlsx,4,48,20,80,0,,,,,0,0,0,0,1,7,19,3,,,,,,,,4.1,497.0861321000011,501.1887719000006,501.1885734800011,0.3050803999994969,501.6364056000002,501.6364056000002,m,1.2722603000001982,504.7115586,504.7115586,73,1.692,,,,,sub-046,70,135,700,bloc_loop.csv,2023-09-12_10h18.23.595,PainUncertainty,2022.2.5,143.05496744208773,
grave,moderee,stimuli/330Hz,stimuli/moderee,bloc_1,prob20hthp_12trials.xlsx,4,48,20,80,0,,,,,0,0,0,0,1,8,20,5,,,,,,,,3.2,504.7115586,507.9116625000006,507.9117421800014,0.3048171000009461,508.35559900000044,508.35559900000044,n,0.6703560999994806,512.7824778000013,512.7824778000013,24,3.699,,,,,sub-046,70,135,700,bloc_loop.csv,2023-09-12_10h18.23.595,PainUncertainty,2022.2.5,143.05496744208773,
aigu,moderee,stimuli/660Hz,stimuli/moderee,bloc_1,prob20hthp_12trials.xlsx,4,48,20,80,0,,,,,0,0,0,0,1,9,21,6,,,,,,,,3.2,512.7824778000013,515.9819433000011,515.9818929800016,0.30480960000022606,516.4259749000012,516.4259749000012,n,0.7219387999994069,519.7702785000001,519.7702785000001,16,2.552,,,,,sub-046,70,135,700,bloc_loop.csv,2023-09-12_10h18.23.595,PainUncertainty,2022.2.5,143.05496744208773,
grave,forte,stimuli/330Hz,stimuli/forte,bloc_1,prob20hthp_12trials.xlsx,4,48,20,80,0,,,,,0,0,0,0,1,10,22,4,,,,,,,,3.5,519.7702785000001,523.2744418000002,523.2743502800016,0.3011967000002187,523.7187494999998,523.7187494999998,m,1.2848431000002165,528.3855045,528.3855045,83,3.315,,,,,sub-046,70,135,700,bloc_loop.csv,2023-09-12_10h18.23.595,PainUncertainty,2022.2.5,143.05496744208773,
aigu,moderee,stimuli/660Hz,stimuli/moderee,bloc_1,prob20hthp_12trials.xlsx,4,48,20,80,0,,,,,0,0,0,0,1,11,23,7,,,,,,,,3.1,528.3855045,531.490562500001,531.4904965800009,0.3054950999994617,531.9390328000009,531.9390328000009,n,0.6490420999998605,534.9402211000015,534.9402211000015,22,2.302,,,,,sub-046,70,135,700,bloc_loop.csv,2023-09-12_10h18.23.595,PainUncertainty,2022.2.5,143.05496744208773,
aigu,moderee,stimuli/660Hz,stimuli/moderee,bloc_1,prob20hthp_12trials.xlsx,4,48,20,80,0,,,,,0,0,0,0,2,0,24,6,,,,,,,,4.9,534.9402211000015,539.8460455000004,539.8460944800003,0.30466399999932037,540.2900319,540.2900319,n,0.7657742999999755,544.2918654000005,544.2918654000005,20,3.155,,,,,sub-046,70,135,700,bloc_loop.csv,2023-09-12_10h18.23.595,PainUncertainty,2022.2.5,143.05496744208773,
grave,forte,stimuli/330Hz,stimuli/forte,bloc_1,prob20hthp_12trials.xlsx,4,48,20,80,0,,,,,0,0,0,0,2,1,25,0,,,,,,,,3.7,544.2918654000005,547.9925359000008,547.9925522800016,0.3052685000002384,548.4388835000009,548.4388835000009,m,1.119210299999395,553.6905563,553.6905563,75,4.074,,,,,sub-046,70,135,700,bloc_loop.csv,2023-09-12_10h18.23.595,PainUncertainty,2022.2.5,143.05496744208773,
grave,forte,stimuli/330Hz,stimuli/forte,bloc_1,prob20hthp_12trials.xlsx,4,48,20,80,0,,,,,0,0,0,0,2,2,26,1,,,,,,,,4.4,553.6905563,558.0909728000006,558.0910265800006,0.3053605000004609,558.5355787000008,558.5355787000008,m,0.8123708999992232,564.2753818000001,564.2753818000001,83,4.853,,,,,sub-046,70,135,700,bloc_loop.csv,2023-09-12_10h18.23.595,PainUncertainty,2022.2.5,143.05496744208773,
grave,moderee,stimuli/330Hz,stimuli/moderee,bloc_1,prob20hthp_12trials.xlsx,4,48,20,80,0,,,,,0,0,0,0,2,3,27,5,,,,,,,,3.6,564.2753818000001,567.8771816000008,567.8771671799999,0.3049577000001591,568.320965500001,568.320965500001,m,1.5836926000010862,571.660699600001,571.660699600001,58,1.679,,,,,sub-046,70,135,700,bloc_loop.csv,2023-09-12_10h18.23.595,PainUncertainty,2022.2.5,143.05496744208773,
grave,forte,stimuli/330Hz,stimuli/forte,bloc_1,prob20hthp_12trials.xlsx,4,48,20,80,0,,,,,0,0,0,0,2,4,28,2,,,,,,,,4.8,571.660699600001,576.4612723999999,576.4612072800004,0.30496429999948305,576.9053328000009,576.9053328000009,m,1.1744680000010703,581.7159316000016,581.7159316000016,63,3.561,,,,,sub-046,70,135,700,bloc_loop.csv,2023-09-12_10h18.23.595,PainUncertainty,2022.2.5,143.05496744208773,
aigu,moderee,stimuli/660Hz,stimuli/moderee,bloc_1,prob20hthp_12trials.xlsx,4,48,20,80,0,,,,,0,0,0,0,2,5,29,9,,,,,,,,3.5,581.7159316000016,585.2192002000011,585.2193737800002,0.3053693999991083,585.6683301000012,585.6683301000012,n,0.7509957999991457,590.4917472000016,590.4917472000016,23,3.999,,,,,sub-046,70,135,700,bloc_loop.csv,2023-09-12_10h18.23.595,PainUncertainty,2022.2.5,143.05496744208773,
grave,forte,stimuli/330Hz,stimuli/forte,bloc_1,prob20hthp_12trials.xlsx,4,48,20,80,0,,,,,0,0,0,0,2,6,30,3,,,,,,,,3.7,590.4917472000016,594.1926059000016,594.1926175800012,0.3049637000003713,594.6368625000014,594.6368625000014,m,1.4412225999985822,598.2266237000003,598.2266237000003,75,2.085,,,,,sub-046,70,135,700,bloc_loop.csv,2023-09-12_10h18.23.595,PainUncertainty,2022.2.5,143.05496744208773,
grave,forte,stimuli/330Hz,stimuli/forte,bloc_1,prob20hthp_12trials.xlsx,4,48,20,80,0,,,,,0,0,0,0,2,7,31,4,,,,,,,,3.5,598.2266237000003,601.728263500001,601.7282044800007,0.30503049999970244,602.172352900001,602.172352900001,n,1.2253092999999353,606.842607300001,606.842607300001,55,3.391,,,,,sub-046,70,135,700,bloc_loop.csv,2023-09-12_10h18.23.595,PainUncertainty,2022.2.5,143.05496744208773,
aigu,forte,stimuli/660Hz,stimuli/forte,bloc_1,prob20hthp_12trials.xlsx,4,48,20,80,0,,,,,0,0,0,0,2,8,32,11,,,,,,,,3,606.842607300001,609.8475009000013,609.8474784800013,0.30509859999983746,610.2913856000014,610.2913856000014,n,0.5755746999984694,614.9821759000006,614.9821759000006,30,4.039,,,,,sub-046,70,135,700,bloc_loop.csv,2023-09-12_10h18.23.595,PainUncertainty,2022.2.5,143.05496744208773,
aigu,moderee,stimuli/660Hz,stimuli/moderee,bloc_1,prob20hthp_12trials.xlsx,4,48,20,80,0,,,,,0,0,0,0,2,9,33,8,,,,,,,,4.6,614.9821759000006,619.5844303000013,619.5845509800014,0.3051063000002614,620.0286961000002,620.0286961000002,n,0.8955621999994037,625.6261628000011,625.6261628000011,9,4.651,,,,,sub-046,70,135,700,bloc_loop.csv,2023-09-12_10h18.23.595,PainUncertainty,2022.2.5,143.05496744208773,
aigu,moderee,stimuli/660Hz,stimuli/moderee,bloc_1,prob20hthp_12trials.xlsx,4,48,20,80,0,,,,,0,0,0,0,2,10,34,7,,,,,,,,4.9,625.6261628000011,630.5303590000003,630.5304606800013,0.3048202999998466,630.9745747000015,630.9745747000015,n,0.6999880000003031,636.6089378000015,636.6089378000015,24,4.872,,,,,sub-046,70,135,700,bloc_loop.csv,2023-09-12_10h18.23.595,PainUncertainty,2022.2.5,143.05496744208773,
aigu,moderee,stimuli/660Hz,stimuli/moderee,bloc_1,prob20hthp_12trials.xlsx,4,48,20,80,0,,,,,0,0,0,0,2,11,35,10,,,,,,,,3.2,636.6089378000015,639.8091568,639.8092487800017,0.30500170000050275,640.2534946000014,640.2534946000014,n,0.6822560000000522,646.8716125999999,646.8716125999999,13,5.879,,,,,sub-046,70,135,700,bloc_loop.csv,2023-09-12_10h18.23.595,PainUncertainty,2022.2.5,143.05496744208773,
aigu,moderee,stimuli/660Hz,stimuli/moderee,bloc_1,prob20hthp_12trials.xlsx,4,48,20,80,0,,,,,0,0,0,0,3,0,36,10,,,,,,,,4.6,646.8716125999999,651.4774268000001,651.477280980001,0.30512830000043323,651.922321,651.922321,n,0.6723860999991302,656.5123578000002,656.5123578000002,27,3.866,,,,,sub-046,70,135,700,bloc_loop.csv,2023-09-12_10h18.23.595,PainUncertainty,2022.2.5,143.05496744208773,
aigu,moderee,stimuli/660Hz,stimuli/moderee,bloc_1,prob20hthp_12trials.xlsx,4,48,20,80,0,,,,,0,0,0,0,3,1,37,9,,,,,,,,3.1,656.5123578000002,659.6172363000005,659.6175163800011,0.3046783999998297,660.0633236000012,660.0633236000012,n,0.681074099999023,667.0956697000001,667.0956697000001,19,6.281,,,,,sub-046,70,135,700,bloc_loop.csv,2023-09-12_10h18.23.595,PainUncertainty,2022.2.5,143.05496744208773,
aigu,moderee,stimuli/660Hz,stimuli/moderee,bloc_1,prob20hthp_12trials.xlsx,4,48,20,80,0,,,,,0,0,0,0,3,2,38,6,,,,,,,,3.7,667.0956697000001,670.7989298000011,670.7990737800004,0.3047456999993301,671.2431680999998,671.2431680999998,n,0.6108836000003066,676.9588230999998,676.9588230999998,25,5.024,,,,,sub-046,70,135,700,bloc_loop.csv,2023-09-12_10h18.23.595,PainUncertainty,2022.2.5,143.05496744208773,
grave,forte,stimuli/330Hz,stimuli/forte,bloc_1,prob20hthp_12trials.xlsx,4,48,20,80,0,,,,,0,0,0,0,3,3,39,4,,,,,,,,3.1,676.9588230999998,680.064400700001,680.0645755800009,0.3048978000006173,680.508222800001,680.508222800001,m,0.6411489999991318,685.1752731000015,685.1752731000015,63,3.949,,,,,sub-046,70,135,700,bloc_loop.csv,2023-09-12_10h18.23.595,PainUncertainty,2022.2.5,143.05496744208773,
aigu,moderee,stimuli/660Hz,stimuli/moderee,bloc_1,prob20hthp_12trials.xlsx,4,48,20,80,0,,,,,0,0,0,0,3,4,40,8,,,,,,,,3.2,685.1752731000015,688.3774911,688.3775526800013,0.30502229999910924,688.8217949999998,688.8217949999998,n,0.6384140999998635,694.0158626000011,694.0158626000011,13,4.483,,,,,sub-046,70,135,700,bloc_loop.csv,2023-09-12_10h18.23.595,PainUncertainty,2022.2.5,143.05496744208773,
grave,forte,stimuli/330Hz,stimuli/forte,bloc_1,prob20hthp_12trials.xlsx,4,48,20,80,0,,,,,0,0,0,0,3,5,41,2,,,,,,,,4.9,694.0158626000011,698.9218267000015,698.92088318,0.30748730000050273,699.3722384000012,699.3722384000012,m,0.78370410000025,706.4532030000009,706.4532030000009,85,6.219,,,,,sub-046,70,135,700,bloc_loop.csv,2023-09-12_10h18.23.595,PainUncertainty,2022.2.5,143.05496744208773,
aigu,moderee,stimuli/660Hz,stimuli/moderee,bloc_1,prob20hthp_12trials.xlsx,4,48,20,80,0,,,,,0,0,0,0,3,6,42,7,,,,,,,,3.5,706.4532030000009,709.9565208000004,709.9565707800006,0.30507589999979245,710.4007591000009,710.4007591000009,n,0.5656135999997787,713.4553704000009,713.4553704000009,21,2.415,,,,,sub-046,70,135,700,bloc_loop.csv,2023-09-12_10h18.23.595,PainUncertainty,2022.2.5,143.05496744208773,
grave,forte,stimuli/330Hz,stimuli/forte,bloc_1,prob20hthp_12trials.xlsx,4,48,20,80,0,,,,,0,0,0,0,3,7,43,1,,,,,,,,4.9,713.4553704000009,718.3604506000011,718.3602529800004,0.305311599999186,718.8044847000001,718.8044847000001,m,1.119890600000872,723.8626676000003,723.8626676000003,86,3.85,,,,,sub-046,70,135,700,bloc_loop.csv,2023-09-12_10h18.23.595,PainUncertainty,2022.2.5,143.05496744208773,
grave,moderee,stimuli/330Hz,stimuli/moderee,bloc_1,prob20hthp_12trials.xlsx,4,48,20,80,0,,,,,0,0,0,0,3,8,44,5,,,,,,,,3.7,723.8626676000003,727.5628915000016,727.5629293800006,0.30508000000008906,728.0074775000012,728.0074775000012,n,0.6803925999993226,732.3646802000003,732.3646802000003,14,3.608,,,,,sub-046,70,135,700,bloc_loop.csv,2023-09-12_10h18.23.595,PainUncertainty,2022.2.5,143.05496744208773,
aigu,forte,stimuli/660Hz,stimuli/forte,bloc_1,prob20hthp_12trials.xlsx,4,48,20,80,0,,,,,0,0,0,0,3,9,45,11,,,,,,,,3.9,732.3646802000003,736.2657200000012,736.2656823800002,0.3005921000003582,736.7101306000004,736.7101306000004,m,1.0778716999993776,743.2195638000012,743.2195638000012,75,5.365,,,,,sub-046,70,135,700,bloc_loop.csv,2023-09-12_10h18.23.595,PainUncertainty,2022.2.5,143.05496744208773,
grave,forte,stimuli/330Hz,stimuli/forte,bloc_1,prob20hthp_12trials.xlsx,4,48,20,80,0,,,,,0,0,0,0,3,10,46,0,,,,,,,,4.1,743.2195638000012,747.3226255999998,747.3225584800015,0.3053520000012213,747.7705541000014,747.7705541000014,m,0.675712600001134,752.5227687000006,752.5227687000006,92,4.018,,,,,sub-046,70,135,700,bloc_loop.csv,2023-09-12_10h18.23.595,PainUncertainty,2022.2.5,143.05496744208773,
grave,forte,stimuli/330Hz,stimuli/forte,bloc_1,prob20hthp_12trials.xlsx,4,48,20,80,0,,,,,0,0,0,0,3,11,47,3,,,,,,,,3,752.5227687000006,755.5245015,755.5247577800013,0.3047497999996267,755.9687293000006,755.9687293000006,m,0.8186384999989968,760.4845624000009,760.4845624000009,88,3.587,,,,,sub-046,70,135,700,bloc_loop.csv,2023-09-12_10h18.23.595,PainUncertainty,2022.2.5,143.05496744208773,
grave,forte,stimuli/330Hz,stimuli/forte,bloc_2,prob50_50_4trials.xlsx,2,8,50,50,1,,,,,0,1,1,1,0,0,0,1,,,,,,,,4,760.4845624000009,764.4843763000008,764.4843514800008,0.3020727999992232,764.9291159000004,764.9291159000004,m,1.591707999998107,769.7879372000007,769.7879372000007,85,3.199,,,,,sub-046,70,135,700,bloc_loop.csv,2023-09-12_10h18.23.595,PainUncertainty,2022.2.5,143.05496744208773,
aigu,forte,stimuli/660Hz,stimuli/forte,bloc_2,prob50_50_4trials.xlsx,2,8,50,50,1,,,,,0,1,1,1,0,1,1,3,,,,,,,,3.4,769.7879372000007,773.1936437000004,773.1937837800009,0.30498029999944265,773.6422993000015,773.6422993000015,m,1.5744318999986717,777.8774037000003,777.8774037000003,60,2.581,,,,,sub-046,70,135,700,bloc_loop.csv,2023-09-12_10h18.23.595,PainUncertainty,2022.2.5,143.05496744208773,
aigu,moderee,stimuli/660Hz,stimuli/moderee,bloc_2,prob50_50_4trials.xlsx,2,8,50,50,1,,,,,0,1,1,1,0,2,2,2,,,,,,,,3.4,777.8774037000003,781.277661600001,781.2776816800009,0.3050935000010213,781.7220088000013,781.7220088000013,n,0.7644039999995584,784.5598091000011,784.5598091000011,6,2.011,,,,,sub-046,70,135,700,bloc_loop.csv,2023-09-12_10h18.23.595,PainUncertainty,2022.2.5,143.05496744208773,
grave,moderee,stimuli/330Hz,stimuli/moderee,bloc_2,prob50_50_4trials.xlsx,2,8,50,50,1,,,,,0,1,1,1,0,3,3,0,,,,,,,,3.6,784.5598091000011,788.1604699,788.1605553800013,0.30478969999967376,788.6047851000003,788.6047851000003,n,0.9740181999986817,793.1133003000014,793.1133003000014,20,3.469,,,,,sub-046,70,135,700,bloc_loop.csv,2023-09-12_10h18.23.595,PainUncertainty,2022.2.5,143.05496744208773,
grave,moderee,stimuli/330Hz,stimuli/moderee,bloc_2,prob50_50_4trials.xlsx,2,8,50,50,1,,,,,0,1,1,1,1,0,4,0,,,,,,,,3.5,793.1133003000014,796.6128539000001,796.6129135800014,0.3053875000005064,797.0609904000012,797.0609904000012,n,0.6975965000001452,801.5849103,801.5849103,37,3.747,,,,,sub-046,70,135,700,bloc_loop.csv,2023-09-12_10h18.23.595,PainUncertainty,2022.2.5,143.05496744208773,
grave,forte,stimuli/330Hz,stimuli/forte,bloc_2,prob50_50_4trials.xlsx,2,8,50,50,1,,,,,0,1,1,1,1,1,5,1,,,,,,,,4.3,801.5849103,805.8848116000008,805.8848387800002,0.3047473999995418,806.3311012000013,806.3311012000013,m,0.6507574999995995,810.2824828000012,810.2824828000012,88,3.219,,,,,sub-046,70,135,700,bloc_loop.csv,2023-09-12_10h18.23.595,PainUncertainty,2022.2.5,143.05496744208773,
aigu,moderee,stimuli/660Hz,stimuli/moderee,bloc_2,prob50_50_4trials.xlsx,2,8,50,50,1,,,,,0,1,1,1,1,2,6,2,,,,,,,,4.7,810.2824828000012,814.9830319000012,814.9830353800002,0.3050593000007211,815.4272605000006,815.4272605000006,n,0.6378396000000066,819.0098492000016,819.0098492000016,22,2.871,,,,,sub-046,70,135,700,bloc_loop.csv,2023-09-12_10h18.23.595,PainUncertainty,2022.2.5,143.05496744208773,
aigu,forte,stimuli/660Hz,stimuli/forte,bloc_2,prob50_50_4trials.xlsx,2,8,50,50,1,,,,,0,1,1,1,1,3,7,3,,,,,,,,4,819.0098492000016,823.0116971000007,823.0117325800014,0.3052088000004005,823.456002500001,823.456002500001,m,0.693694300000061,827.2636016000015,827.2636016000015,80,1.081,,,,,sub-046,70,135,700,bloc_loop.csv,2023-09-12_10h18.23.595,PainUncertainty,2022.2.5,143.05496744208773,
,,,,bloc_2,prob50_50_4trials.xlsx,2,8,50,50,1,,,,,0,1,1,1,,,,,0,0,0,0,,,,,,,,,,,,,,,,,827.2636016000015,899.0905684999998,,,sub-046,70,135,700,bloc_loop.csv,2023-09-12_10h18.23.595,PainUncertainty,2022.2.5,143.05496744208773,
grave,moderee,stimuli/330Hz,stimuli/moderee,bloc_3,prob80hthp_12trials.xlsx,2,24,80,20,0,,,,,0,2,2,2,0,0,0,2,,,,,,,,5,900.2824049999999,905.2858211000002,905.2858206800005,0.3051998000009917,905.7330815000005,905.7330815000005,n,0.687322599998879,909.5840284000005,909.5840284000005,18,3.108,,,,,sub-046,70,135,700,bloc_loop.csv,2023-09-12_10h18.23.595,PainUncertainty,2022.2.5,143.05496744208773,
grave,moderee,stimuli/330Hz,stimuli/moderee,bloc_3,prob80hthp_12trials.xlsx,2,24,80,20,0,,,,,0,2,2,2,0,1,1,3,,,,,,,,4.5,909.5840284000005,914.0851738000001,914.0851330800009,0.30502439999872877,914.5295516000006,914.5295516000006,n,0.5686718999986624,919.0808080000006,919.0808080000006,7,3.921,,,,,sub-046,70,135,700,bloc_loop.csv,2023-09-12_10h18.23.595,PainUncertainty,2022.2.5,143.05496744208773,
grave,moderee,stimuli/330Hz,stimuli/moderee,bloc_3,prob80hthp_12trials.xlsx,2,24,80,20,0,,,,,0,2,2,2,0,2,2,1,,,,,,,,3.8,919.0808080000006,922.8846845000007,922.8847598800015,0.30490199999985634,923.3288915000012,923.3288915000012,n,0.5287733000004664,927.1062178000011,927.1062178000011,16,3.169,,,,,sub-046,70,135,700,bloc_loop.csv,2023-09-12_10h18.23.595,PainUncertainty,2022.2.5,143.05496744208773,
aigu,forte,stimuli/660Hz,stimuli/forte,bloc_3,prob80hthp_12trials.xlsx,2,24,80,20,0,,,,,0,2,2,2,0,3,3,9,,,,,,,,3.3,927.1062178000011,930.4064476000003,930.4065543800001,0.3049625000003289,930.8549713000011,930.8549713000011,m,0.6288220999995247,933.2435225000008,933.2435225000008,76,1.711,,,,,sub-046,70,135,700,bloc_loop.csv,2023-09-12_10h18.23.595,PainUncertainty,2022.2.5,143.05496744208773,
aigu,forte,stimuli/660Hz,stimuli/forte,bloc_3,prob80hthp_12trials.xlsx,2,24,80,20,0,,,,,0,2,2,2,0,4,4,8,,,,,,,,4.6,933.2435225000008,937.8452569000001,937.84526288,0.30053270000098564,938.2895925000012,938.2895925000012,m,0.6159723999990092,942.4535696000003,942.4535696000003,85,3.467,,,,,sub-046,70,135,700,bloc_loop.csv,2023-09-12_10h18.23.595,PainUncertainty,2022.2.5,143.05496744208773,
grave,moderee,stimuli/330Hz,stimuli/moderee,bloc_3,prob80hthp_12trials.xlsx,2,24,80,20,0,,,,,0,2,2,2,0,5,5,4,,,,,,,,3.4,942.4535696000003,945.8527341000008,945.8527132800003,0.3075758999984828,946.3065259000014,946.3065259000014,n,0.4950556999992841,949.2142438999999,949.2142438999999,21,2.344,,,,,sub-046,70,135,700,bloc_loop.csv,2023-09-12_10h18.23.595,PainUncertainty,2022.2.5,143.05496744208773,
aigu,forte,stimuli/660Hz,stimuli/forte,bloc_3,prob80hthp_12trials.xlsx,2,24,80,20,0,,,,,0,2,2,2,0,6,6,6,,,,,,,,4.5,949.2142438999999,953.7148049000007,953.7148349800003,0.30140750000100525,954.1594877000007,954.1594877000007,m,1.2433916999998473,956.6634595000014,956.6634595000014,84,1.197,,,,,sub-046,70,135,700,bloc_loop.csv,2023-09-12_10h18.23.595,PainUncertainty,2022.2.5,143.05496744208773,
grave,forte,stimuli/330Hz,stimuli/forte,bloc_3,prob80hthp_12trials.xlsx,2,24,80,20,0,,,,,0,2,2,2,0,7,7,5,,,,,,,,5,956.6634595000014,961.6671268999999,961.6671153800011,0.3050734000007651,962.1114345000005,962.1114345000005,m,0.808060999999725,965.8717194000001,965.8717194000001,77,2.894,,,,,sub-046,70,135,700,bloc_loop.csv,2023-09-12_10h18.23.595,PainUncertainty,2022.2.5,143.05496744208773,
aigu,forte,stimuli/660Hz,stimuli/forte,bloc_3,prob80hthp_12trials.xlsx,2,24,80,20,0,,,,,0,2,2,2,0,8,8,7,,,,,,,,4.8,965.8717194000001,970.6754498000009,970.6755913800001,0.3047824000004766,971.1193937000007,971.1193937000007,m,0.7168447000003653,974.7912043000015,974.7912043000015,80,2.879,,,,,sub-046,70,135,700,bloc_loop.csv,2023-09-12_10h18.23.595,PainUncertainty,2022.2.5,143.05496744208773,
aigu,moderee,stimuli/660Hz,stimuli/moderee,bloc_3,prob80hthp_12trials.xlsx,2,24,80,20,0,,,,,0,2,2,2,0,9,9,11,,,,,,,,5,974.7912043000015,979.7942203000002,979.7943520800012,0.3047841999996308,980.2385981000007,980.2385981000007,n,0.6330287999990105,984.8318035000011,984.8318035000011,21,3.886,,,,,sub-046,70,135,700,bloc_loop.csv,2023-09-12_10h18.23.595,PainUncertainty,2022.2.5,143.05496744208773,
aigu,forte,stimuli/660Hz,stimuli/forte,bloc_3,prob80hthp_12trials.xlsx,2,24,80,20,0,,,,,0,2,2,2,0,10,10,10,,,,,,,,4.8,984.8318035000011,989.6357687,989.635759780001,0.30487750000065716,990.0804298000003,990.0804298000003,m,0.6496963999998115,995.9106494000007,995.9106494000007,87,5.102,,,,,sub-046,70,135,700,bloc_loop.csv,2023-09-12_10h18.23.595,PainUncertainty,2022.2.5,143.05496744208773,
grave,moderee,stimuli/330Hz,stimuli/moderee,bloc_3,prob80hthp_12trials.xlsx,2,24,80,20,0,,,,,0,2,2,2,0,11,11,0,,,,,,,,3.3,995.9106494000007,999.2138382000012,999.2138194800003,0.305253200000152,999.6582498000007,999.6582498000007,n,0.8448969999990368,1003.9964661000013,1003.9964661000013,12,3.421,,,,,sub-046,70,135,700,bloc_loop.csv,2023-09-12_10h18.23.595,PainUncertainty,2022.2.5,143.05496744208773,
aigu,forte,stimuli/660Hz,stimuli/forte,bloc_3,prob80hthp_12trials.xlsx,2,24,80,20,0,,,,,0,2,2,2,1,0,12,10,,,,,,,,3.6,1003.9964661000013,1007.5962046000004,1007.5962701800012,0.30560739999964426,1008.0453945999998,1008.0453945999998,m,1.112070200000744,1011.0513217000007,1011.0513217000007,63,1.817,,,,,sub-046,70,135,700,bloc_loop.csv,2023-09-12_10h18.23.595,PainUncertainty,2022.2.5,143.05496744208773,
aigu,moderee,stimuli/660Hz,stimuli/moderee,bloc_3,prob80hthp_12trials.xlsx,2,24,80,20,0,,,,,0,2,2,2,1,1,13,11,,,,,,,,3.2,1011.0513217000007,1014.2503660000002,1014.2504795800008,0.3045562000006612,1014.6942083000013,1014.6942083000013,n,0.6715019999992364,1017.5385581999999,1017.5385581999999,18,2.102,,,,,sub-046,70,135,700,bloc_loop.csv,2023-09-12_10h18.23.595,PainUncertainty,2022.2.5,143.05496744208773,
aigu,forte,stimuli/660Hz,stimuli/forte,bloc_3,prob80hthp_12trials.xlsx,2,24,80,20,0,,,,,0,2,2,2,1,2,14,6,,,,,,,,3.5,1017.5385581999999,1021.0426062000006,1021.0427673799999,0.3050438000009308,1021.490462400001,1021.490462400001,m,0.8850674999994226,1023.7883648000006,1023.7883648000006,67,1.344,,,,,sub-046,70,135,700,bloc_loop.csv,2023-09-12_10h18.23.595,PainUncertainty,2022.2.5,143.05496744208773,
grave,moderee,stimuli/330Hz,stimuli/moderee,bloc_3,prob80hthp_12trials.xlsx,2,24,80,20,0,,,,,0,2,2,2,1,3,15,3,,,,,,,,4.2,1023.7883648000006,1027.9873935000014,1027.9874996800004,0.3051264000005176,1028.4317197,1028.4317197,n,0.6835783000005904,1032.579626300001,1032.579626300001,17,3.393,,,,,sub-046,70,135,700,bloc_loop.csv,2023-09-12_10h18.23.595,PainUncertainty,2022.2.5,143.05496744208773,
grave,forte,stimuli/330Hz,stimuli/forte,bloc_3,prob80hthp_12trials.xlsx,2,24,80,20,0,,,,,0,2,2,2,1,4,16,5,,,,,,,,4,1032.579626300001,1036.5786302000015,1036.5788063800005,0.3050325000003795,1037.0230196000011,1037.0230196000011,m,1.6278865000003861,1042.3318950000012,1042.3318950000012,57,3.615,,,,,sub-046,70,135,700,bloc_loop.csv,2023-09-12_10h18.23.595,PainUncertainty,2022.2.5,143.05496744208773,
aigu,forte,stimuli/660Hz,stimuli/forte,bloc_3,prob80hthp_12trials.xlsx,2,24,80,20,0,,,,,0,2,2,2,1,5,17,9,,,,,,,,4.8,1042.3318950000012,1047.1356486000004,1047.1356327800017,0.30099650000011025,1047.5799552000008,1047.5799552000008,m,1.028658600000199,1051.5870546000006,1051.5870546000006,66,2.898,,,,,sub-046,70,135,700,bloc_loop.csv,2023-09-12_10h18.23.595,PainUncertainty,2022.2.5,143.05496744208773,
grave,moderee,stimuli/330Hz,stimuli/moderee,bloc_3,prob80hthp_12trials.xlsx,2,24,80,20,0,,,,,0,2,2,2,1,6,18,4,,,,,,,,4.5,1051.5870546000006,1056.0884480000004,1056.0883734800004,0.3054740999996284,1056.536383300001,1056.536383300001,n,0.5818074999988312,1058.9570503000014,1058.9570503000014,36,1.767,,,,,sub-046,70,135,700,bloc_loop.csv,2023-09-12_10h18.23.595,PainUncertainty,2022.2.5,143.05496744208773,
aigu,forte,stimuli/660Hz,stimuli/forte,bloc_3,prob80hthp_12trials.xlsx,2,24,80,20,0,,,,,0,2,2,2,1,7,19,7,,,,,,,,4,1058.9570503000014,1062.9567332000006,1062.9568047800017,0.30510420000064187,1063.401254800001,1063.401254800001,m,0.830884099999821,1065.9257549000013,1065.9257549000013,58,1.636,,,,,sub-046,70,135,700,bloc_loop.csv,2023-09-12_10h18.23.595,PainUncertainty,2022.2.5,143.05496744208773,
aigu,forte,stimuli/660Hz,stimuli/forte,bloc_3,prob80hthp_12trials.xlsx,2,24,80,20,0,,,,,0,2,2,2,1,8,20,8,,,,,,,,3.2,1065.9257549000013,1069.131115100001,1069.1312386800014,0.30503329999919515,1069.5753229000002,1069.5753229000002,m,1.429753599999458,1073.4093539000005,1073.4093539000005,69,2.323,,,,,sub-046,70,135,700,bloc_loop.csv,2023-09-12_10h18.23.595,PainUncertainty,2022.2.5,143.05496744208773,
grave,moderee,stimuli/330Hz,stimuli/moderee,bloc_3,prob80hthp_12trials.xlsx,2,24,80,20,0,,,,,0,2,2,2,1,9,21,2,,,,,,,,4.2,1073.4093539000005,1077.6113628000003,1077.611421180001,0.30504710000059276,1078.0595506999998,1078.0595506999998,n,0.6037069999983942,1081.6392433,1081.6392433,15,2.914,,,,,sub-046,70,135,700,bloc_loop.csv,2023-09-12_10h18.23.595,PainUncertainty,2022.2.5,143.05496744208773,
grave,moderee,stimuli/330Hz,stimuli/moderee,bloc_3,prob80hthp_12trials.xlsx,2,24,80,20,0,,,,,0,2,2,2,1,10,22,1,,,,,,,,4.4,1081.6392433,1086.0431298000003,1086.0432167800004,0.3006385999997292,1086.4876866000013,1086.4876866000013,n,0.5815234999990935,1089.7605003000008,1089.7605003000008,19,2.623,,,,,sub-046,70,135,700,bloc_loop.csv,2023-09-12_10h18.23.595,PainUncertainty,2022.2.5,143.05496744208773,
grave,moderee,stimuli/330Hz,stimuli/moderee,bloc_3,prob80hthp_12trials.xlsx,2,24,80,20,0,,,,,0,2,2,2,1,11,23,0,,,,,,,,4.1,1089.7605003000008,1093.863549400001,1093.863594580001,0.3049195999992662,1094.3073656000015,1094.3073656000015,n,0.629828400000406,1098.1378559000004,1098.1378559000004,21,3.128,,,,,sub-046,70,135,700,bloc_loop.csv,2023-09-12_10h18.23.595,PainUncertainty,2022.2.5,143.05496744208773,
grave,forte,stimuli/330Hz,stimuli/forte,bloc_4,prob50_50_4trials.xlsx,2,8,50,50,1,,,,,0,3,3,3,0,0,0,1,,,,,,,,3.3,1098.1378559000004,1101.4405759,1101.4405556800007,0.30522969999947236,1101.8850163000006,1101.8850163000006,m,1.262848500000473,1107.6175972,1107.6175972,69,4.4,,,,,sub-046,70,135,700,bloc_loop.csv,2023-09-12_10h18.23.595,PainUncertainty,2022.2.5,143.05496744208773,
aigu,moderee,stimuli/660Hz,stimuli/moderee,bloc_4,prob50_50_4trials.xlsx,2,8,50,50,1,,,,,0,3,3,3,0,1,1,2,,,,,,,,4.8,1107.6175972,1112.4210770000009,1112.4211568800015,0.30469649999940884,1112.8650668999999,1112.8650668999999,n,0.6059908999995969,1117.4327054000005,1117.4327054000005,24,3.907,,,,,sub-046,70,135,700,bloc_loop.csv,2023-09-12_10h18.23.595,PainUncertainty,2022.2.5,143.05496744208773,
grave,moderee,stimuli/330Hz,stimuli/moderee,bloc_4,prob50_50_4trials.xlsx,2,8,50,50,1,,,,,0,3,3,3,0,2,2,0,,,,,,,,3,1117.4327054000005,1120.4358995000002,1120.4359333800016,0.3049971000000369,1120.8804199000006,1120.8804199000006,n,0.6480243999994855,1126.193803600001,1126.193803600001,17,4.594,,,,,sub-046,70,135,700,bloc_loop.csv,2023-09-12_10h18.23.595,PainUncertainty,2022.2.5,143.05496744208773,
aigu,forte,stimuli/660Hz,stimuli/forte,bloc_4,prob50_50_4trials.xlsx,2,8,50,50,1,,,,,0,3,3,3,0,3,3,3,,,,,,,,3.2,1126.193803600001,1129.3951818000005,1129.3953552800008,0.30471079999915673,1129.8395709000015,1129.8395709000015,m,0.9527458999982628,1132.3628434000002,1132.3628434000002,67,1.51,,,,,sub-046,70,135,700,bloc_loop.csv,2023-09-12_10h18.23.595,PainUncertainty,2022.2.5,143.05496744208773,
aigu,forte,stimuli/660Hz,stimuli/forte,bloc_4,prob50_50_4trials.xlsx,2,8,50,50,1,,,,,0,3,3,3,1,0,4,3,,,,,,,,3.5,1132.3628434000002,1135.8681238000008,1135.868194080001,0.3051329000008991,1136.3123486000004,1136.3123486000004,m,1.0358851999990293,1141.525084500001,1141.525084500001,45,4.095,,,,,sub-046,70,135,700,bloc_loop.csv,2023-09-12_10h18.23.595,PainUncertainty,2022.2.5,143.05496744208773,
aigu,moderee,stimuli/660Hz,stimuli/moderee,bloc_4,prob50_50_4trials.xlsx,2,8,50,50,1,,,,,0,3,3,3,1,1,5,2,,,,,,,,3.6,1141.525084500001,1145.126490300001,1145.1264664800015,0.30083620000004885,1145.5710047000011,1145.5710047000011,n,0.7319312999989052,1148.7006102000014,1148.7006102000014,27,2.343,,,,,sub-046,70,135,700,bloc_loop.csv,2023-09-12_10h18.23.595,PainUncertainty,2022.2.5,143.05496744208773,
grave,moderee,stimuli/330Hz,stimuli/moderee,bloc_4,prob50_50_4trials.xlsx,2,8,50,50,1,,,,,0,3,3,3,1,2,6,0,,,,,,,,4.7,1148.7006102000014,1153.4052162000007,1153.405384180001,0.30496209999910207,1153.849125300001,1153.849125300001,n,1.1933732999987114,1156.4708232000012,1156.4708232000012,12,1.359,,,,,sub-046,70,135,700,bloc_loop.csv,2023-09-12_10h18.23.595,PainUncertainty,2022.2.5,143.05496744208773,
grave,forte,stimuli/330Hz,stimuli/forte,bloc_4,prob50_50_4trials.xlsx,2,8,50,50,1,,,,,0,3,3,3,1,3,7,1,,,,,,,,4.8,1156.4708232000012,1161.2739810000003,1161.2739361800009,0.3052713000015501,1161.7184817000016,1161.7184817000016,m,0.6912811999991391,1168.203418000001,1168.203418000001,92,3.762,,,,,sub-046,70,135,700,bloc_loop.csv,2023-09-12_10h18.23.595,PainUncertainty,2022.2.5,143.05496744208773,
,,,,bloc_4,prob50_50_4trials.xlsx,2,8,50,50,1,,,,,0,3,3,3,,,,,0,0,0,0,,,,,,,,,,,,,,,,,1168.203418000001,1415.338741900001,,,sub-046,70,135,700,bloc_loop.csv,2023-09-12_10h18.23.595,PainUncertainty,2022.2.5,143.05496744208773,
aigu,forte,stimuli/660Hz,stimuli/forte,bloc_5,prob20hthp_12trials.xlsx,2,24,20,80,0,,,,,0,4,4,4,0,0,0,11,,,,,,,,3,1416.7062779000007,1419.7073311000004,1419.7076472800013,0.304723200000808,1420.1514857000002,1420.1514857000002,m,0.6577942999992956,1423.3243870000006,1423.3243870000006,66,2.45,,,,,sub-046,70,135,700,bloc_loop.csv,2023-09-12_10h18.23.595,PainUncertainty,2022.2.5,143.05496744208773,
grave,forte,stimuli/330Hz,stimuli/forte,bloc_5,prob20hthp_12trials.xlsx,2,24,20,80,0,,,,,0,4,4,4,0,1,1,0,,,,,,,,5,1423.3243870000006,1428.3262474000003,1428.3261507800012,0.30500730000130716,1428.7702209,1428.7702209,m,1.1910567999984778,1430.9822901000007,1430.9822901000007,70,0.943,,,,,sub-046,70,135,700,bloc_loop.csv,2023-09-12_10h18.23.595,PainUncertainty,2022.2.5,143.05496744208773,
aigu,moderee,stimuli/660Hz,stimuli/moderee,bloc_5,prob20hthp_12trials.xlsx,2,24,20,80,0,,,,,0,4,4,4,0,2,2,7,,,,,,,,3.9,1430.9822901000007,1434.882501,1434.8826512800001,0.30496859999948356,1435.3270749000003,1435.3270749000003,n,0.5752469999988534,1437.6958809000007,1437.6958809000007,13,1.712,,,,,sub-046,70,135,700,bloc_loop.csv,2023-09-12_10h18.23.595,PainUncertainty,2022.2.5,143.05496744208773,
grave,forte,stimuli/330Hz,stimuli/forte,bloc_5,prob20hthp_12trials.xlsx,2,24,20,80,0,,,,,0,4,4,4,0,3,3,4,,,,,,,,4,1437.6958809000007,1441.6960884,1441.6960655800008,0.300323200001003,1442.1405050000012,1442.1405050000012,m,0.9949393000006239,1444.1390640999998,1444.1390640999998,70,0.918,,,,,sub-046,70,135,700,bloc_loop.csv,2023-09-12_10h18.23.595,PainUncertainty,2022.2.5,143.05496744208773,
aigu,moderee,stimuli/660Hz,stimuli/moderee,bloc_5,prob20hthp_12trials.xlsx,2,24,20,80,0,,,,,0,4,4,4,0,4,4,6,,,,,,,,4.1,1444.1390640999998,1448.2384852000014,1448.2397382800004,0.3040076000015688,1448.6861419000015,1448.6861419000015,n,0.7216351999995823,1451.6017952000002,1451.6017952000002,10,2.143,,,,,sub-046,70,135,700,bloc_loop.csv,2023-09-12_10h18.23.595,PainUncertainty,2022.2.5,143.05496744208773,
aigu,moderee,stimuli/660Hz,stimuli/moderee,bloc_5,prob20hthp_12trials.xlsx,2,24,20,80,0,,,,,0,4,4,4,0,5,5,10,,,,,,,,5,1451.6017952000002,1456.6071723000005,1456.6070681800006,0.3054022999986046,1457.0515809000008,1457.0515809000008,n,1.791621499998655,1462.8737769,1462.8737769,9,3.955,,,,,sub-046,70,135,700,bloc_loop.csv,2023-09-12_10h18.23.595,PainUncertainty,2022.2.5,143.05496744208773,
grave,forte,stimuli/330Hz,stimuli/forte,bloc_5,prob20hthp_12trials.xlsx,2,24,20,80,0,,,,,0,4,4,4,0,6,6,3,,,,,,,,3.8,1462.8737769,1466.6782479000012,1466.6783520800013,0.30518320000010135,1467.1246938000004,1467.1246938000004,m,0.9444761999984621,1469.6682741000004,1469.6682741000004,76,1.516,,,,,sub-046,70,135,700,bloc_loop.csv,2023-09-12_10h18.23.595,PainUncertainty,2022.2.5,143.05496744208773,
aigu,moderee,stimuli/660Hz,stimuli/moderee,bloc_5,prob20hthp_12trials.xlsx,2,24,20,80,0,,,,,0,4,4,4,0,7,7,8,,,,,,,,3.3,1469.6682741000004,1472.9708568000005,1472.9709938800002,0.30465209999965737,1473.4149214000008,1473.4149214000008,n,1.063593499999115,1475.6143539000004,1475.6143539000004,20,1.052,,,,,sub-046,70,135,700,bloc_loop.csv,2023-09-12_10h18.23.595,PainUncertainty,2022.2.5,143.05496744208773,
grave,forte,stimuli/330Hz,stimuli/forte,bloc_5,prob20hthp_12trials.xlsx,2,24,20,80,0,,,,,0,4,4,4,0,8,8,2,,,,,,,,4.2,1475.6143539000004,1479.8181937000008,1479.8183489800008,0.3053099000007933,1480.2666945,1480.2666945,m,1.618047399999341,1484.4366921,1484.4366921,73,2.477,,,,,sub-046,70,135,700,bloc_loop.csv,2023-09-12_10h18.23.595,PainUncertainty,2022.2.5,143.05496744208773,
grave,moderee,stimuli/330Hz,stimuli/moderee,bloc_5,prob20hthp_12trials.xlsx,2,24,20,80,0,,,,,0,4,4,4,0,9,9,5,,,,,,,,3.8,1484.4366921,1488.2359904000004,1488.2363048800012,0.30467769999995653,1488.6802511000005,1488.6802511000005,n,0.6680433000001358,1493.0546104000005,1493.0546104000005,14,3.621,,,,,sub-046,70,135,700,bloc_loop.csv,2023-09-12_10h18.23.595,PainUncertainty,2022.2.5,143.05496744208773,
grave,forte,stimuli/330Hz,stimuli/forte,bloc_5,prob20hthp_12trials.xlsx,2,24,20,80,0,,,,,0,4,4,4,0,10,10,1,,,,,,,,4,1493.0546104000005,1497.0565126000001,1497.0564900800014,0.3049404000012146,1497.5006699000005,1497.5006699000005,m,1.2847039999996923,1501.847273700001,1501.847273700001,72,2.983,,,,,sub-046,70,135,700,bloc_loop.csv,2023-09-12_10h18.23.595,PainUncertainty,2022.2.5,143.05496744208773,
aigu,moderee,stimuli/660Hz,stimuli/moderee,bloc_5,prob20hthp_12trials.xlsx,2,24,20,80,0,,,,,0,4,4,4,0,11,11,9,,,,,,,,3.3,1501.847273700001,1505.1477153000014,1505.147731980001,0.30499690000033297,1505.594534400001,1505.594534400001,n,0.5727470000001631,1510.8157335000014,1510.8157335000014,12,4.575,,,,,sub-046,70,135,700,bloc_loop.csv,2023-09-12_10h18.23.595,PainUncertainty,2022.2.5,143.05496744208773,
grave,forte,stimuli/330Hz,stimuli/forte,bloc_5,prob20hthp_12trials.xlsx,2,24,20,80,0,,,,,0,4,4,4,1,0,12,3,,,,,,,,4.4,1510.8157335000014,1515.2184899000003,1515.2188606800005,0.3045567999997729,1515.6626511000013,1515.6626511000013,m,0.8273166999988462,1518.2161201,1518.2161201,77,1.654,,,,,sub-046,70,135,700,bloc_loop.csv,2023-09-12_10h18.23.595,PainUncertainty,2022.2.5,143.05496744208773,
aigu,forte,stimuli/660Hz,stimuli/forte,bloc_5,prob20hthp_12trials.xlsx,2,24,20,80,0,,,,,0,4,4,4,1,1,13,11,,,,,,,,4.7,1518.2161201,1522.9205747000015,1522.92066698,0.30481520000103046,1523.364735700001,1523.364735700001,m,0.7344091000013577,1526.0341523000006,1526.0341523000006,72,1.858,,,,,sub-046,70,135,700,bloc_loop.csv,2023-09-12_10h18.23.595,PainUncertainty,2022.2.5,143.05496744208773,
aigu,moderee,stimuli/660Hz,stimuli/moderee,bloc_5,prob20hthp_12trials.xlsx,2,24,20,80,0,,,,,0,4,4,4,1,2,14,9,,,,,,,,4.6,1526.0341523000006,1530.6367963000012,1530.6368580800004,0.29940040000110457,1531.077907500001,1531.077907500001,n,0.565785999999207,1535.575224600001,1535.575224600001,23,3.865,,,,,sub-046,70,135,700,bloc_loop.csv,2023-09-12_10h18.23.595,PainUncertainty,2022.2.5,143.05496744208773,
grave,forte,stimuli/330Hz,stimuli/forte,bloc_5,prob20hthp_12trials.xlsx,2,24,20,80,0,,,,,0,4,4,4,1,3,15,4,,,,,,,,3.9,1535.575224600001,1539.4780921000001,1539.4781236800004,0.30497359999935725,1539.9225124000004,1539.9225124000004,m,0.9306413999984215,1543.8899099999999,1543.8899099999999,69,2.962,,,,,sub-046,70,135,700,bloc_loop.csv,2023-09-12_10h18.23.595,PainUncertainty,2022.2.5,143.05496744208773,
aigu,moderee,stimuli/660Hz,stimuli/moderee,bloc_5,prob20hthp_12trials.xlsx,2,24,20,80,0,,,,,0,4,4,4,1,4,16,8,,,,,,,,4.6,1543.8899099999999,1548.493326400001,1548.4932987800016,0.3049819000007119,1548.9371277999999,1548.9371277999999,n,0.9362588999993022,1553.5442956000006,1553.5442956000006,13,3.608,,,,,sub-046,70,135,700,bloc_loop.csv,2023-09-12_10h18.23.595,PainUncertainty,2022.2.5,143.05496744208773,
aigu,moderee,stimuli/660Hz,stimuli/moderee,bloc_5,prob20hthp_12trials.xlsx,2,24,20,80,0,,,,,0,4,4,4,1,5,17,6,,,,,,,,3.8,1553.5442956000006,1557.3481321,1557.3483384800015,0.3049198000007891,1557.7924111000011,1557.7924111000011,m,0.7123995999991166,1562.433468000001,1562.433468000001,18,3.87,,,,,sub-046,70,135,700,bloc_loop.csv,2023-09-12_10h18.23.595,PainUncertainty,2022.2.5,143.05496744208773,
aigu,moderee,stimuli/660Hz,stimuli/moderee,bloc_5,prob20hthp_12trials.xlsx,2,24,20,80,0,,,,,0,4,4,4,1,6,18,7,,,,,,,,3.2,1562.433468000001,1565.6348588,1565.6342241800007,0.30056489999878977,1566.0784480000002,1566.0784480000002,n,0.6395759000006365,1569.9300523000002,1569.9300523000002,6,3.157,,,,,sub-046,70,135,700,bloc_loop.csv,2023-09-12_10h18.23.595,PainUncertainty,2022.2.5,143.05496744208773,
aigu,moderee,stimuli/660Hz,stimuli/moderee,bloc_5,prob20hthp_12trials.xlsx,2,24,20,80,0,,,,,0,4,4,4,1,7,19,10,,,,,,,,4.3,1569.9300523000002,1574.2321496000004,1574.2322039800015,0.3050930999997945,1574.676294500001,1574.676294500001,m,0.9643633000014233,1578.8666374000004,1578.8666374000004,24,3.137,,,,,sub-046,70,135,700,bloc_loop.csv,2023-09-12_10h18.23.595,PainUncertainty,2022.2.5,143.05496744208773,
grave,forte,stimuli/330Hz,stimuli/forte,bloc_5,prob20hthp_12trials.xlsx,2,24,20,80,0,,,,,0,4,4,4,1,8,20,0,,,,,,,,3.5,1578.8666374000004,1582.3722257000009,1582.37254118,0.30125220000081754,1582.817128300001,1582.817128300001,m,0.6762899999994261,1584.7488572000002,1584.7488572000002,84,1.197,,,,,sub-046,70,135,700,bloc_loop.csv,2023-09-12_10h18.23.595,PainUncertainty,2022.2.5,143.05496744208773,
grave,forte,stimuli/330Hz,stimuli/forte,bloc_5,prob20hthp_12trials.xlsx,2,24,20,80,0,,,,,0,4,4,4,1,9,21,1,,,,,,,,3.1,1584.7488572000002,1587.8519258000015,1587.8519149800009,0.30498960000113584,1588.2962623000003,1588.2962623000003,m,0.6202302999990934,1589.8177446999998,1589.8177446999998,70,0.822,,,,,sub-046,70,135,700,bloc_loop.csv,2023-09-12_10h18.23.595,PainUncertainty,2022.2.5,143.05496744208773,
grave,moderee,stimuli/330Hz,stimuli/moderee,bloc_5,prob20hthp_12trials.xlsx,2,24,20,80,0,,,,,0,4,4,4,1,10,22,5,,,,,,,,3.1,1589.8177446999998,1592.9218775000008,1592.9217576800015,0.30520179999984975,1593.3683967000015,1593.3683967000015,n,0.5046599999986938,1598.1773150000008,1598.1773150000008,9,4.234,,,,,sub-046,70,135,700,bloc_loop.csv,2023-09-12_10h18.23.595,PainUncertainty,2022.2.5,143.05496744208773,
grave,forte,stimuli/330Hz,stimuli/forte,bloc_5,prob20hthp_12trials.xlsx,2,24,20,80,0,,,,,0,4,4,4,1,11,23,2,,,,,,,,4.7,1598.1773150000008,1602.8814094000008,1602.8813067800015,0.305523600000015,1603.3259483000002,1603.3259483000002,m,0.9764403000008315,1608.9826704000006,1608.9826704000006,70,4.614,,,,,sub-046,70,135,700,bloc_loop.csv,2023-09-12_10h18.23.595,PainUncertainty,2022.2.5,143.05496744208773,
grave,forte,stimuli/330Hz,stimuli/forte,bloc_6,prob50_50_4trials.xlsx,2,8,50,50,0,,,,,0,5,5,5,0,0,0,1,,,,,,,,4.5,1608.9826704000006,1613.487524600001,1613.4874822800007,0.3043765999991592,1613.9312287000012,1613.9312287000012,m,2.2818497999996907,1619.9663475000016,1619.9663475000016,67,3.678,,,,,sub-046,70,135,700,bloc_loop.csv,2023-09-12_10h18.23.595,PainUncertainty,2022.2.5,143.05496744208773,
aigu,moderee,stimuli/660Hz,stimuli/moderee,bloc_6,prob50_50_4trials.xlsx,2,8,50,50,0,,,,,0,5,5,5,0,1,1,2,,,,,,,,3.6,1619.9663475000016,1623.5712498000012,1623.571308780001,0.305253200000152,1624.0194257000003,1624.0194257000003,n,0.7689233000000968,1627.0798368000014,1627.0798368000014,17,2.233,,,,,sub-046,70,135,700,bloc_loop.csv,2023-09-12_10h18.23.595,PainUncertainty,2022.2.5,143.05496744208773,
grave,moderee,stimuli/330Hz,stimuli/moderee,bloc_6,prob50_50_4trials.xlsx,2,8,50,50,0,,,,,0,5,5,5,0,2,2,0,,,,,,,,3.4,1627.0798368000014,1630.4819880000014,1630.4819156800017,0.3049098999999842,1630.9260091000015,1630.9260091000015,n,1.3877701000001252,1635.5370757,1635.5370757,22,3.142,,,,,sub-046,70,135,700,bloc_loop.csv,2023-09-12_10h18.23.595,PainUncertainty,2022.2.5,143.05496744208773,
aigu,forte,stimuli/660Hz,stimuli/forte,bloc_6,prob50_50_4trials.xlsx,2,8,50,50,0,,,,,0,5,5,5,0,3,3,3,,,,,,,,3.7,1635.5370757,1639.2397294000002,1639.2399294800011,0.30467959999987215,1639.6842721000012,1639.6842721000012,None,,1646.3903203999998,1646.3903203999998,78,4.198,,,1642.1529422000003,1642.1529422000003,sub-046,70,135,700,bloc_loop.csv,2023-09-12_10h18.23.595,PainUncertainty,2022.2.5,143.05496744208773,
grave,forte,stimuli/330Hz,stimuli/forte,bloc_6,prob50_50_4trials.xlsx,2,8,50,50,0,,,,,0,5,5,5,1,0,4,1,,,,,,,,4.9,1646.3903203999998,1651.2901944000005,1651.29036588,0.3049742999992304,1651.7386684000012,1651.7386684000012,m,1.430479299999206,1657.0532650000005,1657.0532650000005,79,3.814,,,,,sub-046,70,135,700,bloc_loop.csv,2023-09-12_10h18.23.595,PainUncertainty,2022.2.5,143.05496744208773,
grave,moderee,stimuli/330Hz,stimuli/moderee,bloc_6,prob50_50_4trials.xlsx,2,8,50,50,0,,,,,0,5,5,5,1,1,5,0,,,,,,,,3.8,1657.0532650000005,1660.8533691000011,1660.8535688800016,0.30473320000055537,1661.297628100001,1661.297628100001,n,0.6168591999994533,1666.8514178000005,1666.8514178000005,11,4.886,,,,,sub-046,70,135,700,bloc_loop.csv,2023-09-12_10h18.23.595,PainUncertainty,2022.2.5,143.05496744208773,
aigu,moderee,stimuli/660Hz,stimuli/moderee,bloc_6,prob50_50_4trials.xlsx,2,8,50,50,0,,,,,0,5,5,5,1,2,6,2,,,,,,,,4,1666.8514178000005,1670.8545644000005,1670.8547280800008,0.3048647000014171,1671.2987723000006,1671.2987723000006,n,1.4926539000007324,1674.1111657000001,1674.1111657000001,13,1.24,,,,,sub-046,70,135,700,bloc_loop.csv,2023-09-12_10h18.23.595,PainUncertainty,2022.2.5,143.05496744208773,
aigu,forte,stimuli/660Hz,stimuli/forte,bloc_6,prob50_50_4trials.xlsx,2,8,50,50,0,,,,,0,5,5,5,1,3,7,3,,,,,,,,4.9,1674.1111657000001,1679.0153074999998,1679.0152642800017,0.30506120000063675,1679.4593753000008,1679.4593753000008,m,1.1888548999995692,1685.3181177000006,1685.3181177000006,67,4.587,,,,,sub-046,70,135,700,bloc_loop.csv,2023-09-12_10h18.23.595,PainUncertainty,2022.2.5,143.05496744208773,
grave,moderee,stimuli/330Hz,stimuli/moderee,bloc_7,prob80hthp_12trials.xlsx,2,24,80,20,1,,,,,0,6,6,6,0,0,0,1,,,,,,,,3.2,1685.3181177000006,1688.5232812000013,1688.5233117800012,0.30506290000084846,1688.9674556999998,1688.9674556999998,n,0.7225570999999036,1692.844938100001,1692.844938100001,12,3.101,,,,,sub-046,70,135,700,bloc_loop.csv,2023-09-12_10h18.23.595,PainUncertainty,2022.2.5,143.05496744208773,
grave,moderee,stimuli/330Hz,stimuli/moderee,bloc_7,prob80hthp_12trials.xlsx,2,24,80,20,1,,,,,0,6,6,6,0,1,1,2,,,,,,,,3.9,1692.844938100001,1696.7465964000003,1696.74659758,0.3049747999993997,1697.1912825,1697.1912825,n,0.7837581999992835,1701.9430389999998,1701.9430389999998,16,3.892,,,,,sub-046,70,135,700,bloc_loop.csv,2023-09-12_10h18.23.595,PainUncertainty,2022.2.5,143.05496744208773,
grave,forte,stimuli/330Hz,stimuli/forte,bloc_7,prob80hthp_12trials.xlsx,2,24,80,20,1,,,,,0,6,6,6,0,2,2,5,,,,,,,,3.5,1701.9430389999998,1705.4421118999999,1705.442052580001,0.304970900000626,1705.8863464000005,1705.8863464000005,m,1.4817667999996047,1710.207144600001,1710.207144600001,64,2.768,,,,,sub-046,70,135,700,bloc_loop.csv,2023-09-12_10h18.23.595,PainUncertainty,2022.2.5,143.05496744208773,
aigu,moderee,stimuli/660Hz,stimuli/moderee,bloc_7,prob80hthp_12trials.xlsx,2,24,80,20,1,,,,,0,6,6,6,0,3,3,11,,,,,,,,3.8,1710.207144600001,1714.0061673,1714.0062429800014,0.30031339999914053,1714.4500346000004,1714.4500346000004,n,0.49853819999952975,1720.580950900001,1720.580950900001,16,5.566,,,,,sub-046,70,135,700,bloc_loop.csv,2023-09-12_10h18.23.595,PainUncertainty,2022.2.5,143.05496744208773,
aigu,forte,stimuli/660Hz,stimuli/forte,bloc_7,prob80hthp_12trials.xlsx,2,24,80,20,1,,,,,0,6,6,6,0,4,4,9,,,,,,,,4.8,1720.580950900001,1725.382425400001,1725.382477980001,0.30685970000013185,1725.8338709,1725.8338709,m,1.118111300000237,1728.3514773000006,1728.3514773000006,72,1.33,,,,,sub-046,70,135,700,bloc_loop.csv,2023-09-12_10h18.23.595,PainUncertainty,2022.2.5,143.05496744208773,
grave,moderee,stimuli/330Hz,stimuli/moderee,bloc_7,prob80hthp_12trials.xlsx,2,24,80,20,1,,,,,0,6,6,6,0,5,5,0,,,,,,,,3.7,1728.3514773000006,1732.0564669000014,1732.05639698,0.3049401999996917,1732.5007558000016,1732.5007558000016,n,0.5672431000002689,1737.479725700001,1737.479725700001,24,4.337,,,,,sub-046,70,135,700,bloc_loop.csv,2023-09-12_10h18.23.595,PainUncertainty,2022.2.5,143.05496744208773,
aigu,forte,stimuli/660Hz,stimuli/forte,bloc_7,prob80hthp_12trials.xlsx,2,24,80,20,1,,,,,0,6,6,6,0,6,6,7,,,,,,,,3.4,1737.479725700001,1740.8836889000013,1740.8836927800016,0.3049453999992693,1741.3281536000013,1741.3281536000013,m,0.65726899999936,1746.446846500001,1746.446846500001,72,4.4,,,,,sub-046,70,135,700,bloc_loop.csv,2023-09-12_10h18.23.595,PainUncertainty,2022.2.5,143.05496744208773,
aigu,forte,stimuli/660Hz,stimuli/forte,bloc_7,prob80hthp_12trials.xlsx,2,24,80,20,1,,,,,0,6,6,6,0,7,7,6,,,,,,,,4.2,1746.446846500001,1750.6489118999998,1750.6486769800008,0.30555810000078054,1751.0973392000014,1751.0973392000014,n,1.6878381000005902,1754.806599200001,1754.806599200001,46,1.941,,,,,sub-046,70,135,700,bloc_loop.csv,2023-09-12_10h18.23.595,PainUncertainty,2022.2.5,143.05496744208773,
grave,moderee,stimuli/330Hz,stimuli/moderee,bloc_7,prob80hthp_12trials.xlsx,2,24,80,20,1,,,,,0,6,6,6,0,8,8,3,,,,,,,,4.3,1754.806599200001,1759.110671800001,1759.1094313800018,0.3043214999997872,1759.5557708000015,1759.5557708000015,n,0.5948280999982671,1763.5363171000008,1763.5363171000008,17,3.317,,,,,sub-046,70,135,700,bloc_loop.csv,2023-09-12_10h18.23.595,PainUncertainty,2022.2.5,143.05496744208773,
grave,moderee,stimuli/330Hz,stimuli/moderee,bloc_7,prob80hthp_12trials.xlsx,2,24,80,20,1,,,,,0,6,6,6,0,9,9,4,,,,,,,,3.1,1763.5363171000008,1766.6366537000013,1766.6367186800012,0.29973939999945287,1767.0795216000006,1767.0795216000006,n,0.5323551999990741,1771.1134879,1771.1134879,8,3.427,,,,,sub-046,70,135,700,bloc_loop.csv,2023-09-12_10h18.23.595,PainUncertainty,2022.2.5,143.05496744208773,
aigu,forte,stimuli/660Hz,stimuli/forte,bloc_7,prob80hthp_12trials.xlsx,2,24,80,20,1,,,,,0,6,6,6,0,10,10,8,,,,,,,,3.9,1771.1134879,1775.0130188000003,1775.0129328800008,0.29911080000056245,1775.4551764000007,1775.4551764000007,m,1.194300999999541,1779.5078512,1779.5078512,67,2.796,,,,,sub-046,70,135,700,bloc_loop.csv,2023-09-12_10h18.23.595,PainUncertainty,2022.2.5,143.05496744208773,
aigu,forte,stimuli/660Hz,stimuli/forte,bloc_7,prob80hthp_12trials.xlsx,2,24,80,20,1,,,,,0,6,6,6,0,11,11,10,,,,,,,,4.3,1779.5078512,1783.8126137,1783.8127834800011,0.30513579999933427,1784.2592552000006,1784.2592552000006,n,1.8207277999990765,1789.4501504,1789.4501504,31,3.301,,,,,sub-046,70,135,700,bloc_loop.csv,2023-09-12_10h18.23.595,PainUncertainty,2022.2.5,143.05496744208773,
aigu,forte,stimuli/660Hz,stimuli/forte,bloc_7,prob80hthp_12trials.xlsx,2,24,80,20,1,,,,,0,6,6,6,1,0,12,7,,,,,,,,4.1,1789.4501504,1793.5495392000012,1793.5496463800005,0.30498240000088117,1793.9959788000015,1793.9959788000015,m,0.7665015999991738,1796.4186797000002,1796.4186797000002,84,1.593,,,,,sub-046,70,135,700,bloc_loop.csv,2023-09-12_10h18.23.595,PainUncertainty,2022.2.5,143.05496744208773,
grave,forte,stimuli/330Hz,stimuli/forte,bloc_7,prob80hthp_12trials.xlsx,2,24,80,20,1,,,,,0,6,6,6,1,1,13,5,,,,,,,,3.8,1796.4186797000002,1800.2239126000004,1800.2241569800003,0.3049286999994365,1800.6680743000015,1800.6680743000015,m,1.3109552999994776,1804.686087600001,1804.686087600001,74,2.628,,,,,sub-046,70,135,700,bloc_loop.csv,2023-09-12_10h18.23.595,PainUncertainty,2022.2.5,143.05496744208773,
grave,moderee,stimuli/330Hz,stimuli/moderee,bloc_7,prob80hthp_12trials.xlsx,2,24,80,20,1,,,,,0,6,6,6,1,2,14,4,,,,,,,,4.2,1804.686087600001,1808.8921440000013,1808.8920436800013,0.30525829999896814,1809.3403485,1809.3403485,n,0.6006288000007771,1812.9156297999998,1812.9156297999998,16,2.921,,,,,sub-046,70,135,700,bloc_loop.csv,2023-09-12_10h18.23.595,PainUncertainty,2022.2.5,143.05496744208773,
grave,moderee,stimuli/330Hz,stimuli/moderee,bloc_7,prob80hthp_12trials.xlsx,2,24,80,20,1,,,,,0,6,6,6,1,3,15,3,,,,,,,,4.3,1812.9156297999998,1817.2194615000008,1817.2193544800007,0.3051560000003519,1817.6666127000008,1817.6666127000008,m,0.9302342999999382,1820.860987,1820.860987,22,2.198,,,,,sub-046,70,135,700,bloc_loop.csv,2023-09-12_10h18.23.595,PainUncertainty,2022.2.5,143.05496744208773,
aigu,moderee,stimuli/660Hz,stimuli/moderee,bloc_7,prob80hthp_12trials.xlsx,2,24,80,20,1,,,,,0,6,6,6,1,4,16,11,,,,,,,,3.2,1820.860987,1824.0605051000002,1824.0607957800016,0.30455199999960314,1824.5048669000007,1824.5048669000007,n,0.654337599999053,1826.8395533000003,1826.8395533000003,18,1.608,,,,,sub-046,70,135,700,bloc_loop.csv,2023-09-12_10h18.23.595,PainUncertainty,2022.2.5,143.05496744208773,
aigu,forte,stimuli/660Hz,stimuli/forte,bloc_7,prob80hthp_12trials.xlsx,2,24,80,20,1,,,,,0,6,6,6,1,5,17,9,,,,,,,,3.2,1826.8395533000003,1830.0399104000007,1830.0400222800013,0.3050716999987344,1830.4842096000011,1830.4842096000011,m,0.6326925999983359,1835.0565542000004,1835.0565542000004,74,3.865,,,,,sub-046,70,135,700,bloc_loop.csv,2023-09-12_10h18.23.595,PainUncertainty,2022.2.5,143.05496744208773,
grave,moderee,stimuli/330Hz,stimuli/moderee,bloc_7,prob80hthp_12trials.xlsx,2,24,80,20,1,,,,,0,6,6,6,1,6,18,0,,,,,,,,4.3,1835.0565542000004,1839.3605038000005,1839.3604477800013,0.30503790000148,1839.8047432000003,1839.8047432000003,n,1.48537639999995,1842.6672885000007,1842.6672885000007,15,1.323,,,,,sub-046,70,135,700,bloc_loop.csv,2023-09-12_10h18.23.595,PainUncertainty,2022.2.5,143.05496744208773,
grave,moderee,stimuli/330Hz,stimuli/moderee,bloc_7,prob80hthp_12trials.xlsx,2,24,80,20,1,,,,,0,6,6,6,1,7,19,2,,,,,,,,3.1,1842.6672885000007,1845.7715234000007,1845.7716269800017,0.30485030000090774,1846.2179369000005,1846.2179369000005,n,0.6682532999984687,1851.0585895000004,1851.0585895000004,28,4.122,,,,,sub-046,70,135,700,bloc_loop.csv,2023-09-12_10h18.23.595,PainUncertainty,2022.2.5,143.05496744208773,
grave,moderee,stimuli/330Hz,stimuli/moderee,bloc_7,prob80hthp_12trials.xlsx,2,24,80,20,1,,,,,0,6,6,6,1,8,20,1,,,,,,,,4.7,1851.0585895000004,1855.7587589000013,1855.7586628800013,0.3051107999999658,1856.206694800001,1856.206694800001,n,0.6238897000002908,1858.8147503,1858.8147503,31,1.906,,,,,sub-046,70,135,700,bloc_loop.csv,2023-09-12_10h18.23.595,PainUncertainty,2022.2.5,143.05496744208773,
aigu,forte,stimuli/660Hz,stimuli/forte,bloc_7,prob80hthp_12trials.xlsx,2,24,80,20,1,,,,,0,6,6,6,1,9,21,8,,,,,,,,4.9,1858.8147503,1863.717668700001,1863.7176399800005,0.30509410000013304,1864.1618635000013,1864.1618635000013,m,1.0436391999992338,1868.3414849,1868.3414849,69,3.068,,,,,sub-046,70,135,700,bloc_loop.csv,2023-09-12_10h18.23.595,PainUncertainty,2022.2.5,143.05496744208773,
aigu,forte,stimuli/660Hz,stimuli/forte,bloc_7,prob80hthp_12trials.xlsx,2,24,80,20,1,,,,,0,6,6,6,1,10,22,10,,,,,,,,4.5,1868.3414849,1872.8439628000015,1872.8439231800016,0.30075119999855815,1873.2883232000004,1873.2883232000004,m,0.9056803999992553,1878.4116664000012,1878.4116664000012,81,4.164,,,,,sub-046,70,135,700,bloc_loop.csv,2023-09-12_10h18.23.595,PainUncertainty,2022.2.5,143.05496744208773,
aigu,forte,stimuli/660Hz,stimuli/forte,bloc_7,prob80hthp_12trials.xlsx,2,24,80,20,1,,,,,0,6,6,6,1,11,23,6,,,,,,,,3.8,1878.4116664000012,1882.2131708000015,1882.2130496800014,0.30469739999898593,1882.6570210999998,1882.6570210999998,m,1.4666502000000037,1888.2013530000004,1888.2013530000004,76,2.045,,,,,sub-046,70,135,700,bloc_loop.csv,2023-09-12_10h18.23.595,PainUncertainty,2022.2.5,143.05496744208773,
,,,,bloc_7,prob80hthp_12trials.xlsx,2,24,80,20,1,,,,,0,6,6,6,,,,,0,0,0,0,,,,,,,,,,,,,,,,,1888.2013530000004,1908.5774493000008,,,sub-046,70,135,700,bloc_loop.csv,2023-09-12_10h18.23.595,PainUncertainty,2022.2.5,143.05496744208773,
aigu,moderee,stimuli/660Hz,stimuli/moderee,bloc_8,prob50_50_4trials.xlsx,3,12,50,50,0,,,,,0,7,7,7,0,0,0,2,,,,,,,,3.4,1909.506205400001,1912.9110992000005,1912.9112137800016,0.30506719999903,1913.3572853000005,1913.3572853000005,n,0.5281384000008984,1916.3940730000013,1916.3940730000013,13,2.448,,,,,sub-046,70,135,700,bloc_loop.csv,2023-09-12_10h18.23.595,PainUncertainty,2022.2.5,143.05496744208773,
grave,moderee,stimuli/330Hz,stimuli/moderee,bloc_8,prob50_50_4trials.xlsx,3,12,50,50,0,,,,,0,7,7,7,0,1,1,0,,,,,,,,3.7,1916.3940730000013,1920.0995457000008,1920.0996470800014,0.30510230000072625,1920.5482870000014,1920.5482870000014,n,0.5472927000009804,1923.8454176000014,1923.8454176000014,12,2.67,,,,,sub-046,70,135,700,bloc_loop.csv,2023-09-12_10h18.23.595,PainUncertainty,2022.2.5,143.05496744208773,
aigu,forte,stimuli/660Hz,stimuli/forte,bloc_8,prob50_50_4trials.xlsx,3,12,50,50,0,,,,,0,7,7,7,0,2,2,3,,,,,,,,4.6,1923.8454176000014,1928.4477751000013,1928.4479400800005,0.30458639999960724,1928.8955653000012,1928.8955653000012,m,0.7741939999996248,1933.8667744000013,1933.8667744000013,70,4.136,,,,,sub-046,70,135,700,bloc_loop.csv,2023-09-12_10h18.23.595,PainUncertainty,2022.2.5,143.05496744208773,
grave,forte,stimuli/330Hz,stimuli/forte,bloc_8,prob50_50_4trials.xlsx,3,12,50,50,0,,,,,0,7,7,7,0,3,3,1,,,,,,,,3.1,1933.8667744000013,1936.9700528000012,1936.9694723800017,0.3048545000001468,1937.413568,1937.413568,m,1.0205186999992293,1939.3995582000007,1939.3995582000007,80,0.885,,,,,sub-046,70,135,700,bloc_loop.csv,2023-09-12_10h18.23.595,PainUncertainty,2022.2.5,143.05496744208773,
aigu,moderee,stimuli/660Hz,stimuli/moderee,bloc_8,prob50_50_4trials.xlsx,3,12,50,50,0,,,,,0,7,7,7,1,0,4,2,,,,,,,,4.7,1939.3995582000007,1944.1023017000007,1944.1022555800005,0.3050792000012734,1944.5533644000006,1944.5533644000006,n,0.5229712000000291,1946.0003186000013,1946.0003186000013,10,0.851,,,,,sub-046,70,135,700,bloc_loop.csv,2023-09-12_10h18.23.595,PainUncertainty,2022.2.5,143.05496744208773,
grave,forte,stimuli/330Hz,stimuli/forte,bloc_8,prob50_50_4trials.xlsx,3,12,50,50,0,,,,,0,7,7,7,1,1,5,1,,,,,,,,3.2,1946.0003186000013,1949.2004985000003,1949.2005636800018,0.304500399999597,1949.6440034000007,1949.6440034000007,m,0.9014150999992125,1951.4043089000006,1951.4043089000006,70,0.782,,,,,sub-046,70,135,700,bloc_loop.csv,2023-09-12_10h18.23.595,PainUncertainty,2022.2.5,143.05496744208773,
grave,moderee,stimuli/330Hz,stimuli/moderee,bloc_8,prob50_50_4trials.xlsx,3,12,50,50,0,,,,,0,7,7,7,1,2,6,0,,,,,,,,3.7,1951.4043089000006,1955.1032630999998,1955.1034294800006,0.30502049999995506,1955.5474326000003,1955.5474326000003,n,0.5723969000009674,1958.1197146000013,1958.1197146000013,23,1.92,,,,,sub-046,70,135,700,bloc_loop.csv,2023-09-12_10h18.23.595,PainUncertainty,2022.2.5,143.05496744208773,
aigu,forte,stimuli/660Hz,stimuli/forte,bloc_8,prob50_50_4trials.xlsx,3,12,50,50,0,,,,,0,7,7,7,1,3,7,3,,,,,,,,4.4,1958.1197146000013,1962.5208441000013,1962.5208348800002,0.30520549999891955,1962.9651567,1962.9651567,m,0.5026944000001095,1966.8781304000004,1966.8781304000004,85,3.33,,,,,sub-046,70,135,700,bloc_loop.csv,2023-09-12_10h18.23.595,PainUncertainty,2022.2.5,143.05496744208773,
aigu,moderee,stimuli/660Hz,stimuli/moderee,bloc_8,prob50_50_4trials.xlsx,3,12,50,50,0,,,,,0,7,7,7,2,0,8,2,,,,,,,,4,1966.8781304000004,1970.8829784000009,1970.8829476800015,0.30516239999997197,1971.3270895000005,1971.3270895000005,n,0.5897946000004595,1972.7773710000001,1972.7773710000001,10,0.782,,,,,sub-046,70,135,700,bloc_loop.csv,2023-09-12_10h18.23.595,PainUncertainty,2022.2.5,143.05496744208773,
aigu,forte,stimuli/660Hz,stimuli/forte,bloc_8,prob50_50_4trials.xlsx,3,12,50,50,0,,,,,0,7,7,7,2,1,9,3,,,,,,,,3,1972.7773710000001,1975.7797484000002,1975.77980858,0.3047330999997939,1976.2307536000008,1976.2307536000008,m,0.8884751000005053,1980.6576272000002,1980.6576272000002,68,3.475,,,,,sub-046,70,135,700,bloc_loop.csv,2023-09-12_10h18.23.595,PainUncertainty,2022.2.5,143.05496744208773,
grave,forte,stimuli/330Hz,stimuli/forte,bloc_8,prob50_50_4trials.xlsx,3,12,50,50,0,,,,,0,7,7,7,2,2,10,1,,,,,,,,3.9,1980.6576272000002,1984.5585578999999,1984.5583460800003,0.30532709999897634,1985.0057940000006,1985.0057940000006,m,0.7995299999984127,1986.7971182,1986.7971182,90,0.921,,,,,sub-046,70,135,700,bloc_loop.csv,2023-09-12_10h18.23.595,PainUncertainty,2022.2.5,143.05496744208773,
grave,moderee,stimuli/330Hz,stimuli/moderee,bloc_8,prob50_50_4trials.xlsx,3,12,50,50,0,,,,,0,7,7,7,2,3,11,0,,,,,,,,4,1986.7971182,1990.8018804000003,1990.8018567800004,0.3054852999994182,1991.2461140000014,1991.2461140000014,n,1.5509015999996336,1994.8045473000002,1994.8045473000002,13,1.948,,,,,sub-046,70,135,700,bloc_loop.csv,2023-09-12_10h18.23.595,PainUncertainty,2022.2.5,143.05496744208773,
aigu,moderee,stimuli/660Hz,stimuli/moderee,bloc_9,prob20hthp_12trials.xlsx,3,36,80,20,0,,,,,0,8,8,8,0,0,0,7,,,,,,,,3.5,1994.8045473000002,1998.3096825000011,1998.3098662800016,0.30459480000172334,1998.7576978000016,1998.7576978000016,n,1.0265296999987186,2004.2221292000013,2004.2221292000013,10,4.36,,,,,sub-046,70,135,700,bloc_loop.csv,2023-09-12_10h18.23.595,PainUncertainty,2022.2.5,143.05496744208773,
grave,forte,stimuli/330Hz,stimuli/forte,bloc_9,prob20hthp_12trials.xlsx,3,36,80,20,0,,,,,0,8,8,8,0,1,1,4,,,,,,,,4.3,2004.2221292000013,2008.5261760000012,2008.5261088800012,0.3051457000001392,2008.9703432000006,2008.9703432000006,m,1.090268300000389,2011.606882600001,2011.606882600001,80,1.468,,,,,sub-046,70,135,700,bloc_loop.csv,2023-09-12_10h18.23.595,PainUncertainty,2022.2.5,143.05496744208773,
grave,moderee,stimuli/330Hz,stimuli/moderee,bloc_9,prob20hthp_12trials.xlsx,3,36,80,20,0,,,,,0,8,8,8,0,2,2,5,,,,,,,,3,2011.606882600001,2014.6102355000003,2014.6103038800006,0.304911400000492,2015.0543519000003,2015.0543519000003,n,0.5553867999988142,2018.7844843000003,2018.7844843000003,21,3.1,,,,,sub-046,70,135,700,bloc_loop.csv,2023-09-12_10h18.23.595,PainUncertainty,2022.2.5,143.05496744208773,
aigu,forte,stimuli/660Hz,stimuli/forte,bloc_9,prob20hthp_12trials.xlsx,3,36,80,20,0,,,,,0,8,8,8,0,3,3,11,,,,,,,,4.6,2018.7844843000003,2023.389080500001,2023.3889830800013,0.30060860000048706,2023.8334613000006,2023.8334613000006,m,0.6596199000014167,2027.3053827000003,2027.3053827000003,90,2.746,,,,,sub-046,70,135,700,bloc_loop.csv,2023-09-12_10h18.23.595,PainUncertainty,2022.2.5,143.05496744208773,
aigu,moderee,stimuli/660Hz,stimuli/moderee,bloc_9,prob20hthp_12trials.xlsx,3,36,80,20,0,,,,,0,8,8,8,0,4,4,8,,,,,,,,3.2,2027.3053827000003,2030.5079549000002,2030.5081344800014,0.30524099999820464,2030.9569526000014,2030.9569526000014,n,0.5132376000001386,2032.884768,2032.884768,21,1.337,,,,,sub-046,70,135,700,bloc_loop.csv,2023-09-12_10h18.23.595,PainUncertainty,2022.2.5,143.05496744208773,
grave,forte,stimuli/330Hz,stimuli/forte,bloc_9,prob20hthp_12trials.xlsx,3,36,80,20,0,,,,,0,8,8,8,0,5,5,0,,,,,,,,4.2,2032.884768,2037.0851309999998,2037.0851618800002,0.30511920000026294,2037.533019800001,2037.533019800001,m,1.1211867000001803,2041.1793709000012,2041.1793709000012,81,2.447,,,,,sub-046,70,135,700,bloc_loop.csv,2023-09-12_10h18.23.595,PainUncertainty,2022.2.5,143.05496744208773,
aigu,moderee,stimuli/660Hz,stimuli/moderee,bloc_9,prob20hthp_12trials.xlsx,3,36,80,20,0,,,,,0,8,8,8,0,6,6,9,,,,,,,,4.1,2041.1793709000012,2045.2807887,2045.2825921800008,0.3035749000009673,2045.7282517000003,2045.7282517000003,n,0.5148607999999513,2047.7836809,2047.7836809,17,1.461,,,,,sub-046,70,135,700,bloc_loop.csv,2023-09-12_10h18.23.595,PainUncertainty,2022.2.5,143.05496744208773,
grave,forte,stimuli/330Hz,stimuli/forte,bloc_9,prob20hthp_12trials.xlsx,3,36,80,20,0,,,,,0,8,8,8,0,7,7,1,,,,,,,,5,2047.7836809,2052.7886210000015,2052.7886557800007,0.3049620000001596,2053.2323999,2053.2323999,m,0.583672499999011,2057.0373681,2057.0373681,80,3.17,,,,,sub-046,70,135,700,bloc_loop.csv,2023-09-12_10h18.23.595,PainUncertainty,2022.2.5,143.05496744208773,
grave,forte,stimuli/330Hz,stimuli/forte,bloc_9,prob20hthp_12trials.xlsx,3,36,80,20,0,,,,,0,8,8,8,0,8,8,2,,,,,,,,3.6,2057.0373681,2060.6367601,2060.6367957800007,0.30498309999893536,2061.0806034000016,2061.0806034000016,n,1.7433019999989483,2064.409416100001,2064.409416100001,38,1.506,,,,,sub-046,70,135,700,bloc_loop.csv,2023-09-12_10h18.23.595,PainUncertainty,2022.2.5,143.05496744208773,
aigu,moderee,stimuli/660Hz,stimuli/moderee,bloc_9,prob20hthp_12trials.xlsx,3,36,80,20,0,,,,,0,8,8,8,0,9,9,10,,,,,,,,4.9,2064.409416100001,2069.3112594000013,2069.3112300800017,0.3050893999989057,2069.755323200001,2069.755323200001,n,0.6096013999995193,2075.325906600001,2075.325906600001,17,4.893,,,,,sub-046,70,135,700,bloc_loop.csv,2023-09-12_10h18.23.595,PainUncertainty,2022.2.5,143.05496744208773,
grave,forte,stimuli/330Hz,stimuli/forte,bloc_9,prob20hthp_12trials.xlsx,3,36,80,20,0,,,,,0,8,8,8,0,10,10,3,,,,,,,,4.6,2075.325906600001,2079.9304595000012,2079.9305536800016,0.3049974999994447,2080.3746662000012,2080.3746662000012,m,0.6442382000004727,2085.1263356,2085.1263356,66,4.032,,,,,sub-046,70,135,700,bloc_loop.csv,2023-09-12_10h18.23.595,PainUncertainty,2022.2.5,143.05496744208773,
aigu,moderee,stimuli/660Hz,stimuli/moderee,bloc_9,prob20hthp_12trials.xlsx,3,36,80,20,0,,,,,0,8,8,8,0,11,11,6,,,,,,,,3.9,2085.1263356,2089.0287868000014,2089.0288222800004,0.3049081999997725,2089.4728608000005,2089.4728608000005,n,0.5857966000003216,2094.268733000001,2094.268733000001,18,4.143,,,,,sub-046,70,135,700,bloc_loop.csv,2023-09-12_10h18.23.595,PainUncertainty,2022.2.5,143.05496744208773,
aigu,moderee,stimuli/660Hz,stimuli/moderee,bloc_9,prob20hthp_12trials.xlsx,3,36,80,20,0,,,,,0,8,8,8,1,0,12,9,,,,,,,,4.3,2094.268733000001,2098.571420100001,2098.5715905800002,0.3052528000007442,2099.018191000001,2099.018191000001,n,0.9285836999988533,2102.5049401000015,2102.5049401000015,23,2.489,,,,,sub-046,70,135,700,bloc_loop.csv,2023-09-12_10h18.23.595,PainUncertainty,2022.2.5,143.05496744208773,
grave,forte,stimuli/330Hz,stimuli/forte,bloc_9,prob20hthp_12trials.xlsx,3,36,80,20,0,,,,,0,8,8,8,1,1,13,2,,,,,,,,4.3,2102.5049401000015,2106.8088821,2106.8090572800006,0.30484470000010333,2107.2553539,2107.2553539,m,1.3622116999995342,2110.1129028000014,2110.1129028000014,74,1.42,,,,,sub-046,70,135,700,bloc_loop.csv,2023-09-12_10h18.23.595,PainUncertainty,2022.2.5,143.05496744208773,
aigu,moderee,stimuli/660Hz,stimuli/moderee,bloc_9,prob20hthp_12trials.xlsx,3,36,80,20,0,,,,,0,8,8,8,1,2,14,8,,,,,,,,4,2110.1129028000014,2114.1149026000003,2114.114916580001,0.3005195999994612,2114.5598745000007,2114.5598745000007,n,1.0008461999987048,2119.7042930000007,2119.7042930000007,22,4.067,,,,,sub-046,70,135,700,bloc_loop.csv,2023-09-12_10h18.23.595,PainUncertainty,2022.2.5,143.05496744208773,
grave,forte,stimuli/330Hz,stimuli/forte,bloc_9,prob20hthp_12trials.xlsx,3,36,80,20,0,,,,,0,8,8,8,1,3,15,0,,,,,,,,4.4,2119.7042930000007,2124.1095981,2124.109737980001,0.3051051999991614,2124.5562666000005,2124.5562666000005,m,0.9260524000001169,2129.2641878000013,2129.2641878000013,63,3.705,,,,,sub-046,70,135,700,bloc_loop.csv,2023-09-12_10h18.23.595,PainUncertainty,2022.2.5,143.05496744208773,
aigu,moderee,stimuli/660Hz,stimuli/moderee,bloc_9,prob20hthp_12trials.xlsx,3,36,80,20,0,,,,,0,8,8,8,1,4,16,6,,,,,,,,3.9,2129.2641878000013,2133.1658615000015,2133.1658588800015,0.3050153999993199,2133.6148651000003,2133.6148651000003,n,0.5735936000000947,2135.8005629,2135.8005629,18,1.552,,,,,sub-046,70,135,700,bloc_loop.csv,2023-09-12_10h18.23.595,PainUncertainty,2022.2.5,143.05496744208773,
grave,moderee,stimuli/330Hz,stimuli/moderee,bloc_9,prob20hthp_12trials.xlsx,3,36,80,20,0,,,,,0,8,8,8,1,5,17,5,,,,,,,,3,2135.8005629,2138.8053556000013,2138.8054473800016,0.3048930000004475,2139.2496174000007,2139.2496174000007,n,0.5519568999989133,2143.8742970000003,2143.8742970000003,28,4.003,,,,,sub-046,70,135,700,bloc_loop.csv,2023-09-12_10h18.23.595,PainUncertainty,2022.2.5,143.05496744208773,
grave,forte,stimuli/330Hz,stimuli/forte,bloc_9,prob20hthp_12trials.xlsx,3,36,80,20,0,,,,,0,8,8,8,1,6,18,4,,,,,,,,3.2,2143.8742970000003,2147.077104400001,2147.07714058,0.3052064999992581,2147.5213940000012,2147.5213940000012,m,0.9368451999998797,2153.0664589000007,2153.0664589000007,86,4.536,,,,,sub-046,70,135,700,bloc_loop.csv,2023-09-12_10h18.23.595,PainUncertainty,2022.2.5,143.05496744208773,
aigu,moderee,stimuli/660Hz,stimuli/moderee,bloc_9,prob20hthp_12trials.xlsx,3,36,80,20,0,,,,,0,8,8,8,1,7,19,10,,,,,,,,3.6,2153.0664589000007,2156.6685026000014,2156.6686926800007,0.3049166000000696,2157.1127468000013,2157.1127468000013,n,0.5454043000008824,2161.316007900001,2161.316007900001,33,3.587,,,,,sub-046,70,135,700,bloc_loop.csv,2023-09-12_10h18.23.595,PainUncertainty,2022.2.5,143.05496744208773,
aigu,forte,stimuli/660Hz,stimuli/forte,bloc_9,prob20hthp_12trials.xlsx,3,36,80,20,0,,,,,0,8,8,8,1,8,20,11,,,,,,,,3.3,2161.316007900001,2164.6208819000003,2164.6208852800005,0.30516830000124173,2165.065879400001,2165.065879400001,m,0.9919080999989092,2170.9547469999998,2170.9547469999998,78,4.845,,,,,sub-046,70,135,700,bloc_loop.csv,2023-09-12_10h18.23.595,PainUncertainty,2022.2.5,143.05496744208773,
grave,forte,stimuli/330Hz,stimuli/forte,bloc_9,prob20hthp_12trials.xlsx,3,36,80,20,0,,,,,0,8,8,8,1,9,21,1,,,,,,,,4.9,2170.9547469999998,2175.8584760000012,2175.8583393800013,0.30557319999934407,2176.3068951000005,2176.3068951000005,m,0.7054189999998925,2181.2006594000013,2181.2006594000013,91,4.114,,,,,sub-046,70,135,700,bloc_loop.csv,2023-09-12_10h18.23.595,PainUncertainty,2022.2.5,143.05496744208773,
aigu,moderee,stimuli/660Hz,stimuli/moderee,bloc_9,prob20hthp_12trials.xlsx,3,36,80,20,0,,,,,0,8,8,8,1,10,22,7,,,,,,,,4,2181.2006594000013,2185.1996241000015,2185.1997819800013,0.3049886000007973,2185.6440188000015,2185.6440188000015,n,0.5546415000007983,2191.976547100001,2191.976547100001,15,5.698,,,,,sub-046,70,135,700,bloc_loop.csv,2023-09-12_10h18.23.595,PainUncertainty,2022.2.5,143.05496744208773,
grave,forte,stimuli/330Hz,stimuli/forte,bloc_9,prob20hthp_12trials.xlsx,3,36,80,20,0,,,,,0,8,8,8,1,11,23,3,,,,,,,,4.4,2191.976547100001,2196.3820385,2196.38185818,0.3054377000007662,2196.8303376000003,2196.8303376000003,m,0.6340882000004058,2198.4977228000007,2198.4977228000007,80,0.969,,,,,sub-046,70,135,700,bloc_loop.csv,2023-09-12_10h18.23.595,PainUncertainty,2022.2.5,143.05496744208773,
grave,forte,stimuli/330Hz,stimuli/forte,bloc_9,prob20hthp_12trials.xlsx,3,36,80,20,0,,,,,0,8,8,8,2,0,24,4,,,,,,,,3.7,2198.4977228000007,2202.201695900001,2202.20173208,0.30465709999953106,2202.6461788000015,2202.6461788000015,m,0.9364201999997022,2207.564362700001,2207.564362700001,73,3.899,,,,,sub-046,70,135,700,bloc_loop.csv,2023-09-12_10h18.23.595,PainUncertainty,2022.2.5,143.05496744208773,
aigu,moderee,stimuli/660Hz,stimuli/moderee,bloc_9,prob20hthp_12trials.xlsx,3,36,80,20,0,,,,,0,8,8,8,2,1,25,6,,,,,,,,4.7,2207.564362700001,2212.2653498,2212.265485380001,0.30468330000076094,2212.7095046000013,2212.7095046000013,n,0.5924974999998085,2217.9376159000003,2217.9376159000003,24,4.557,,,,,sub-046,70,135,700,bloc_loop.csv,2023-09-12_10h18.23.595,PainUncertainty,2022.2.5,143.05496744208773,
aigu,forte,stimuli/660Hz,stimuli/forte,bloc_9,prob20hthp_12trials.xlsx,3,36,80,20,0,,,,,0,8,8,8,2,2,26,11,,,,,,,,3.1,2217.9376159000003,2221.037718200001,2221.0377860800013,0.30499020000024757,2221.481636100001,2221.481636100001,m,1.1693217999982153,2224.4909193000003,2224.4909193000003,77,1.76,,,,,sub-046,70,135,700,bloc_loop.csv,2023-09-12_10h18.23.595,PainUncertainty,2022.2.5,143.05496744208773,
grave,moderee,stimuli/330Hz,stimuli/moderee,bloc_9,prob20hthp_12trials.xlsx,3,36,80,20,0,,,,,0,8,8,8,2,3,27,5,,,,,,,,3.8,2224.4909193000003,2228.2949644,2228.295036180001,0.30596049999985553,2228.743931500001,2228.743931500001,n,0.592323299999407,2233.043777500001,2233.043777500001,21,3.642,,,,,sub-046,70,135,700,bloc_loop.csv,2023-09-12_10h18.23.595,PainUncertainty,2022.2.5,143.05496744208773,
grave,forte,stimuli/330Hz,stimuli/forte,bloc_9,prob20hthp_12trials.xlsx,3,36,80,20,0,,,,,0,8,8,8,2,4,28,0,,,,,,,,3.9,2233.043777500001,2236.949249000001,2236.9490408800007,0.30561110000053304,2237.3974526,2237.3974526,m,1.1285370999994484,2240.0478089000007,2240.0478089000007,81,1.448,,,,,sub-046,70,135,700,bloc_loop.csv,2023-09-12_10h18.23.595,PainUncertainty,2022.2.5,143.05496744208773,
aigu,moderee,stimuli/660Hz,stimuli/moderee,bloc_9,prob20hthp_12trials.xlsx,3,36,80,20,0,,,,,0,8,8,8,2,5,29,8,,,,,,,,3.5,2240.0478089000007,2243.5468471000004,2243.5468222800005,0.3050330000005488,2243.9945716,2243.9945716,n,0.8556709999993473,2249.0631005000014,2249.0631005000014,20,4.136,,,,,sub-046,70,135,700,bloc_loop.csv,2023-09-12_10h18.23.595,PainUncertainty,2022.2.5,143.05496744208773,
grave,forte,stimuli/330Hz,stimuli/forte,bloc_9,prob20hthp_12trials.xlsx,3,36,80,20,0,,,,,0,8,8,8,2,6,30,2,,,,,,,,3.6,2249.0631005000014,2252.6659098,2252.666002880001,0.30492340000091644,2253.117393800001,2253.117393800001,m,0.983480499999132,2258.9084461,2258.9084461,38,4.754,,,,,sub-046,70,135,700,bloc_loop.csv,2023-09-12_10h18.23.595,PainUncertainty,2022.2.5,143.05496744208773,
grave,forte,stimuli/330Hz,stimuli/forte,bloc_9,prob20hthp_12trials.xlsx,3,36,80,20,0,,,,,0,8,8,8,2,7,31,3,,,,,,,,4,2258.9084461,2262.910424900001,2262.9106381800007,0.3046967999998742,2263.3542782000004,2263.3542782000004,m,2.2485636999990675,2267.7813296000004,2267.7813296000004,52,2.107,,,,,sub-046,70,135,700,bloc_loop.csv,2023-09-12_10h18.23.595,PainUncertainty,2022.2.5,143.05496744208773,
aigu,moderee,stimuli/660Hz,stimuli/moderee,bloc_9,prob20hthp_12trials.xlsx,3,36,80,20,0,,,,,0,8,8,8,2,8,32,7,,,,,,,,3.5,2267.7813296000004,2271.2862331000015,2271.286211080001,0.30494659999931173,2271.731078300001,2271.731078300001,n,0.6968381999995472,2275.8869355000006,2275.8869355000006,11,3.406,,,,,sub-046,70,135,700,bloc_loop.csv,2023-09-12_10h18.23.595,PainUncertainty,2022.2.5,143.05496744208773,
aigu,moderee,stimuli/660Hz,stimuli/moderee,bloc_9,prob20hthp_12trials.xlsx,3,36,80,20,0,,,,,0,8,8,8,2,9,33,10,,,,,,,,4.8,2275.8869355000006,2280.690070300001,2280.690279080001,0.3048220000000583,2281.1343046,2281.1343046,n,0.7501582999993843,2285.9570356000004,2285.9570356000004,16,4.025,,,,,sub-046,70,135,700,bloc_loop.csv,2023-09-12_10h18.23.595,PainUncertainty,2022.2.5,143.05496744208773,
aigu,moderee,stimuli/660Hz,stimuli/moderee,bloc_9,prob20hthp_12trials.xlsx,3,36,80,20,0,,,,,0,8,8,8,2,10,34,9,,,,,,,,4,2285.9570356000004,2289.9622893000014,2289.962403180001,0.3050567000009323,2290.4082869000013,2290.4082869000013,n,1.2600138999987394,2293.3760222,2293.3760222,25,1.635,,,,,sub-046,70,135,700,bloc_loop.csv,2023-09-12_10h18.23.595,PainUncertainty,2022.2.5,143.05496744208773,
grave,forte,stimuli/330Hz,stimuli/forte,bloc_9,prob20hthp_12trials.xlsx,3,36,80,20,0,,,,,0,8,8,8,2,11,35,1,,,,,,,,3.6,2293.3760222,2296.976721000001,2296.9768956800012,0.30489289999968605,2297.4232865000013,2297.4232865000013,m,0.7474454000002879,2302.5237492000015,2302.5237492000015,80,4.33,,,,,sub-046,70,135,700,bloc_loop.csv,2023-09-12_10h18.23.595,PainUncertainty,2022.2.5,143.05496744208773,
