cue_,stimulus_,cue_fichier,stimulus_fichier,block_name,block_trials_file,block_n_reps,block_ntrials,block_prob_highP_highT,block_prob_highP_lowT,block_pause_after,Bloc_essai.thisRepN,Bloc_essai.thisTrialN,Bloc_essai.thisN,Bloc_essai.thisIndex,blocks.thisRepN,blocks.thisTrialN,blocks.thisN,blocks.thisIndex,trials.thisRepN,trials.thisTrialN,trials.thisN,trials.thisIndex,pause_loop.thisRepN,pause_loop.thisTrialN,pause_loop.thisN,pause_loop.thisIndex,key_resp_5.started,start_calib.started,key_resp_2.started,ISI_duration,pause.started,pause.stopped,cue.started,ISI.started,choice_pain.started,Choice.started,choice_pain.keys,choice_pain.rt,main_text.started,confirm_text.started,ratingScale.response,ratingScale.rt,key_resp_3.started,key_resp_6.started,participant,low_ma,high_ma,failsafe_ma,block_file,date,expName,psychopyVersion,frameRate,
grave,moderee,stimuli/330Hz,stimuli/moderee,,,,,,,,0,0,0,0,,,,,,,,,,,,,30.43659340000022,32.69118389999994,42.00510510000004,4.5,45.52794660000018,50.02965510000013,50.033814900000195,0.3012533999999505,50.4714355000001,50.4714355000001,n,0.8557974000000286,53.865902200000164,53.865902200000164,22,2.442,,,sub-028,55,110,700,bloc_loop.csv,2023-06-21_08h34.44.889,PainUncertainty,2022.2.5,144.19444332306034,
aigu,forte,stimuli/660Hz,stimuli/forte,,,,,,,,0,1,1,3,,,,,,,,,,,,,,,,4.6,53.865902200000164,58.46592260000034,58.4660627000002,0.30475780000006125,58.91239489999998,58.91239489999998,m,0.8441991999998208,62.0176891000001,62.0176891000001,50,2.184,,,sub-028,55,110,700,bloc_loop.csv,2023-06-21_08h34.44.889,PainUncertainty,2022.2.5,144.19444332306034,
aigu,moderee,stimuli/660Hz,stimuli/moderee,,,,,,,,0,2,2,2,,,,,,,,,,,,,,,,4.9,62.0176891000001,66.91991250000001,66.91815119999993,0.3049026000003323,67.3619990000002,67.3619990000002,n,1.411607400000321,73.3331148000002,73.3331148000002,18,4.482,,,sub-028,55,110,700,bloc_loop.csv,2023-06-21_08h34.44.889,PainUncertainty,2022.2.5,144.19444332306034,
grave,forte,stimuli/330Hz,stimuli/forte,,,,,,,,0,3,3,1,,,,,,,,,,,,,,,,5,73.3331148000002,78.33640659999992,78.33630710000025,0.30533180000020366,78.78280450000011,78.78280450000011,m,0.6045742999999675,83.20262700000012,83.20262700000012,50,3.788,,,sub-028,55,110,700,bloc_loop.csv,2023-06-21_08h34.44.889,PainUncertainty,2022.2.5,144.19444332306034,
grave,forte,stimuli/330Hz,stimuli/forte,bloc_1,prob20hthp_12trials.xlsx,4,48,20,80,0,,,,,0,0,0,0,0,0,0,1,,,,,,,,3,139.7833329,142.78829470000028,142.78823679999996,0.3050853999998253,143.2326068000002,143.2326068000002,m,0.918694499999674,147.34426359999998,147.34426359999998,49,3.108,,,sub-028,55,110,700,bloc_loop.csv,2023-06-21_08h34.44.889,PainUncertainty,2022.2.5,144.19444332306034,
grave,moderee,stimuli/330Hz,stimuli/moderee,bloc_1,prob20hthp_12trials.xlsx,4,48,20,80,0,,,,,0,0,0,0,0,1,1,5,,,,,,,,3.7,147.34426359999998,151.04645710000023,151.04625920000026,0.3051282999999785,151.49039660000017,151.49039660000017,n,0.649671600000147,154.24851850000005,154.24851850000005,15,2.046,,,sub-028,55,110,700,bloc_loop.csv,2023-06-21_08h34.44.889,PainUncertainty,2022.2.5,144.19444332306034,
aigu,moderee,stimuli/660Hz,stimuli/moderee,bloc_1,prob20hthp_12trials.xlsx,4,48,20,80,0,,,,,0,0,0,0,0,2,2,9,,,,,,,,4.1,154.24851850000005,158.35306570000012,158.35299909999995,0.3049240999998801,158.7968919,158.7968919,n,0.6716123999999581,162.64086410000027,162.64086410000027,14,3.101,,,sub-028,55,110,700,bloc_loop.csv,2023-06-21_08h34.44.889,PainUncertainty,2022.2.5,144.19444332306034,
grave,forte,stimuli/330Hz,stimuli/forte,bloc_1,prob20hthp_12trials.xlsx,4,48,20,80,0,,,,,0,0,0,0,0,3,3,4,,,,,,,,3.2,162.64086410000027,165.84664360000033,165.84668430000002,0.3049754999997276,166.29081829999996,166.29081829999996,m,0.7859665000000859,170.85824559999992,170.85824559999992,48,3.706,,,sub-028,55,110,700,bloc_loop.csv,2023-06-21_08h34.44.889,PainUncertainty,2022.2.5,144.19444332306034,
aigu,moderee,stimuli/660Hz,stimuli/moderee,bloc_1,prob20hthp_12trials.xlsx,4,48,20,80,0,,,,,0,0,0,0,0,4,4,6,,,,,,,,3.6,170.85824559999992,174.4589493000003,174.45873640000028,0.3067755000001853,174.91053030000012,174.91053030000012,n,0.5984844999998131,178.09788509999998,178.09788509999998,14,2.531,,,sub-028,55,110,700,bloc_loop.csv,2023-06-21_08h34.44.889,PainUncertainty,2022.2.5,144.19444332306034,
aigu,moderee,stimuli/660Hz,stimuli/moderee,bloc_1,prob20hthp_12trials.xlsx,4,48,20,80,0,,,,,0,0,0,0,0,5,5,7,,,,,,,,4.5,178.09788509999998,182.59858750000012,182.59849680000016,0.30520739999974467,183.04287109999996,183.04287109999996,n,2.087201300000288,189.31944939999994,189.31944939999994,15,4.122,,,sub-028,55,110,700,bloc_loop.csv,2023-06-21_08h34.44.889,PainUncertainty,2022.2.5,144.19444332306034,
grave,forte,stimuli/330Hz,stimuli/forte,bloc_1,prob20hthp_12trials.xlsx,4,48,20,80,0,,,,,0,0,0,0,0,6,6,2,,,,,,,,3.2,189.31944939999994,192.52355290000014,192.52345750000032,0.2996769999999742,192.96834040000022,192.96834040000022,m,0.7446471999996902,195.90742640000008,195.90742640000008,46,2.135,,,sub-028,55,110,700,bloc_loop.csv,2023-06-21_08h34.44.889,PainUncertainty,2022.2.5,144.19444332306034,
aigu,forte,stimuli/660Hz,stimuli/forte,bloc_1,prob20hthp_12trials.xlsx,4,48,20,80,0,,,,,0,0,0,0,0,7,7,11,,,,,,,,4.5,195.90742640000008,200.4067731,200.40682910000024,0.30514750000020285,200.85359240000025,200.85359240000025,m,0.6501260000000002,203.8997875,203.8997875,50,2.318,,,sub-028,55,110,700,bloc_loop.csv,2023-06-21_08h34.44.889,PainUncertainty,2022.2.5,144.19444332306034,
aigu,moderee,stimuli/660Hz,stimuli/moderee,bloc_1,prob20hthp_12trials.xlsx,4,48,20,80,0,,,,,0,0,0,0,0,8,8,8,,,,,,,,4.1,203.8997875,208.00449230000004,208.00442200000035,0.305135799999789,208.44875930000035,208.44875930000035,n,0.5506616000002396,213.93614650000018,213.93614650000018,14,4.872,,,sub-028,55,110,700,bloc_loop.csv,2023-06-21_08h34.44.889,PainUncertainty,2022.2.5,144.19444332306034,
aigu,moderee,stimuli/660Hz,stimuli/moderee,bloc_1,prob20hthp_12trials.xlsx,4,48,20,80,0,,,,,0,0,0,0,0,9,9,10,,,,,,,,3.9,213.93614650000018,217.83954140000014,217.83946050000023,0.305179599999974,218.28544220000003,218.28544220000003,n,0.9711373999998614,222.72797200000014,222.72797200000014,11,3.399,,,sub-028,55,110,700,bloc_loop.csv,2023-06-21_08h34.44.889,PainUncertainty,2022.2.5,144.19444332306034,
grave,forte,stimuli/330Hz,stimuli/forte,bloc_1,prob20hthp_12trials.xlsx,4,48,20,80,0,,,,,0,0,0,0,0,10,10,3,,,,,,,,4.3,222.72797200000014,227.0277761000002,227.02765609999997,0.30511299999989205,227.47419260000015,227.47419260000015,m,0.6439632999999958,231.02428280000004,231.02428280000004,45,2.857,,,sub-028,55,110,700,bloc_loop.csv,2023-06-21_08h34.44.889,PainUncertainty,2022.2.5,144.19444332306034,
grave,forte,stimuli/330Hz,stimuli/forte,bloc_1,prob20hthp_12trials.xlsx,4,48,20,80,0,,,,,0,0,0,0,0,11,11,0,,,,,,,,3.6,231.02428280000004,234.6258729000001,234.62590630000014,0.30500679999977365,235.07001200000013,235.07001200000013,m,0.579231499999878,237.90042790000007,237.90042790000007,44,2.169,,,sub-028,55,110,700,bloc_loop.csv,2023-06-21_08h34.44.889,PainUncertainty,2022.2.5,144.19444332306034,
aigu,moderee,stimuli/660Hz,stimuli/moderee,bloc_1,prob20hthp_12trials.xlsx,4,48,20,80,0,,,,,0,0,0,0,1,0,12,8,,,,,,,,3.4,237.90042790000007,241.3022178000001,241.300979,0.30029930000000604,241.74520260000008,241.74520260000008,n,1.0352006000002802,245.8438484000003,245.8438484000003,11,2.988,,,sub-028,55,110,700,bloc_loop.csv,2023-06-21_08h34.44.889,PainUncertainty,2022.2.5,144.19444332306034,
grave,forte,stimuli/330Hz,stimuli/forte,bloc_1,prob20hthp_12trials.xlsx,4,48,20,80,0,,,,,0,0,0,0,1,1,13,3,,,,,,,,3.5,245.8438484000003,249.34356520000028,249.3435665000001,0.30497860000014043,249.78970830000026,249.78970830000026,m,0.6940331999999216,252.6691390000001,252.6691390000001,44,2.115,,,sub-028,55,110,700,bloc_loop.csv,2023-06-21_08h34.44.889,PainUncertainty,2022.2.5,144.19444332306034,
grave,forte,stimuli/330Hz,stimuli/forte,bloc_1,prob20hthp_12trials.xlsx,4,48,20,80,0,,,,,0,0,0,0,1,2,14,4,,,,,,,,4.5,252.6691390000001,257.17037800000026,257.1703900000001,0.3049020000003111,257.61454890000005,257.61454890000005,m,0.6479748000001564,260.5973137000001,260.5973137000001,47,2.267,,,sub-028,55,110,700,bloc_loop.csv,2023-06-21_08h34.44.889,PainUncertainty,2022.2.5,144.19444332306034,
grave,forte,stimuli/330Hz,stimuli/forte,bloc_1,prob20hthp_12trials.xlsx,4,48,20,80,0,,,,,0,0,0,0,1,3,15,2,,,,,,,,3.6,260.5973137000001,264.19911120000006,264.1990601000001,0.305052600000181,264.64587470000015,264.64587470000015,m,0.6803080999998201,268.30036229999996,268.30036229999996,49,2.907,,,sub-028,55,110,700,bloc_loop.csv,2023-06-21_08h34.44.889,PainUncertainty,2022.2.5,144.19444332306034,
grave,forte,stimuli/330Hz,stimuli/forte,bloc_1,prob20hthp_12trials.xlsx,4,48,20,80,0,,,,,0,0,0,0,1,4,16,1,,,,,,,,3.4,268.30036229999996,271.7004872000002,271.70020200000033,0.3052993000001152,272.1471710999999,272.1471710999999,m,0.5427996999997049,275.0480241,275.0480241,45,2.288,,,sub-028,55,110,700,bloc_loop.csv,2023-06-21_08h34.44.889,PainUncertainty,2022.2.5,144.19444332306034,
aigu,moderee,stimuli/660Hz,stimuli/moderee,bloc_1,prob20hthp_12trials.xlsx,4,48,20,80,0,,,,,0,0,0,0,1,5,17,6,,,,,,,,4.3,275.0480241,279.3467582000003,279.3473187000003,0.30444089999991775,279.79087240000035,279.79087240000035,n,0.5357791000001271,284.19015609999997,284.19015609999997,15,3.789,,,sub-028,55,110,700,bloc_loop.csv,2023-06-21_08h34.44.889,PainUncertainty,2022.2.5,144.19444332306034,
grave,forte,stimuli/330Hz,stimuli/forte,bloc_1,prob20hthp_12trials.xlsx,4,48,20,80,0,,,,,0,0,0,0,1,6,18,0,,,,,,,,3.1,284.19015609999997,287.2920515999999,287.29210180000007,0.30499140000029,287.7361794000003,287.7361794000003,m,0.5616946000000098,291.2237132,291.2237132,47,2.858,,,sub-028,55,110,700,bloc_loop.csv,2023-06-21_08h34.44.889,PainUncertainty,2022.2.5,144.19444332306034,
grave,moderee,stimuli/330Hz,stimuli/moderee,bloc_1,prob20hthp_12trials.xlsx,4,48,20,80,0,,,,,0,0,0,0,1,7,19,5,,,,,,,,4.7,291.2237132,295.9251068000003,295.92508699999996,0.30612549999978,296.3730620000001,296.3730620000001,n,0.5380669999999554,299.99748660000023,299.99748660000023,13,3.039,,,sub-028,55,110,700,bloc_loop.csv,2023-06-21_08h34.44.889,PainUncertainty,2022.2.5,144.19444332306034,
aigu,moderee,stimuli/660Hz,stimuli/moderee,bloc_1,prob20hthp_12trials.xlsx,4,48,20,80,0,,,,,0,0,0,0,1,8,20,10,,,,,,,,4.1,299.99748660000023,304.09961360000034,304.0996761,0.30179229999976087,304.54445110000006,304.54445110000006,n,0.5460557000001245,308.80667829999993,308.80667829999993,10,3.643,,,sub-028,55,110,700,bloc_loop.csv,2023-06-21_08h34.44.889,PainUncertainty,2022.2.5,144.19444332306034,
aigu,forte,stimuli/660Hz,stimuli/forte,bloc_1,prob20hthp_12trials.xlsx,4,48,20,80,0,,,,,0,0,0,0,1,9,21,11,,,,,,,,3.9,308.80667829999993,312.7118121000003,312.7118793000003,0.3047371999996358,313.1568107000003,313.1568107000003,m,0.5991831000001184,317.0888689000003,317.0888689000003,44,3.255,,,sub-028,55,110,700,bloc_loop.csv,2023-06-21_08h34.44.889,PainUncertainty,2022.2.5,144.19444332306034,
aigu,moderee,stimuli/660Hz,stimuli/moderee,bloc_1,prob20hthp_12trials.xlsx,4,48,20,80,0,,,,,0,0,0,0,1,10,22,7,,,,,,,,3.6,317.0888689000003,320.6921976000003,320.69225280000035,0.30475559999968027,321.13621749999993,321.13621749999993,n,0.7822194999998828,327.82918510000036,327.82918510000036,13,5.853,,,sub-028,55,110,700,bloc_loop.csv,2023-06-21_08h34.44.889,PainUncertainty,2022.2.5,144.19444332306034,
aigu,moderee,stimuli/660Hz,stimuli/moderee,bloc_1,prob20hthp_12trials.xlsx,4,48,20,80,0,,,,,0,0,0,0,1,11,23,9,,,,,,,,3,327.82918510000036,330.83219869999994,330.8321400000003,0.30499589999999444,331.27635499999997,331.27635499999997,n,0.996732399999928,336.36536509999996,336.36536509999996,13,4.019,,,sub-028,55,110,700,bloc_loop.csv,2023-06-21_08h34.44.889,PainUncertainty,2022.2.5,144.19444332306034,
grave,forte,stimuli/330Hz,stimuli/forte,bloc_1,prob20hthp_12trials.xlsx,4,48,20,80,0,,,,,0,0,0,0,2,0,24,2,,,,,,,,4.2,336.36536509999996,340.56933370000024,340.5692090000001,0.3057420000000093,341.0164801000001,341.0164801000001,m,1.4148792999999387,346.0671421000002,346.0671421000002,44,3.573,,,sub-028,55,110,700,bloc_loop.csv,2023-06-21_08h34.44.889,PainUncertainty,2022.2.5,144.19444332306034,
grave,forte,stimuli/330Hz,stimuli/forte,bloc_1,prob20hthp_12trials.xlsx,4,48,20,80,0,,,,,0,0,0,0,2,1,25,4,,,,,,,,4.5,346.0671421000002,350.5710919000003,350.5710780000003,0.3001398999999765,351.0154394000001,351.0154394000001,m,0.6186198000000331,353.1641265000003,353.1641265000003,45,1.467,,,sub-028,55,110,700,bloc_loop.csv,2023-06-21_08h34.44.889,PainUncertainty,2022.2.5,144.19444332306034,
grave,forte,stimuli/330Hz,stimuli/forte,bloc_1,prob20hthp_12trials.xlsx,4,48,20,80,0,,,,,0,0,0,0,2,2,26,0,,,,,,,,3.1,353.1641265000003,356.2661495000002,356.26616,0.30482619999975213,356.7102140000002,356.7102140000002,m,0.4963377999997647,359.30241909999995,359.30241909999995,47,2.037,,,sub-028,55,110,700,bloc_loop.csv,2023-06-21_08h34.44.889,PainUncertainty,2022.2.5,144.19444332306034,
aigu,forte,stimuli/660Hz,stimuli/forte,bloc_1,prob20hthp_12trials.xlsx,4,48,20,80,0,,,,,0,0,0,0,2,3,27,11,,,,,,,,3.9,359.30241909999995,363.20478860000003,363.2046729000002,0.30509699999993245,363.6515334999999,363.6515334999999,m,0.6262951999997313,367.7448260000001,367.7448260000001,41,3.387,,,sub-028,55,110,700,bloc_loop.csv,2023-06-21_08h34.44.889,PainUncertainty,2022.2.5,144.19444332306034,
aigu,moderee,stimuli/660Hz,stimuli/moderee,bloc_1,prob20hthp_12trials.xlsx,4,48,20,80,0,,,,,0,0,0,0,2,4,28,6,,,,,,,,3.5,367.7448260000001,371.24690710000004,371.2468536,0.30503749999979846,371.6908645000003,371.6908645000003,n,0.5735030000000734,376.34322180000026,376.34322180000026,13,4.018,,,sub-028,55,110,700,bloc_loop.csv,2023-06-21_08h34.44.889,PainUncertainty,2022.2.5,144.19444332306034,
aigu,moderee,stimuli/660Hz,stimuli/moderee,bloc_1,prob20hthp_12trials.xlsx,4,48,20,80,0,,,,,0,0,0,0,2,5,29,8,,,,,,,,4.6,376.34322180000026,380.94253830000025,380.9425094000002,0.3052560999999514,381.3892804000002,381.3892804000002,n,0.6016342999996596,386.0794622000003,386.0794622000003,10,2.97,,,sub-028,55,110,700,bloc_loop.csv,2023-06-21_08h34.44.889,PainUncertainty,2022.2.5,144.19444332306034,
aigu,moderee,stimuli/660Hz,stimuli/moderee,bloc_1,prob20hthp_12trials.xlsx,4,48,20,80,0,,,,,0,0,0,0,2,6,30,7,,,,,,,,4.1,386.0794622000003,390.1797042000003,390.17962380000006,0.30532069999981104,390.6239154,390.6239154,n,0.4365552999997817,395.47638810000035,395.47638810000035,12,4.357,,,sub-028,55,110,700,bloc_loop.csv,2023-06-21_08h34.44.889,PainUncertainty,2022.2.5,144.19444332306034,
aigu,moderee,stimuli/660Hz,stimuli/moderee,bloc_1,prob20hthp_12trials.xlsx,4,48,20,80,0,,,,,0,0,0,0,2,7,31,10,,,,,,,,4.8,395.47638810000035,400.2781944000003,400.2780448000002,0.3052765000002182,400.7250551000002,400.7250551000002,n,0.47073050000017247,404.99026460000005,404.99026460000005,12,3.719,,,sub-028,55,110,700,bloc_loop.csv,2023-06-21_08h34.44.889,PainUncertainty,2022.2.5,144.19444332306034,
grave,forte,stimuli/330Hz,stimuli/forte,bloc_1,prob20hthp_12trials.xlsx,4,48,20,80,0,,,,,0,0,0,0,2,8,32,3,,,,,,,,4.2,404.99026460000005,409.19580859999996,409.19574709999995,0.3053093000003173,409.6399080000001,409.6399080000001,m,0.5405830999998216,413.74924680000004,413.74924680000004,46,3.503,,,sub-028,55,110,700,bloc_loop.csv,2023-06-21_08h34.44.889,PainUncertainty,2022.2.5,144.19444332306034,
grave,forte,stimuli/330Hz,stimuli/forte,bloc_1,prob20hthp_12trials.xlsx,4,48,20,80,0,,,,,0,0,0,0,2,9,33,1,,,,,,,,3.6,413.74924680000004,417.34965349999993,417.3497245000002,0.3051306999996086,417.7940367000001,417.7940367000001,m,0.5523616999998922,420.20663809999996,420.20663809999996,46,1.783,,,sub-028,55,110,700,bloc_loop.csv,2023-06-21_08h34.44.889,PainUncertainty,2022.2.5,144.19444332306034,
aigu,moderee,stimuli/660Hz,stimuli/moderee,bloc_1,prob20hthp_12trials.xlsx,4,48,20,80,0,,,,,0,0,0,0,2,10,34,9,,,,,,,,4.5,420.20663809999996,424.71216760000016,424.71214780000025,0.300774199999978,425.1562882000003,425.1562882000003,n,0.4948804000000564,428.9972606000001,428.9972606000001,12,3.282,,,sub-028,55,110,700,bloc_loop.csv,2023-06-21_08h34.44.889,PainUncertainty,2022.2.5,144.19444332306034,
grave,moderee,stimuli/330Hz,stimuli/moderee,bloc_1,prob20hthp_12trials.xlsx,4,48,20,80,0,,,,,0,0,0,0,2,11,35,5,,,,,,,,4.8,428.9972606000001,433.79637930000035,433.79631860000006,0.29923379999991084,434.2345674000003,434.2345674000003,n,0.4835422999999537,439.48557630000005,439.48557630000005,9,4.685,,,sub-028,55,110,700,bloc_loop.csv,2023-06-21_08h34.44.889,PainUncertainty,2022.2.5,144.19444332306034,
grave,forte,stimuli/330Hz,stimuli/forte,bloc_1,prob20hthp_12trials.xlsx,4,48,20,80,0,,,,,0,0,0,0,3,0,36,4,,,,,,,,3,439.48557630000005,442.48466899999994,442.48462940000024,0.3050600999999915,442.9288002000003,442.9288002000003,m,0.8801789999997709,446.7888227000003,446.7888227000003,46,2.906,,,sub-028,55,110,700,bloc_loop.csv,2023-06-21_08h34.44.889,PainUncertainty,2022.2.5,144.19444332306034,
aigu,moderee,stimuli/660Hz,stimuli/moderee,bloc_1,prob20hthp_12trials.xlsx,4,48,20,80,0,,,,,0,0,0,0,3,1,37,10,,,,,,,,4.8,446.7888227000003,451.5902322000002,451.59016710000003,0.304821599999741,452.0341668000001,452.0341668000001,n,0.5243123999998716,454.26996370000006,454.26996370000006,10,1.635,,,sub-028,55,110,700,bloc_loop.csv,2023-06-21_08h34.44.889,PainUncertainty,2022.2.5,144.19444332306034,
grave,forte,stimuli/330Hz,stimuli/forte,bloc_1,prob20hthp_12trials.xlsx,4,48,20,80,0,,,,,0,0,0,0,3,2,38,3,,,,,,,,4.8,454.26996370000006,459.0703143999999,459.0702316999999,0.30491329999995287,459.51441380000006,459.51441380000006,m,0.6112481000000116,464.8858725,464.8858725,48,4.698,,,sub-028,55,110,700,bloc_loop.csv,2023-06-21_08h34.44.889,PainUncertainty,2022.2.5,144.19444332306034,
aigu,forte,stimuli/660Hz,stimuli/forte,bloc_1,prob20hthp_12trials.xlsx,4,48,20,80,0,,,,,0,0,0,0,3,3,39,11,,,,,,,,3.3,464.8858725,468.18969640000023,468.1895393000003,0.3055154999997285,468.6362831000001,468.6362831000001,m,0.48965339999995194,472.3657986000003,472.3657986000003,49,3.163,,,sub-028,55,110,700,bloc_loop.csv,2023-06-21_08h34.44.889,PainUncertainty,2022.2.5,144.19444332306034,
aigu,moderee,stimuli/660Hz,stimuli/moderee,bloc_1,prob20hthp_12trials.xlsx,4,48,20,80,0,,,,,0,0,0,0,3,4,40,7,,,,,,,,3.5,472.3657986000003,475.8706452000001,475.8706893000002,0.3006632999999965,476.3155018000002,476.3155018000002,n,0.46583190000001196,480.5985515000002,480.5985515000002,11,3.748,,,sub-028,55,110,700,bloc_loop.csv,2023-06-21_08h34.44.889,PainUncertainty,2022.2.5,144.19444332306034,
aigu,moderee,stimuli/660Hz,stimuli/moderee,bloc_1,prob20hthp_12trials.xlsx,4,48,20,80,0,,,,,0,0,0,0,3,5,41,6,,,,,,,,4.1,480.5985515000002,484.69859670000005,484.69849150000016,0.3052871999998388,485.14534060000005,485.14534060000005,n,0.4999514999999519,489.7560228000002,489.7560228000002,10,4.046,,,sub-028,55,110,700,bloc_loop.csv,2023-06-21_08h34.44.889,PainUncertainty,2022.2.5,144.19444332306034,
grave,moderee,stimuli/330Hz,stimuli/moderee,bloc_1,prob20hthp_12trials.xlsx,4,48,20,80,0,,,,,0,0,0,0,3,6,42,5,,,,,,,,3.3,489.7560228000002,493.0609008000001,493.06092350000006,0.30462900000020454,493.50459360000013,493.50459360000013,n,0.6014000999998643,496.82335600000033,496.82335600000033,10,2.643,,,sub-028,55,110,700,bloc_loop.csv,2023-06-21_08h34.44.889,PainUncertainty,2022.2.5,144.19444332306034,
grave,forte,stimuli/330Hz,stimuli/forte,bloc_1,prob20hthp_12trials.xlsx,4,48,20,80,0,,,,,0,0,0,0,3,7,43,0,,,,,,,,3.8,496.82335600000033,500.6240103,500.62420099999997,0.304685900000095,501.06785100000025,501.06785100000025,m,0.669352699999763,504.79997360000016,504.79997360000016,50,2.981,,,sub-028,55,110,700,bloc_loop.csv,2023-06-21_08h34.44.889,PainUncertainty,2022.2.5,144.19444332306034,
aigu,moderee,stimuli/660Hz,stimuli/moderee,bloc_1,prob20hthp_12trials.xlsx,4,48,20,80,0,,,,,0,0,0,0,3,8,44,8,,,,,,,,4,504.79997360000016,508.80579260000013,508.8056002000002,0.3051390000000538,509.2517935000001,509.2517935000001,n,0.5048507999999856,512.2455293000003,512.2455293000003,9,2.44,,,sub-028,55,110,700,bloc_loop.csv,2023-06-21_08h34.44.889,PainUncertainty,2022.2.5,144.19444332306034,
aigu,moderee,stimuli/660Hz,stimuli/moderee,bloc_1,prob20hthp_12trials.xlsx,4,48,20,80,0,,,,,0,0,0,0,3,9,45,9,,,,,,,,3.2,512.2455293000003,515.4450062000001,515.4450463000002,0.30536510000001726,515.8919164000004,515.8919164000004,n,0.5990861000000223,519.8250231000002,519.8250231000002,9,3.255,,,sub-028,55,110,700,bloc_loop.csv,2023-06-21_08h34.44.889,PainUncertainty,2022.2.5,144.19444332306034,
grave,forte,stimuli/330Hz,stimuli/forte,bloc_1,prob20hthp_12trials.xlsx,4,48,20,80,0,,,,,0,0,0,0,3,10,46,2,,,,,,,,3,519.8250231000002,522.8282509000001,522.8283571000001,0.30474729999968986,523.2722919000003,523.2722919000003,m,0.5294717000001583,526.0903636000003,526.0903636000003,51,2.227,,,sub-028,55,110,700,bloc_loop.csv,2023-06-21_08h34.44.889,PainUncertainty,2022.2.5,144.19444332306034,
grave,forte,stimuli/330Hz,stimuli/forte,bloc_1,prob20hthp_12trials.xlsx,4,48,20,80,0,,,,,0,0,0,0,3,11,47,1,,,,,,,,3.5,526.0903636000003,529.5929535,529.5928978000001,0.3050922999996146,530.0389915000001,530.0389915000001,m,0.5509729000000334,532.6766202000003,532.6766202000003,51,2.013,,,sub-028,55,110,700,bloc_loop.csv,2023-06-21_08h34.44.889,PainUncertainty,2022.2.5,144.19444332306034,
grave,forte,stimuli/330Hz,stimuli/forte,bloc_2,prob50_50_4trials.xlsx,2,8,50,50,1,,,,,0,1,1,1,0,0,0,1,,,,,,,,4,532.6766202000003,536.6767354000003,536.6767925000003,0.30490510000026916,537.1209418000003,537.1209418000003,m,0.8475597999999991,540.5716842000002,540.5716842000002,48,2.532,,,sub-028,55,110,700,bloc_loop.csv,2023-06-21_08h34.44.889,PainUncertainty,2022.2.5,144.19444332306034,
grave,moderee,stimuli/330Hz,stimuli/moderee,bloc_2,prob50_50_4trials.xlsx,2,8,50,50,1,,,,,0,1,1,1,0,1,1,0,,,,,,,,3.6,540.5716842000002,544.1707014000003,544.1707143000002,0.30061209999985294,544.6155618000003,544.6155618000003,n,0.48425689999976385,546.8225873000001,546.8225873000001,11,1.612,,,sub-028,55,110,700,bloc_loop.csv,2023-06-21_08h34.44.889,PainUncertainty,2022.2.5,144.19444332306034,
aigu,forte,stimuli/660Hz,stimuli/forte,bloc_2,prob50_50_4trials.xlsx,2,8,50,50,1,,,,,0,1,1,1,0,2,2,3,,,,,,,,5,546.8225873000001,551.8248564,551.8250096,0.30441369999971357,552.2685891000001,552.2685891000001,m,0.5035556999996516,555.3735182,555.3735182,49,2.492,,,sub-028,55,110,700,bloc_loop.csv,2023-06-21_08h34.44.889,PainUncertainty,2022.2.5,144.19444332306034,
aigu,moderee,stimuli/660Hz,stimuli/moderee,bloc_2,prob50_50_4trials.xlsx,2,8,50,50,1,,,,,0,1,1,1,0,3,3,2,,,,,,,,5,555.3735182,560.3738608000003,560.3738798000003,0.30530700000008437,560.8183923000001,560.8183923000001,n,0.49020470000004934,563.6866582000002,563.6866582000002,10,2.304,,,sub-028,55,110,700,bloc_loop.csv,2023-06-21_08h34.44.889,PainUncertainty,2022.2.5,144.19444332306034,
grave,forte,stimuli/330Hz,stimuli/forte,bloc_2,prob50_50_4trials.xlsx,2,8,50,50,1,,,,,0,1,1,1,1,0,4,1,,,,,,,,4.9,563.6866582000002,568.590655,568.5905422,0.3048782000000756,569.0350019000002,569.0350019000002,m,0.5429767000000538,575.148252,575.148252,46,5.485,,,sub-028,55,110,700,bloc_loop.csv,2023-06-21_08h34.44.889,PainUncertainty,2022.2.5,144.19444332306034,
aigu,moderee,stimuli/660Hz,stimuli/moderee,bloc_2,prob50_50_4trials.xlsx,2,8,50,50,1,,,,,0,1,1,1,1,1,5,2,,,,,,,,4.1,575.148252,579.2524230000004,579.2515228999999,0.3050919000002068,579.6954755000002,579.6954755000002,n,0.4682204999999158,583.9868335000001,583.9868335000001,10,3.75,,,sub-028,55,110,700,bloc_loop.csv,2023-06-21_08h34.44.889,PainUncertainty,2022.2.5,144.19444332306034,
aigu,forte,stimuli/660Hz,stimuli/forte,bloc_2,prob50_50_4trials.xlsx,2,8,50,50,1,,,,,0,1,1,1,1,2,6,3,,,,,,,,4.5,583.9868335000001,588.4884945000003,588.4884505000003,0.3052836000001662,588.9327631000001,588.9327631000001,m,0.4900911999998243,592.3938742,592.3938742,45,2.895,,,sub-028,55,110,700,bloc_loop.csv,2023-06-21_08h34.44.889,PainUncertainty,2022.2.5,144.19444332306034,
grave,moderee,stimuli/330Hz,stimuli/moderee,bloc_2,prob50_50_4trials.xlsx,2,8,50,50,1,,,,,0,1,1,1,1,3,7,0,,,,,,,,4.2,592.3938742,596.5936409999999,596.5935354000002,0.30523829999992813,597.0419833000001,597.0419833000001,n,0.47114289999990433,603.2131733000001,603.2131733000001,10,3.673,,,sub-028,55,110,700,bloc_loop.csv,2023-06-21_08h34.44.889,PainUncertainty,2022.2.5,144.19444332306034,
,,,,bloc_2,prob50_50_4trials.xlsx,2,8,50,50,1,,,,,0,1,1,1,,,,,0,0,0,0,,,,,,,,,,,,,,,,,603.2131733000001,669.8248113999998,sub-028,55,110,700,bloc_loop.csv,2023-06-21_08h34.44.889,PainUncertainty,2022.2.5,144.19444332306034,
grave,forte,stimuli/330Hz,stimuli/forte,bloc_3,prob80hthp_12trials.xlsx,2,24,80,20,0,,,,,0,2,2,2,0,0,0,5,,,,,,,,3.8,671.5063263000002,675.3115686000001,675.3114962999997,0.3052189999998518,675.755803,675.755803,m,0.6867044999994505,678.0259293999998,678.0259293999998,50,1.532,,,sub-028,55,110,700,bloc_loop.csv,2023-06-21_08h34.44.889,PainUncertainty,2022.2.5,144.19444332306034,
aigu,forte,stimuli/660Hz,stimuli/forte,bloc_3,prob80hthp_12trials.xlsx,2,24,80,20,0,,,,,0,2,2,2,0,1,1,8,,,,,,,,4.4,678.0259293999998,682.4238893000002,682.4256335999997,0.3031453000003239,682.8677539999999,682.8677539999999,m,0.5007824999997865,684.5010467000002,684.5010467000002,50,1.059,,,sub-028,55,110,700,bloc_loop.csv,2023-06-21_08h34.44.889,PainUncertainty,2022.2.5,144.19444332306034,
grave,moderee,stimuli/330Hz,stimuli/moderee,bloc_3,prob80hthp_12trials.xlsx,2,24,80,20,0,,,,,0,2,2,2,0,2,2,1,,,,,,,,3.9,684.5010467000002,688.4037164000001,688.4034617000005,0.30499220000001515,688.8478089,688.8478089,n,0.47556140000006053,691.7417561000002,691.7417561000002,9,2.337,,,sub-028,55,110,700,bloc_loop.csv,2023-06-21_08h34.44.889,PainUncertainty,2022.2.5,144.19444332306034,
aigu,forte,stimuli/660Hz,stimuli/forte,bloc_3,prob80hthp_12trials.xlsx,2,24,80,20,0,,,,,0,2,2,2,0,3,3,6,,,,,,,,4.7,691.7417561000002,696.4465123,696.4465203999997,0.3051473999994414,696.8930295999999,696.8930295999999,m,0.6210962999998628,699.2219941000003,699.2219941000003,48,1.636,,,sub-028,55,110,700,bloc_loop.csv,2023-06-21_08h34.44.889,PainUncertainty,2022.2.5,144.19444332306034,
grave,moderee,stimuli/330Hz,stimuli/moderee,bloc_3,prob80hthp_12trials.xlsx,2,24,80,20,0,,,,,0,2,2,2,0,4,4,2,,,,,,,,3.4,699.2219941000003,702.6274891000003,702.627359,0.3049564000002647,703.0718709000002,703.0718709000002,n,0.6669208999996954,707.7604889000004,707.7604889000004,9,3.943,,,sub-028,55,110,700,bloc_loop.csv,2023-06-21_08h34.44.889,PainUncertainty,2022.2.5,144.19444332306034,
aigu,forte,stimuli/660Hz,stimuli/forte,bloc_3,prob80hthp_12trials.xlsx,2,24,80,20,0,,,,,0,2,2,2,0,5,5,7,,,,,,,,4.6,707.7604889000004,712.3647609,712.3647998000005,0.30520609999985027,712.8115640000005,712.8115640000005,m,0.5082876000001306,715.5127204,715.5127204,51,2.114,,,sub-028,55,110,700,bloc_loop.csv,2023-06-21_08h34.44.889,PainUncertainty,2022.2.5,144.19444332306034,
grave,moderee,stimuli/330Hz,stimuli/moderee,bloc_3,prob80hthp_12trials.xlsx,2,24,80,20,0,,,,,0,2,2,2,0,6,6,4,,,,,,,,4.5,715.5127204,720.0117615999998,720.0128093000002,0.29962650000015856,720.4564418999998,720.4564418999998,n,0.49681979999922987,722.0973880000001,722.0973880000001,10,1.067,,,sub-028,55,110,700,bloc_loop.csv,2023-06-21_08h34.44.889,PainUncertainty,2022.2.5,144.19444332306034,
aigu,forte,stimuli/660Hz,stimuli/forte,bloc_3,prob80hthp_12trials.xlsx,2,24,80,20,0,,,,,0,2,2,2,0,7,7,10,,,,,,,,3.2,722.0973880000001,725.2968876000004,725.2969646,0.30473560000064026,725.7409896999998,725.7409896999998,m,0.6865658000001531,729.9770497999998,729.9770497999998,45,3.483,,,sub-028,55,110,700,bloc_loop.csv,2023-06-21_08h34.44.889,PainUncertainty,2022.2.5,144.19444332306034,
grave,moderee,stimuli/330Hz,stimuli/moderee,bloc_3,prob80hthp_12trials.xlsx,2,24,80,20,0,,,,,0,2,2,2,0,8,8,0,,,,,,,,3.1,729.9770497999998,733.0824438,733.0824645000001,0.3051693000006708,733.5266713999999,733.5266713999999,n,0.8225818999994772,735.682871,735.682871,12,1.281,,,sub-028,55,110,700,bloc_loop.csv,2023-06-21_08h34.44.889,PainUncertainty,2022.2.5,144.19444332306034,
grave,moderee,stimuli/330Hz,stimuli/moderee,bloc_3,prob80hthp_12trials.xlsx,2,24,80,20,0,,,,,0,2,2,2,0,9,9,3,,,,,,,,3.5,735.682871,739.1872620000004,739.1872790000006,0.30533180000020366,739.6336097000003,739.6336097000003,n,0.5395809999995436,742.5594368000002,742.5594368000002,11,2.317,,,sub-028,55,110,700,bloc_loop.csv,2023-06-21_08h34.44.889,PainUncertainty,2022.2.5,144.19444332306034,
aigu,forte,stimuli/660Hz,stimuli/forte,bloc_3,prob80hthp_12trials.xlsx,2,24,80,20,0,,,,,0,2,2,2,0,10,10,9,,,,,,,,3.6,742.5594368000002,746.1605737999998,746.1605921999998,0.30471119999947405,746.6046785999997,746.6046785999997,m,0.6277102999997624,749.2555460000003,749.2555460000003,47,1.949,,,sub-028,55,110,700,bloc_loop.csv,2023-06-21_08h34.44.889,PainUncertainty,2022.2.5,144.19444332306034,
aigu,moderee,stimuli/660Hz,stimuli/moderee,bloc_3,prob80hthp_12trials.xlsx,2,24,80,20,0,,,,,0,2,2,2,0,11,11,11,,,,,,,,3.6,749.2555460000003,752.8555504000005,752.8556164,0.3062335000004168,753.3040523,753.3040523,n,0.6089858999998796,754.9129973999998,754.9129973999998,10,0.94,,,sub-028,55,110,700,bloc_loop.csv,2023-06-21_08h34.44.889,PainUncertainty,2022.2.5,144.19444332306034,
grave,moderee,stimuli/330Hz,stimuli/moderee,bloc_3,prob80hthp_12trials.xlsx,2,24,80,20,0,,,,,0,2,2,2,1,0,12,4,,,,,,,,4.3,754.9129973999998,759.2174826,759.2173615999999,0.3052696000004289,759.6639384999999,759.6639384999999,n,0.9346626999999899,762.6360188999997,762.6360188999997,10,1.97,,,sub-028,55,110,700,bloc_loop.csv,2023-06-21_08h34.44.889,PainUncertainty,2022.2.5,144.19444332306034,
aigu,forte,stimuli/660Hz,stimuli/forte,bloc_3,prob80hthp_12trials.xlsx,2,24,80,20,0,,,,,0,2,2,2,1,1,13,9,,,,,,,,3.3,762.6360188999997,765.9410388000006,765.9406898000005,0.30505670000002283,766.3847797999997,766.3847797999997,m,0.5416947000007895,768.9010871,768.9010871,48,1.9,,,sub-028,55,110,700,bloc_loop.csv,2023-06-21_08h34.44.889,PainUncertainty,2022.2.5,144.19444332306034,
grave,moderee,stimuli/330Hz,stimuli/moderee,bloc_3,prob80hthp_12trials.xlsx,2,24,80,20,0,,,,,0,2,2,2,1,2,14,2,,,,,,,,4.3,768.9010871,773.2059330000002,773.2056094999997,0.3050570000004882,773.6524457000005,773.6524457000005,n,0.8951935999998568,777.1951969000002,777.1951969000002,12,2.588,,,sub-028,55,110,700,bloc_loop.csv,2023-06-21_08h34.44.889,PainUncertainty,2022.2.5,144.19444332306034,
grave,moderee,stimuli/330Hz,stimuli/moderee,bloc_3,prob80hthp_12trials.xlsx,2,24,80,20,0,,,,,0,2,2,2,1,3,15,3,,,,,,,,4.4,777.1951969000002,781.5955027999998,781.5954578,0.30510580000009213,782.0430068000005,782.0430068000005,n,0.752688400000352,786.7398277000002,786.7398277000002,9,3.865,,,sub-028,55,110,700,bloc_loop.csv,2023-06-21_08h34.44.889,PainUncertainty,2022.2.5,144.19444332306034,
aigu,forte,stimuli/660Hz,stimuli/forte,bloc_3,prob80hthp_12trials.xlsx,2,24,80,20,0,,,,,0,2,2,2,1,4,16,10,,,,,,,,4.4,786.7398277000002,791.1449543999997,791.1448688999998,0.3055252999993172,791.5918141000002,791.5918141000002,m,0.6596309999999903,793.5957539999999,793.5957539999999,50,1.288,,,sub-028,55,110,700,bloc_loop.csv,2023-06-21_08h34.44.889,PainUncertainty,2022.2.5,144.19444332306034,
aigu,forte,stimuli/660Hz,stimuli/forte,bloc_3,prob80hthp_12trials.xlsx,2,24,80,20,0,,,,,0,2,2,2,1,5,17,7,,,,,,,,3.1,793.5957539999999,796.7011006000002,796.7009799000006,0.3051383000001806,797.1452042000001,797.1452042000001,m,0.6778368999998747,801.7347552000001,801.7347552000001,51,3.833,,,sub-028,55,110,700,bloc_loop.csv,2023-06-21_08h34.44.889,PainUncertainty,2022.2.5,144.19444332306034,
grave,moderee,stimuli/330Hz,stimuli/moderee,bloc_3,prob80hthp_12trials.xlsx,2,24,80,20,0,,,,,0,2,2,2,1,6,18,1,,,,,,,,3.1,801.7347552000001,804.8344825000004,804.8343641999999,0.30494199999975535,805.2855145000003,805.2855145000003,n,0.5322524999996858,806.8169316000003,806.8169316000003,10,0.941,,,sub-028,55,110,700,bloc_loop.csv,2023-06-21_08h34.44.889,PainUncertainty,2022.2.5,144.19444332306034,
aigu,moderee,stimuli/660Hz,stimuli/moderee,bloc_3,prob80hthp_12trials.xlsx,2,24,80,20,0,,,,,0,2,2,2,1,7,19,11,,,,,,,,3.2,806.8169316000003,810.0221373000004,810.022143,0.30489769999985583,810.4663489000004,810.4663489000004,n,0.5426720999998906,813.3529587000003,813.3529587000003,9,2.261,,,sub-028,55,110,700,bloc_loop.csv,2023-06-21_08h34.44.889,PainUncertainty,2022.2.5,144.19444332306034,
aigu,forte,stimuli/660Hz,stimuli/forte,bloc_3,prob80hthp_12trials.xlsx,2,24,80,20,0,,,,,0,2,2,2,1,8,20,6,,,,,,,,3.9,813.3529587000003,817.2522577,817.2523302999997,0.30525889999989886,817.6965884000001,817.6965884000001,m,0.48663340000030075,820.3064005000006,820.3064005000006,47,2.073,,,sub-028,55,110,700,bloc_loop.csv,2023-06-21_08h34.44.889,PainUncertainty,2022.2.5,144.19444332306034,
aigu,forte,stimuli/660Hz,stimuli/forte,bloc_3,prob80hthp_12trials.xlsx,2,24,80,20,0,,,,,0,2,2,2,1,9,21,8,,,,,,,,3.5,820.3064005000006,823.8086161000001,823.8086287000004,0.30654970000068715,824.2601005000006,824.2601005000006,m,0.4960144000001492,826.1882728,826.1882728,46,1.376,,,sub-028,55,110,700,bloc_loop.csv,2023-06-21_08h34.44.889,PainUncertainty,2022.2.5,144.19444332306034,
grave,forte,stimuli/330Hz,stimuli/forte,bloc_3,prob80hthp_12trials.xlsx,2,24,80,20,0,,,,,0,2,2,2,1,10,22,5,,,,,,,,3.5,826.1882728,829.6911451000005,829.6911090000002,0.3051653000002261,830.1353274000003,830.1353274000003,m,0.48148509999964517,832.5995591999999,832.5995591999999,45,1.906,,,sub-028,55,110,700,bloc_loop.csv,2023-06-21_08h34.44.889,PainUncertainty,2022.2.5,144.19444332306034,
grave,moderee,stimuli/330Hz,stimuli/moderee,bloc_3,prob80hthp_12trials.xlsx,2,24,80,20,0,,,,,0,2,2,2,1,11,23,0,,,,,,,,3.7,832.5995591999999,836.3034139000001,836.3035193000004,0.30496299999958865,836.7498459999997,836.7498459999997,n,0.4972735999995166,839.905831,839.905831,11,2.581,,,sub-028,55,110,700,bloc_loop.csv,2023-06-21_08h34.44.889,PainUncertainty,2022.2.5,144.19444332306034,
grave,forte,stimuli/330Hz,stimuli/forte,bloc_4,prob50_50_4trials.xlsx,2,8,50,50,1,,,,,0,3,3,3,0,0,0,1,,,,,,,,3.1,839.905831,843.0052504000005,843.0051609999999,0.3052508000000671,843.4494721000001,843.4494721000001,m,0.6599566999998387,848.538243,848.538243,42,4.352,,,sub-028,55,110,700,bloc_loop.csv,2023-06-21_08h34.44.889,PainUncertainty,2022.2.5,144.19444332306034,
grave,moderee,stimuli/330Hz,stimuli/moderee,bloc_4,prob50_50_4trials.xlsx,2,8,50,50,1,,,,,0,3,3,3,0,1,1,0,,,,,,,,4.6,848.538243,853.1384730999998,853.1383291999999,0.30503719999978784,853.5826206000002,853.5826206000002,n,0.48534259999951246,854.9952315,854.9952315,10,0.857,,,sub-028,55,110,700,bloc_loop.csv,2023-06-21_08h34.44.889,PainUncertainty,2022.2.5,144.19444332306034,
aigu,forte,stimuli/660Hz,stimuli/forte,bloc_4,prob50_50_4trials.xlsx,2,8,50,50,1,,,,,0,3,3,3,0,2,2,3,,,,,,,,3.8,854.9952315,858.7989551999999,858.7988790999997,0.30499870000039664,859.2431520999999,859.2431520999999,m,0.48814179999999396,863.1149867000004,863.1149867000004,49,3.303,,,sub-028,55,110,700,bloc_loop.csv,2023-06-21_08h34.44.889,PainUncertainty,2022.2.5,144.19444332306034,
aigu,moderee,stimuli/660Hz,stimuli/moderee,bloc_4,prob50_50_4trials.xlsx,2,8,50,50,1,,,,,0,3,3,3,0,3,3,2,,,,,,,,3.4,863.1149867000004,866.5153097000002,866.5155737000003,0.3045953999999256,866.9595724999999,866.9595724999999,n,0.5266994999997223,873.2166644999998,873.2166644999998,7,5.657,,,sub-028,55,110,700,bloc_loop.csv,2023-06-21_08h34.44.889,PainUncertainty,2022.2.5,144.19444332306034,
aigu,forte,stimuli/660Hz,stimuli/forte,bloc_4,prob50_50_4trials.xlsx,2,8,50,50,1,,,,,0,3,3,3,1,0,4,3,,,,,,,,3.2,873.2166644999998,876.4189876999999,876.4187999000004,0.3051912999999331,876.8632078,876.8632078,m,0.4525038000006134,879.1010928000005,879.1010928000005,50,1.698,,,sub-028,55,110,700,bloc_loop.csv,2023-06-21_08h34.44.889,PainUncertainty,2022.2.5,144.19444332306034,
aigu,moderee,stimuli/660Hz,stimuli/moderee,bloc_4,prob50_50_4trials.xlsx,2,8,50,50,1,,,,,0,3,3,3,1,1,5,2,,,,,,,,3.2,879.1010928000005,882.3015176999997,882.3015214000005,0.3018027999996775,882.7464434000003,882.7464434000003,n,0.4740083000001505,884.8533300999998,884.8533300999998,9,1.56,,,sub-028,55,110,700,bloc_loop.csv,2023-06-21_08h34.44.889,PainUncertainty,2022.2.5,144.19444332306034,
grave,forte,stimuli/330Hz,stimuli/forte,bloc_4,prob50_50_4trials.xlsx,2,8,50,50,1,,,,,0,3,3,3,1,2,6,1,,,,,,,,3,884.8533300999998,887.8577915000005,887.8578987,0.3049888999994437,888.3019691999998,888.3019691999998,m,0.4994252999999844,891.4538217999998,891.4538217999998,46,2.581,,,sub-028,55,110,700,bloc_loop.csv,2023-06-21_08h34.44.889,PainUncertainty,2022.2.5,144.19444332306034,
grave,moderee,stimuli/330Hz,stimuli/moderee,bloc_4,prob50_50_4trials.xlsx,2,8,50,50,1,,,,,0,3,3,3,1,3,7,0,,,,,,,,3.1,891.4538217999998,894.5534275,894.5535138000004,0.30524919999970734,895.0012605000002,895.0012605000002,n,0.4727138000002924,898.8084868000005,898.8084868000005,10,1.303,,,sub-028,55,110,700,bloc_loop.csv,2023-06-21_08h34.44.889,PainUncertainty,2022.2.5,144.19444332306034,
,,,,bloc_4,prob50_50_4trials.xlsx,2,8,50,50,1,,,,,0,3,3,3,,,,,0,0,0,0,,,,,,,,,,,,,,,,,898.8084868000005,932.0648830999999,sub-028,55,110,700,bloc_loop.csv,2023-06-21_08h34.44.889,PainUncertainty,2022.2.5,144.19444332306034,
aigu,moderee,stimuli/660Hz,stimuli/moderee,bloc_5,prob20hthp_12trials.xlsx,2,24,20,80,0,,,,,0,4,4,4,0,0,0,6,,,,,,,,4.4,933.6227067999998,938.0234913000004,938.0234304000004,0.3054729999994379,938.4704792000002,938.4704792000002,n,0.7837687000005644,940.4808764999998,940.4808764999998,10,1.144,,,sub-028,55,110,700,bloc_loop.csv,2023-06-21_08h34.44.889,PainUncertainty,2022.2.5,144.19444332306034,
grave,forte,stimuli/330Hz,stimuli/forte,bloc_5,prob20hthp_12trials.xlsx,2,24,20,80,0,,,,,0,4,4,4,0,1,1,4,,,,,,,,4.1,940.4808764999998,944.5866974,944.5867034000001,0.30533000000014,945.0336223000004,945.0336223000004,m,1.1651075999993736,948.1206293000005,948.1206293000005,47,1.867,,,sub-028,55,110,700,bloc_loop.csv,2023-06-21_08h34.44.889,PainUncertainty,2022.2.5,144.19444332306034,
aigu,forte,stimuli/660Hz,stimuli/forte,bloc_5,prob20hthp_12trials.xlsx,2,24,20,80,0,,,,,0,4,4,4,0,2,2,11,,,,,,,,4,948.1206293000005,952.1227144000004,952.1226248000002,0.300805599999876,952.5670600000003,952.5670600000003,m,0.5215411000003769,955.6004064999997,955.6004064999997,45,2.447,,,sub-028,55,110,700,bloc_loop.csv,2023-06-21_08h34.44.889,PainUncertainty,2022.2.5,144.19444332306034,
grave,forte,stimuli/330Hz,stimuli/forte,bloc_5,prob20hthp_12trials.xlsx,2,24,20,80,0,,,,,0,4,4,4,0,3,3,2,,,,,,,,3.4,955.6004064999997,959.0057314000005,959.0054169000003,0.30492529999992257,959.4493364,959.4493364,m,0.5057799999999588,961.3725228000003,961.3725228000003,47,1.345,,,sub-028,55,110,700,bloc_loop.csv,2023-06-21_08h34.44.889,PainUncertainty,2022.2.5,144.19444332306034,
aigu,moderee,stimuli/660Hz,stimuli/moderee,bloc_5,prob20hthp_12trials.xlsx,2,24,20,80,0,,,,,0,4,4,4,0,4,4,9,,,,,,,,4.2,961.3725228000003,965.5762308000003,965.5759179000005,0.3051362000005611,966.0225000999999,966.0225000999999,n,0.4638380999999754,967.2856803000004,967.2856803000004,10,0.734,,,sub-028,55,110,700,bloc_loop.csv,2023-06-21_08h34.44.889,PainUncertainty,2022.2.5,144.19444332306034,
aigu,moderee,stimuli/660Hz,stimuli/moderee,bloc_5,prob20hthp_12trials.xlsx,2,24,20,80,0,,,,,0,4,4,4,0,5,5,10,,,,,,,,3,967.2856803000004,970.2849015000002,970.2849363000004,0.30652379999992263,970.7360162000004,970.7360162000004,n,0.5013479000003827,975.6619867999998,975.6619867999998,10,4.319,,,sub-028,55,110,700,bloc_loop.csv,2023-06-21_08h34.44.889,PainUncertainty,2022.2.5,144.19444332306034,
aigu,moderee,stimuli/660Hz,stimuli/moderee,bloc_5,prob20hthp_12trials.xlsx,2,24,20,80,0,,,,,0,4,4,4,0,6,6,7,,,,,,,,4,975.6619867999998,979.6672341000003,979.6672217000004,0.3054119000007631,980.1139142000002,980.1139142000002,n,0.4589896000002227,982.6638302000001,982.6638302000001,8,2.007,,,sub-028,55,110,700,bloc_loop.csv,2023-06-21_08h34.44.889,PainUncertainty,2022.2.5,144.19444332306034,
grave,forte,stimuli/330Hz,stimuli/forte,bloc_5,prob20hthp_12trials.xlsx,2,24,20,80,0,,,,,0,4,4,4,0,7,7,3,,,,,,,,3.2,982.6638302000001,985.8694922000004,985.8694744000003,0.3052987999999459,986.3137285000003,986.3137285000003,m,0.5181561999993392,989.7299659999999,989.7299659999999,46,2.844,,,sub-028,55,110,700,bloc_loop.csv,2023-06-21_08h34.44.889,PainUncertainty,2022.2.5,144.19444332306034,
grave,forte,stimuli/330Hz,stimuli/forte,bloc_5,prob20hthp_12trials.xlsx,2,24,20,80,0,,,,,0,4,4,4,0,8,8,0,,,,,,,,3.1,989.7299659999999,992.8356684999999,992.8355649000003,0.305025999999998,993.2798097000004,993.2798097000004,m,0.44903949999979886,995.3246717000002,995.3246717000002,47,1.52,,,sub-028,55,110,700,bloc_loop.csv,2023-06-21_08h34.44.889,PainUncertainty,2022.2.5,144.19444332306034,
aigu,moderee,stimuli/660Hz,stimuli/moderee,bloc_5,prob20hthp_12trials.xlsx,2,24,20,80,0,,,,,0,4,4,4,0,9,9,8,,,,,,,,3.9,995.3246717000002,999.2255750000004,999.2254825999997,0.30506470000000263,999.6694438000004,999.6694438000004,n,0.5631367999999384,1002.8040269000003,1002.8040269000003,9,2.517,,,sub-028,55,110,700,bloc_loop.csv,2023-06-21_08h34.44.889,PainUncertainty,2022.2.5,144.19444332306034,
grave,moderee,stimuli/330Hz,stimuli/moderee,bloc_5,prob20hthp_12trials.xlsx,2,24,20,80,0,,,,,0,4,4,4,0,10,10,5,,,,,,,,3.2,1002.8040269000003,1006.0039754999998,1006.0037865000003,0.3052655000001323,1006.4480879000002,1006.4480879000002,n,0.630985000000237,1009.5369411000001,1009.5369411000001,13,2.377,,,sub-028,55,110,700,bloc_loop.csv,2023-06-21_08h34.44.889,PainUncertainty,2022.2.5,144.19444332306034,
grave,forte,stimuli/330Hz,stimuli/forte,bloc_5,prob20hthp_12trials.xlsx,2,24,20,80,0,,,,,0,4,4,4,0,11,11,1,,,,,,,,4.3,1009.5369411000001,1013.8380168000003,1013.8379842000003,0.29954630000065663,1014.2764890999997,1014.2764890999997,m,0.5279202999995505,1018.5350945999999,1018.5350945999999,48,3.656,,,sub-028,55,110,700,bloc_loop.csv,2023-06-21_08h34.44.889,PainUncertainty,2022.2.5,144.19444332306034,
aigu,moderee,stimuli/660Hz,stimuli/moderee,bloc_5,prob20hthp_12trials.xlsx,2,24,20,80,0,,,,,0,4,4,4,1,0,12,6,,,,,,,,4.7,1018.5350945999999,1023.2354571000005,1023.2354222000002,0.3046826999998302,1023.6791973999998,1023.6791973999998,n,0.5992185000000063,1027.3260729000003,1027.3260729000003,10,2.989,,,sub-028,55,110,700,bloc_loop.csv,2023-06-21_08h34.44.889,PainUncertainty,2022.2.5,144.19444332306034,
aigu,moderee,stimuli/660Hz,stimuli/moderee,bloc_5,prob20hthp_12trials.xlsx,2,24,20,80,0,,,,,0,4,4,4,1,1,13,9,,,,,,,,4.3,1027.3260729000003,1031.6318557000004,1031.6318634,0.3049912000005861,1032.0760357,1032.0760357,n,0.4756617999996706,1034.6156912000006,1034.6156912000006,10,1.997,,,sub-028,55,110,700,bloc_loop.csv,2023-06-21_08h34.44.889,PainUncertainty,2022.2.5,144.19444332306034,
aigu,moderee,stimuli/660Hz,stimuli/moderee,bloc_5,prob20hthp_12trials.xlsx,2,24,20,80,0,,,,,0,4,4,4,1,2,14,8,,,,,,,,3.7,1034.6156912000006,1038.3206953,1038.3205122999998,0.305282399999669,1038.7672963000005,1038.7672963000005,n,0.49210160000029646,1041.6809187,1041.6809187,11,2.345,,,sub-028,55,110,700,bloc_loop.csv,2023-06-21_08h34.44.889,PainUncertainty,2022.2.5,144.19444332306034,
grave,forte,stimuli/330Hz,stimuli/forte,bloc_5,prob20hthp_12trials.xlsx,2,24,20,80,0,,,,,0,4,4,4,1,3,15,2,,,,,,,,4.5,1041.6809187,1046.1824612999999,1046.1824264000006,0.30472110000027897,1046.6262809999998,1046.6262809999998,m,0.43294570000080057,1049.1294937000002,1049.1294937000002,46,2.004,,,sub-028,55,110,700,bloc_loop.csv,2023-06-21_08h34.44.889,PainUncertainty,2022.2.5,144.19444332306034,
aigu,forte,stimuli/660Hz,stimuli/forte,bloc_5,prob20hthp_12trials.xlsx,2,24,20,80,0,,,,,0,4,4,4,1,4,16,11,,,,,,,,3.6,1049.1294937000002,1052.7315938000002,1052.7315241000006,0.3050806000001103,1053.1758050999997,1053.1758050999997,m,0.44600320000017746,1055.5213269000005,1055.5213269000005,48,1.836,,,sub-028,55,110,700,bloc_loop.csv,2023-06-21_08h34.44.889,PainUncertainty,2022.2.5,144.19444332306034,
grave,forte,stimuli/330Hz,stimuli/forte,bloc_5,prob20hthp_12trials.xlsx,2,24,20,80,0,,,,,0,4,4,4,1,5,17,1,,,,,,,,4.8,1055.5213269000005,1060.3226876999997,1060.3227843000004,0.3047457000002396,1060.7670213000001,1060.7670213000001,m,0.565842700000303,1063.5143709000004,1063.5143709000004,48,2.102,,,sub-028,55,110,700,bloc_loop.csv,2023-06-21_08h34.44.889,PainUncertainty,2022.2.5,144.19444332306034,
grave,moderee,stimuli/330Hz,stimuli/moderee,bloc_5,prob20hthp_12trials.xlsx,2,24,20,80,0,,,,,0,4,4,4,1,6,18,5,,,,,,,,3.8,1063.5143709000004,1067.3166987000004,1067.3165565,0.3055537000000186,1067.7640827000005,1067.7640827000005,n,0.4722987000000103,1070.0837419999998,1070.0837419999998,9,1.781,,,sub-028,55,110,700,bloc_loop.csv,2023-06-21_08h34.44.889,PainUncertainty,2022.2.5,144.19444332306034,
aigu,moderee,stimuli/660Hz,stimuli/moderee,bloc_5,prob20hthp_12trials.xlsx,2,24,20,80,0,,,,,0,4,4,4,1,7,19,7,,,,,,,,4.6,1070.0837419999998,1074.6862824,1074.6862662000003,0.30437330000040674,1075.1298521999997,1075.1298521999997,n,0.5191493999996055,1076.4305467000004,1076.4305467000004,10,0.726,,,sub-028,55,110,700,bloc_loop.csv,2023-06-21_08h34.44.889,PainUncertainty,2022.2.5,144.19444332306034,
aigu,moderee,stimuli/660Hz,stimuli/moderee,bloc_5,prob20hthp_12trials.xlsx,2,24,20,80,0,,,,,0,4,4,4,1,8,20,10,,,,,,,,3.7,1076.4305467000004,1080.1307981,1080.1306909000004,0.3003007000006619,1080.5755645999998,1080.5755645999998,n,0.45262940000020535,1085.8297662000004,1085.8297662000004,7,4.72,,,sub-028,55,110,700,bloc_loop.csv,2023-06-21_08h34.44.889,PainUncertainty,2022.2.5,144.19444332306034,
grave,forte,stimuli/330Hz,stimuli/forte,bloc_5,prob20hthp_12trials.xlsx,2,24,20,80,0,,,,,0,4,4,4,1,9,21,3,,,,,,,,3,1085.8297662000004,1088.8331765000003,1088.8331785999999,0.3054404999993494,1089.2803344000004,1089.2803344000004,m,0.45630019999998694,1091.2306876000002,1091.2306876000002,48,1.434,,,sub-028,55,110,700,bloc_loop.csv,2023-06-21_08h34.44.889,PainUncertainty,2022.2.5,144.19444332306034,
grave,forte,stimuli/330Hz,stimuli/forte,bloc_5,prob20hthp_12trials.xlsx,2,24,20,80,0,,,,,0,4,4,4,1,10,22,0,,,,,,,,3,1091.2306876000002,1094.2366125999997,1094.2366948,0.3050050000001647,1094.6810499000003,1094.6810499000003,m,0.40958090000049197,1098.0414738999998,1098.0414738999998,46,2.899,,,sub-028,55,110,700,bloc_loop.csv,2023-06-21_08h34.44.889,PainUncertainty,2022.2.5,144.19444332306034,
grave,forte,stimuli/330Hz,stimuli/forte,bloc_5,prob20hthp_12trials.xlsx,2,24,20,80,0,,,,,0,4,4,4,1,11,23,4,,,,,,,,5,1098.0414738999998,1103.0431718999998,1103.0431009000004,0.3053227999998853,1103.4874099999997,1103.4874099999997,m,0.6281448000004275,1107.3775538,1107.3775538,46,3.177,,,sub-028,55,110,700,bloc_loop.csv,2023-06-21_08h34.44.889,PainUncertainty,2022.2.5,144.19444332306034,
aigu,moderee,stimuli/660Hz,stimuli/moderee,bloc_6,prob50_50_4trials.xlsx,2,8,50,50,0,,,,,0,5,5,5,0,0,0,2,,,,,,,,4.3,1107.3775538,1111.6771450000006,1111.6768296999999,0.30674159999944095,1112.1278559000002,1112.1278559000002,n,0.4692512999995415,1113.3716650000006,1113.3716650000006,10,0.691,,,sub-028,55,110,700,bloc_loop.csv,2023-06-21_08h34.44.889,PainUncertainty,2022.2.5,144.19444332306034,
aigu,forte,stimuli/660Hz,stimuli/forte,bloc_6,prob50_50_4trials.xlsx,2,8,50,50,0,,,,,0,5,5,5,0,1,1,3,,,,,,,,4.4,1113.3716650000006,1117.7741488000001,1117.7739984,0.30549169999994774,1118.2209235999999,1118.2209235999999,m,0.5123740000003636,1121.0912339000006,1121.0912339000006,47,2.309,,,sub-028,55,110,700,bloc_loop.csv,2023-06-21_08h34.44.889,PainUncertainty,2022.2.5,144.19444332306034,
grave,forte,stimuli/330Hz,stimuli/forte,bloc_6,prob50_50_4trials.xlsx,2,8,50,50,0,,,,,0,5,5,5,0,2,2,1,,,,,,,,4.4,1121.0912339000006,1125.4908803999997,1125.4906228999998,0.30508819999977277,1125.9372524,1125.9372524,m,0.4931008999997175,1128.5413731999997,1128.5413731999997,52,2.039,,,sub-028,55,110,700,bloc_loop.csv,2023-06-21_08h34.44.889,PainUncertainty,2022.2.5,144.19444332306034,
grave,moderee,stimuli/330Hz,stimuli/moderee,bloc_6,prob50_50_4trials.xlsx,2,8,50,50,0,,,,,0,5,5,5,0,3,3,0,,,,,,,,4.7,1128.5413731999997,1133.2411246000001,1133.2412006000004,0.30506160000004456,1133.6852884999998,1133.6852884999998,n,0.5075676999999814,1135.9556923,1135.9556923,9,1.708,,,sub-028,55,110,700,bloc_loop.csv,2023-06-21_08h34.44.889,PainUncertainty,2022.2.5,144.19444332306034,
aigu,moderee,stimuli/660Hz,stimuli/moderee,bloc_6,prob50_50_4trials.xlsx,2,8,50,50,0,,,,,0,5,5,5,1,0,4,2,,,,,,,,4.3,1135.9556923,1140.2564806999999,1140.2564200000006,0.3046530999999959,1140.7001995,1140.7001995,n,0.5027213999997002,1143.9660934000003,1143.9660934000003,9,2.684,,,sub-028,55,110,700,bloc_loop.csv,2023-06-21_08h34.44.889,PainUncertainty,2022.2.5,144.19444332306034,
aigu,forte,stimuli/660Hz,stimuli/forte,bloc_6,prob50_50_4trials.xlsx,2,8,50,50,0,,,,,0,5,5,5,1,1,5,3,,,,,,,,3.9,1143.9660934000003,1147.8678738999997,1147.8678562000005,0.30594729999938863,1148.3153827000006,1148.3153827000006,m,0.4265590999998494,1150.9512560000003,1150.9512560000003,48,2.144,,,sub-028,55,110,700,bloc_loop.csv,2023-06-21_08h34.44.889,PainUncertainty,2022.2.5,144.19444332306034,
grave,moderee,stimuli/330Hz,stimuli/moderee,bloc_6,prob50_50_4trials.xlsx,2,8,50,50,0,,,,,0,5,5,5,1,2,6,0,,,,,,,,3,1150.9512560000003,1153.9519353000005,1153.9519658,0.30090650000056485,1154.3966160999998,1154.3966160999998,n,0.4868841999991673,1156.8657571000003,1156.8657571000003,9,1.9,,,sub-028,55,110,700,bloc_loop.csv,2023-06-21_08h34.44.889,PainUncertainty,2022.2.5,144.19444332306034,
grave,forte,stimuli/330Hz,stimuli/forte,bloc_6,prob50_50_4trials.xlsx,2,8,50,50,0,,,,,0,5,5,5,1,3,7,1,,,,,,,,3,1156.8657571000003,1159.8698132,1159.8696998000005,0.30489699999998265,1160.3139384000006,1160.3139384000006,m,0.4249448999994456,1162.8448221999997,1162.8448221999997,46,2.025,,,sub-028,55,110,700,bloc_loop.csv,2023-06-21_08h34.44.889,PainUncertainty,2022.2.5,144.19444332306034,
grave,moderee,stimuli/330Hz,stimuli/moderee,bloc_7,prob80hthp_12trials.xlsx,2,24,80,20,1,,,,,0,6,6,6,0,0,0,3,,,,,,,,4.3,1162.8448221999997,1167.1479381,1167.1481531,0.30485330000010435,1167.5923905,1167.5923905,n,0.45672760000024937,1171.8263298000002,1171.8263298000002,8,3.727,,,sub-028,55,110,700,bloc_loop.csv,2023-06-21_08h34.44.889,PainUncertainty,2022.2.5,144.19444332306034,
grave,moderee,stimuli/330Hz,stimuli/moderee,bloc_7,prob80hthp_12trials.xlsx,2,24,80,20,1,,,,,0,6,6,6,0,1,1,1,,,,,,,,3.1,1171.8263298000002,1174.9266106000005,1174.9266054,0.3052946999996493,1175.370801,1175.370801,n,0.48810999999977867,1178.9724078999998,1178.9724078999998,8,3.06,,,sub-028,55,110,700,bloc_loop.csv,2023-06-21_08h34.44.889,PainUncertainty,2022.2.5,144.19444332306034,
grave,moderee,stimuli/330Hz,stimuli/moderee,bloc_7,prob80hthp_12trials.xlsx,2,24,80,20,1,,,,,0,6,6,6,0,2,2,2,,,,,,,,3.5,1178.9724078999998,1182.4762466000002,1182.4762061000001,0.3052465000000666,1182.9229593999999,1182.9229593999999,n,1.1295599999998558,1186.4041324999998,1186.4041324999998,11,2.303,,,sub-028,55,110,700,bloc_loop.csv,2023-06-21_08h34.44.889,PainUncertainty,2022.2.5,144.19444332306034,
grave,moderee,stimuli/330Hz,stimuli/moderee,bloc_7,prob80hthp_12trials.xlsx,2,24,80,20,1,,,,,0,6,6,6,0,3,3,0,,,,,,,,3.7,1186.4041324999998,1190.1091310000002,1190.1090484000006,0.3051666999999725,1190.5533438000002,1190.5533438000002,n,0.6684387999998762,1194.1425427000004,1194.1425427000004,9,2.836,,,sub-028,55,110,700,bloc_loop.csv,2023-06-21_08h34.44.889,PainUncertainty,2022.2.5,144.19444332306034,
grave,forte,stimuli/330Hz,stimuli/forte,bloc_7,prob80hthp_12trials.xlsx,2,24,80,20,1,,,,,0,6,6,6,0,4,4,5,,,,,,,,4.9,1194.1425427000004,1199.0475989000006,1199.0475188,0.30523119999998016,1199.4918288999997,1199.4918288999997,m,0.47314159999996264,1201.7175073999997,1201.7175073999997,49,1.698,,,sub-028,55,110,700,bloc_loop.csv,2023-06-21_08h34.44.889,PainUncertainty,2022.2.5,144.19444332306034,
aigu,forte,stimuli/660Hz,stimuli/forte,bloc_7,prob80hthp_12trials.xlsx,2,24,80,20,1,,,,,0,6,6,6,0,5,5,7,,,,,,,,3.9,1201.7175073999997,1205.6178387,1205.6178224000005,0.3056430000006003,1206.0653395999998,1206.0653395999998,m,0.5045264999994288,1208.7665926999998,1208.7665926999998,47,2.143,,,sub-028,55,110,700,bloc_loop.csv,2023-06-21_08h34.44.889,PainUncertainty,2022.2.5,144.19444332306034,
aigu,forte,stimuli/660Hz,stimuli/forte,bloc_7,prob80hthp_12trials.xlsx,2,24,80,20,1,,,,,0,6,6,6,0,6,6,6,,,,,,,,3.7,1208.7665926999998,1212.4662416,1212.466176,0.3050984999999855,1212.9139667999998,1212.9139667999998,m,0.38504650000004403,1215.2405872,1215.2405872,53,1.873,,,sub-028,55,110,700,bloc_loop.csv,2023-06-21_08h34.44.889,PainUncertainty,2022.2.5,144.19444332306034,
grave,moderee,stimuli/330Hz,stimuli/moderee,bloc_7,prob80hthp_12trials.xlsx,2,24,80,20,1,,,,,0,6,6,6,0,7,7,4,,,,,,,,3.8,1215.2405872,1219.0434605,1219.0434777,0.30561409999972966,1219.4907743000003,1219.4907743000003,n,0.49475810000012643,1220.9476783,1220.9476783,10,0.907,,,sub-028,55,110,700,bloc_loop.csv,2023-06-21_08h34.44.889,PainUncertainty,2022.2.5,144.19444332306034,
aigu,moderee,stimuli/660Hz,stimuli/moderee,bloc_7,prob80hthp_12trials.xlsx,2,24,80,20,1,,,,,0,6,6,6,0,8,8,11,,,,,,,,4.9,1220.9476783,1225.8497157000002,1225.8498350999998,0.3047980000001189,1226.2936325,1226.2936325,n,0.5682557000004635,1230.3629965,1230.3629965,8,3.428,,,sub-028,55,110,700,bloc_loop.csv,2023-06-21_08h34.44.889,PainUncertainty,2022.2.5,144.19444332306034,
aigu,forte,stimuli/660Hz,stimuli/forte,bloc_7,prob80hthp_12trials.xlsx,2,24,80,20,1,,,,,0,6,6,6,0,9,9,9,,,,,,,,4.9,1230.3629965,1235.2674329000001,1235.2674265000005,0.30496339999990596,1235.7113221,1235.7113221,m,0.6652184999998099,1238.4656216000003,1238.4656216000003,47,2.039,,,sub-028,55,110,700,bloc_loop.csv,2023-06-21_08h34.44.889,PainUncertainty,2022.2.5,144.19444332306034,
aigu,forte,stimuli/660Hz,stimuli/forte,bloc_7,prob80hthp_12trials.xlsx,2,24,80,20,1,,,,,0,6,6,6,0,10,10,8,,,,,,,,4.1,1238.4656216000003,1242.5669689000006,1242.5668862000002,0.30491969999911817,1243.0108944000003,1243.0108944000003,m,0.5061652999997932,1246.0900196000002,1246.0900196000002,47,2.525,,,sub-028,55,110,700,bloc_loop.csv,2023-06-21_08h34.44.889,PainUncertainty,2022.2.5,144.19444332306034,
aigu,forte,stimuli/660Hz,stimuli/forte,bloc_7,prob80hthp_12trials.xlsx,2,24,80,20,1,,,,,0,6,6,6,0,11,11,10,,,,,,,,3.9,1246.0900196000002,1249.991414,1249.9913347000002,0.3049343000002409,1250.4352452000003,1250.4352452000003,m,0.45310920000019905,1252.9955029000002,1252.9955029000002,45,2.052,,,sub-028,55,110,700,bloc_loop.csv,2023-06-21_08h34.44.889,PainUncertainty,2022.2.5,144.19444332306034,
aigu,forte,stimuli/660Hz,stimuli/forte,bloc_7,prob80hthp_12trials.xlsx,2,24,80,20,1,,,,,0,6,6,6,1,0,12,6,,,,,,,,4.8,1252.9955029000002,1257.7977259999998,1257.7976450000006,0.3053353999994215,1258.2453999,1258.2453999,m,0.45369090000031065,1260.5585087999998,1260.5585087999998,50,1.781,,,sub-028,55,110,700,bloc_loop.csv,2023-06-21_08h34.44.889,PainUncertainty,2022.2.5,144.19444332306034,
grave,moderee,stimuli/330Hz,stimuli/moderee,bloc_7,prob80hthp_12trials.xlsx,2,24,80,20,1,,,,,0,6,6,6,1,1,13,4,,,,,,,,4.3,1260.5585087999998,1264.8610135,1264.8609405000007,0.30200929999955406,1265.3055414,1265.3055414,n,0.6530074999996032,1269.7325765000005,1269.7325765000005,9,3.706,,,sub-028,55,110,700,bloc_loop.csv,2023-06-21_08h34.44.889,PainUncertainty,2022.2.5,144.19444332306034,
aigu,forte,stimuli/660Hz,stimuli/forte,bloc_7,prob80hthp_12trials.xlsx,2,24,80,20,1,,,,,0,6,6,6,1,2,14,8,,,,,,,,4.2,1269.7325765000005,1273.9384021000005,1273.9383696000004,0.305219699999725,1274.3827866000001,1274.3827866000001,m,0.4155244999997194,1276.6850021,1276.6850021,49,1.83,,,sub-028,55,110,700,bloc_loop.csv,2023-06-21_08h34.44.889,PainUncertainty,2022.2.5,144.19444332306034,
grave,forte,stimuli/330Hz,stimuli/forte,bloc_7,prob80hthp_12trials.xlsx,2,24,80,20,1,,,,,0,6,6,6,1,3,15,5,,,,,,,,3.6,1276.6850021,1280.2864031,1280.2863406000006,0.3052519000002576,1280.7306196999998,1280.7306196999998,m,0.5270736000006764,1282.6310877000005,1282.6310877000005,50,1.317,,,sub-028,55,110,700,bloc_loop.csv,2023-06-21_08h34.44.889,PainUncertainty,2022.2.5,144.19444332306034,
aigu,forte,stimuli/660Hz,stimuli/forte,bloc_7,prob80hthp_12trials.xlsx,2,24,80,20,1,,,,,0,6,6,6,1,4,16,7,,,,,,,,3.1,1282.6310877000005,1285.7313863,1285.7315149000005,0.3047814000001381,1286.1756329,1286.1756329,m,0.4300422000001163,1288.6744134,1288.6744134,49,2.003,,,sub-028,55,110,700,bloc_loop.csv,2023-06-21_08h34.44.889,PainUncertainty,2022.2.5,144.19444332306034,
grave,moderee,stimuli/330Hz,stimuli/moderee,bloc_7,prob80hthp_12trials.xlsx,2,24,80,20,1,,,,,0,6,6,6,1,5,17,1,,,,,,,,3.9,1288.6744134,1292.5795507000003,1292.5795876000002,0.3048287999999957,1293.0263278000002,1293.0263278000002,n,0.4768035999991298,1297.0184206000004,1297.0184206000004,9,3.461,,,sub-028,55,110,700,bloc_loop.csv,2023-06-21_08h34.44.889,PainUncertainty,2022.2.5,144.19444332306034,
grave,moderee,stimuli/330Hz,stimuli/moderee,bloc_7,prob80hthp_12trials.xlsx,2,24,80,20,1,,,,,0,6,6,6,1,6,18,3,,,,,,,,3.5,1297.0184206000004,1300.5180455,1300.5179044000006,0.3050244999994902,1300.9621210000005,1300.9621210000005,n,0.5669161999999233,1303.0781607999998,1303.0781607999998,10,1.482,,,sub-028,55,110,700,bloc_loop.csv,2023-06-21_08h34.44.889,PainUncertainty,2022.2.5,144.19444332306034,
grave,moderee,stimuli/330Hz,stimuli/moderee,bloc_7,prob80hthp_12trials.xlsx,2,24,80,20,1,,,,,0,6,6,6,1,7,19,2,,,,,,,,4.4,1303.0781607999998,1307.4773759,1307.4791811000005,0.30335270000068704,1307.9213596999998,1307.9213596999998,n,0.5804168999998183,1311.8859297,1311.8859297,9,3.309,,,sub-028,55,110,700,bloc_loop.csv,2023-06-21_08h34.44.889,PainUncertainty,2022.2.5,144.19444332306034,
aigu,forte,stimuli/660Hz,stimuli/forte,bloc_7,prob80hthp_12trials.xlsx,2,24,80,20,1,,,,,0,6,6,6,1,8,20,9,,,,,,,,4,1311.8859297,1315.8879048999997,1315.8877589000003,0.3050826999997298,1316.3320967,1316.3320967,m,0.4302448000003096,1317.865296,1317.865296,50,1.03,,,sub-028,55,110,700,bloc_loop.csv,2023-06-21_08h34.44.889,PainUncertainty,2022.2.5,144.19444332306034,
grave,moderee,stimuli/330Hz,stimuli/moderee,bloc_7,prob80hthp_12trials.xlsx,2,24,80,20,1,,,,,0,6,6,6,1,9,21,0,,,,,,,,3.3,1317.865296,1321.1680106000003,1321.1670147000004,0.3067956000004415,1321.6181072999998,1321.6181072999998,n,0.45499749999953565,1326.4326347000006,1326.4326347000006,9,4.282,,,sub-028,55,110,700,bloc_loop.csv,2023-06-21_08h34.44.889,PainUncertainty,2022.2.5,144.19444332306034,
aigu,forte,stimuli/660Hz,stimuli/forte,bloc_7,prob80hthp_12trials.xlsx,2,24,80,20,1,,,,,0,6,6,6,1,10,22,10,,,,,,,,4.6,1326.4326347000006,1331.0354253000005,1331.0354940000007,0.30513370000062423,1331.4796548000004,1331.4796548000004,m,0.479612100000395,1333.8798586000003,1333.8798586000003,48,1.849,,,sub-028,55,110,700,bloc_loop.csv,2023-06-21_08h34.44.889,PainUncertainty,2022.2.5,144.19444332306034,
aigu,moderee,stimuli/660Hz,stimuli/moderee,bloc_7,prob80hthp_12trials.xlsx,2,24,80,20,1,,,,,0,6,6,6,1,11,23,11,,,,,,,,3.5,1333.8798586000003,1337.3836619000003,1337.3835478,0.3048960999994961,1337.8278762,1337.8278762,n,0.4652095999995254,1344.8218537000002,1344.8218537000002,9,4.498,,,sub-028,55,110,700,bloc_loop.csv,2023-06-21_08h34.44.889,PainUncertainty,2022.2.5,144.19444332306034,
,,,,bloc_7,prob80hthp_12trials.xlsx,2,24,80,20,1,,,,,0,6,6,6,,,,,0,0,0,0,,,,,,,,,,,,,,,,,1344.8218537000002,1363.6644197000005,sub-028,55,110,700,bloc_loop.csv,2023-06-21_08h34.44.889,PainUncertainty,2022.2.5,144.19444332306034,
grave,forte,stimuli/330Hz,stimuli/forte,bloc_8,prob50_50_4trials.xlsx,3,12,50,50,0,,,,,0,7,7,7,0,0,0,1,,,,,,,,4,1365.8997854,1369.9012184000003,1369.9011999000004,0.3003754999999728,1370.3461361,1370.3461361,m,1.0682489999994687,1374.9954617000003,1374.9954617000003,47,3.502,,,sub-028,55,110,700,bloc_loop.csv,2023-06-21_08h34.44.889,PainUncertainty,2022.2.5,144.19444332306034,
grave,moderee,stimuli/330Hz,stimuli/moderee,bloc_8,prob50_50_4trials.xlsx,3,12,50,50,0,,,,,0,7,7,7,0,1,1,0,,,,,,,,4.7,1374.9954617000003,1379.6944359,1379.6953835000004,0.3042173999992883,1380.1409658000002,1380.1409658000002,n,0.4187526999999136,1381.3700491999998,1381.3700491999998,10,0.758,,,sub-028,55,110,700,bloc_loop.csv,2023-06-21_08h34.44.889,PainUncertainty,2022.2.5,144.19444332306034,
aigu,moderee,stimuli/660Hz,stimuli/moderee,bloc_8,prob50_50_4trials.xlsx,3,12,50,50,0,,,,,0,7,7,7,0,2,2,2,,,,,,,,3.3,1381.3700491999998,1384.6741118,1384.6740872999999,0.304872499999874,1385.1179478000004,1385.1179478000004,n,0.5065363000007892,1388.5174843000004,1388.5174843000004,7,2.815,,,sub-028,55,110,700,bloc_loop.csv,2023-06-21_08h34.44.889,PainUncertainty,2022.2.5,144.19444332306034,
aigu,forte,stimuli/660Hz,stimuli/forte,bloc_8,prob50_50_4trials.xlsx,3,12,50,50,0,,,,,0,7,7,7,0,3,3,3,,,,,,,,4.7,1388.5174843000004,1393.2234685000003,1393.2234348000002,0.3049046999994971,1393.6675652000004,1393.6675652000004,m,0.45202240000025995,1396.0776267,1396.0776267,45,1.891,,,sub-028,55,110,700,bloc_loop.csv,2023-06-21_08h34.44.889,PainUncertainty,2022.2.5,144.19444332306034,
grave,moderee,stimuli/330Hz,stimuli/moderee,bloc_8,prob50_50_4trials.xlsx,3,12,50,50,0,,,,,0,7,7,7,1,0,4,0,,,,,,,,3.2,1396.0776267,1399.2797246,1399.2796944000002,0.3053512000005867,1399.7244138000005,1399.7244138000005,n,0.38519229999974414,1402.4235071000003,1402.4235071000003,9,2.248,,,sub-028,55,110,700,bloc_loop.csv,2023-06-21_08h34.44.889,PainUncertainty,2022.2.5,144.19444332306034,
aigu,moderee,stimuli/660Hz,stimuli/moderee,bloc_8,prob50_50_4trials.xlsx,3,12,50,50,0,,,,,0,7,7,7,1,1,5,2,,,,,,,,3.8,1402.4235071000003,1406.2250303,1406.2250277000003,0.3051304999999047,1406.6717958999998,1406.6717958999998,n,1.1226709999996274,1412.3481093,1412.3481093,15,4.477,,,sub-028,55,110,700,bloc_loop.csv,2023-06-21_08h34.44.889,PainUncertainty,2022.2.5,144.19444332306034,
grave,forte,stimuli/330Hz,stimuli/forte,bloc_8,prob50_50_4trials.xlsx,3,12,50,50,0,,,,,0,7,7,7,1,2,6,1,,,,,,,,4.2,1412.3481093,1416.5529782000003,1416.5533529000004,0.3046972000001915,1416.9992646,1416.9992646,m,0.46780790000002526,1419.5094205000005,1419.5094205000005,44,1.99,,,sub-028,55,110,700,bloc_loop.csv,2023-06-21_08h34.44.889,PainUncertainty,2022.2.5,144.19444332306034,
aigu,forte,stimuli/660Hz,stimuli/forte,bloc_8,prob50_50_4trials.xlsx,3,12,50,50,0,,,,,0,7,7,7,1,3,7,3,,,,,,,,4.7,1419.5094205000005,1424.2133051,1424.2132305000005,0.30492920000051527,1424.6598206999997,1424.6598206999997,m,0.4137758000001668,1427.0872330000002,1427.0872330000002,50,1.949,,,sub-028,55,110,700,bloc_loop.csv,2023-06-21_08h34.44.889,PainUncertainty,2022.2.5,144.19444332306034,
grave,moderee,stimuli/330Hz,stimuli/moderee,bloc_8,prob50_50_4trials.xlsx,3,12,50,50,0,,,,,0,7,7,7,2,0,8,0,,,,,,,,4.7,1427.0872330000002,1431.7904875000004,1431.7904580000004,0.30508499999996275,1432.2346901,1432.2346901,n,0.44476369999983945,1433.5625423000001,1433.5625423000001,10,0.802,,,sub-028,55,110,700,bloc_loop.csv,2023-06-21_08h34.44.889,PainUncertainty,2022.2.5,144.19444332306034,
aigu,forte,stimuli/660Hz,stimuli/forte,bloc_8,prob50_50_4trials.xlsx,3,12,50,50,0,,,,,0,7,7,7,2,1,9,3,,,,,,,,4.8,1433.5625423000001,1438.3676606,1438.3676008000002,0.30519189999995433,1438.8118906999998,1438.8118906999998,m,0.3771910000000389,1440.5135267000005,1440.5135267000005,49,1.268,,,sub-028,55,110,700,bloc_loop.csv,2023-06-21_08h34.44.889,PainUncertainty,2022.2.5,144.19444332306034,
grave,forte,stimuli/330Hz,stimuli/forte,bloc_8,prob50_50_4trials.xlsx,3,12,50,50,0,,,,,0,7,7,7,2,2,10,1,,,,,,,,3.9,1440.5135267000005,1444.4173216999998,1444.4171734000001,0.3051457000001392,1444.8616972,1444.8616972,m,0.36949679999952423,1447.2929688000004,1447.2929688000004,47,1.984,,,sub-028,55,110,700,bloc_loop.csv,2023-06-21_08h34.44.889,PainUncertainty,2022.2.5,144.19444332306034,
aigu,moderee,stimuli/660Hz,stimuli/moderee,bloc_8,prob50_50_4trials.xlsx,3,12,50,50,0,,,,,0,7,7,7,2,3,11,2,,,,,,,,4.8,1447.2929688000004,1452.0986393000003,1452.098602,0.30543309999939083,1452.5452612999998,1452.5452612999998,n,0.4648341999995864,1457.1222850000004,1457.1222850000004,8,4.032,,,sub-028,55,110,700,bloc_loop.csv,2023-06-21_08h34.44.889,PainUncertainty,2022.2.5,144.19444332306034,
grave,forte,stimuli/330Hz,stimuli/forte,bloc_9,prob20hthp_12trials.xlsx,3,36,80,20,0,,,,,0,8,8,8,0,0,0,1,,,,,,,,3,1457.1222850000004,1460.1272682999997,1460.1272699,0.3050864000006186,1460.5715179,1460.5715179,m,0.5058297000000493,1462.7163710000004,1462.7163710000004,46,1.574,,,sub-028,55,110,700,bloc_loop.csv,2023-06-21_08h34.44.889,PainUncertainty,2022.2.5,144.19444332306034,
grave,moderee,stimuli/330Hz,stimuli/moderee,bloc_9,prob20hthp_12trials.xlsx,3,36,80,20,0,,,,,0,8,8,8,0,1,1,5,,,,,,,,4.3,1462.7163710000004,1467.0171202000001,1467.0169585000003,0.3050783999997293,1467.4634808,1467.4634808,n,0.4491062000001875,1473.5402980999997,1473.5402980999997,10,4.511,,,sub-028,55,110,700,bloc_loop.csv,2023-06-21_08h34.44.889,PainUncertainty,2022.2.5,144.19444332306034,
grave,forte,stimuli/330Hz,stimuli/forte,bloc_9,prob20hthp_12trials.xlsx,3,36,80,20,0,,,,,0,8,8,8,0,2,2,0,,,,,,,,3.4,1473.5402980999997,1476.9421763999999,1476.9421198999999,0.3005628999999317,1477.386445,1477.386445,m,0.4151659000003747,1480.8108134000004,1480.8108134000004,42,2.956,,,sub-028,55,110,700,bloc_loop.csv,2023-06-21_08h34.44.889,PainUncertainty,2022.2.5,144.19444332306034,
grave,forte,stimuli/330Hz,stimuli/forte,bloc_9,prob20hthp_12trials.xlsx,3,36,80,20,0,,,,,0,8,8,8,0,3,3,3,,,,,,,,4.9,1480.8108134000004,1485.7136093,1485.7134151999999,0.30548369999996794,1486.1577260000004,1486.1577260000004,m,0.6550670999999966,1488.9947809000005,1488.9947809000005,41,2.122,,,sub-028,55,110,700,bloc_loop.csv,2023-06-21_08h34.44.889,PainUncertainty,2022.2.5,144.19444332306034,
grave,forte,stimuli/330Hz,stimuli/forte,bloc_9,prob20hthp_12trials.xlsx,3,36,80,20,0,,,,,0,8,8,8,0,4,4,4,,,,,,,,4,1488.9947809000005,1492.9994494000002,1492.9994885000006,0.3015869000000748,1493.4439810000003,1493.4439810000003,m,0.3675705000000562,1495.0223997000003,1495.0223997000003,50,1.143,,,sub-028,55,110,700,bloc_loop.csv,2023-06-21_08h34.44.889,PainUncertainty,2022.2.5,144.19444332306034,
aigu,moderee,stimuli/660Hz,stimuli/moderee,bloc_9,prob20hthp_12trials.xlsx,3,36,80,20,0,,,,,0,8,8,8,0,5,5,10,,,,,,,,3.6,1495.0223997000003,1498.6248260000002,1498.6247410000005,0.3052404000000024,1499.0689612000006,1499.0689612000006,n,0.4351852999993753,1502.3911114000002,1502.3911114000002,11,2.824,,,sub-028,55,110,700,bloc_loop.csv,2023-06-21_08h34.44.889,PainUncertainty,2022.2.5,144.19444332306034,
aigu,moderee,stimuli/660Hz,stimuli/moderee,bloc_9,prob20hthp_12trials.xlsx,3,36,80,20,0,,,,,0,8,8,8,0,6,6,9,,,,,,,,3,1502.3911114000002,1505.3965143000005,1505.3965179000006,0.304965500000435,1505.8406417000006,1505.8406417000006,n,0.4610805999996046,1509.296692,1509.296692,10,2.913,,,sub-028,55,110,700,bloc_loop.csv,2023-06-21_08h34.44.889,PainUncertainty,2022.2.5,144.19444332306034,
aigu,forte,stimuli/660Hz,stimuli/forte,bloc_9,prob20hthp_12trials.xlsx,3,36,80,20,0,,,,,0,8,8,8,0,7,7,11,,,,,,,,3.9,1509.296692,1513.1959609000005,1513.1960811,0.3049306000002616,1513.6401028,1513.6401028,m,0.47352449999971213,1516.0095329000005,1516.0095329000005,46,1.831,,,sub-028,55,110,700,bloc_loop.csv,2023-06-21_08h34.44.889,PainUncertainty,2022.2.5,144.19444332306034,
grave,forte,stimuli/330Hz,stimuli/forte,bloc_9,prob20hthp_12trials.xlsx,3,36,80,20,0,,,,,0,8,8,8,0,8,8,2,,,,,,,,3.9,1516.0095329000005,1519.9121842000004,1519.9122533,0.3053552999999738,1520.3592908,1520.3592908,m,0.4799404999998842,1525.347315,1525.347315,47,4.434,,,sub-028,55,110,700,bloc_loop.csv,2023-06-21_08h34.44.889,PainUncertainty,2022.2.5,144.19444332306034,
aigu,moderee,stimuli/660Hz,stimuli/moderee,bloc_9,prob20hthp_12trials.xlsx,3,36,80,20,0,,,,,0,8,8,8,0,9,9,7,,,,,,,,4.7,1525.347315,1530.0521770000005,1530.0520889999998,0.30528859999958513,1530.4962649999998,1530.4962649999998,n,0.4290592000002107,1532.8897052000002,1532.8897052000002,8,1.907,,,sub-028,55,110,700,bloc_loop.csv,2023-06-21_08h34.44.889,PainUncertainty,2022.2.5,144.19444332306034,
aigu,moderee,stimuli/660Hz,stimuli/moderee,bloc_9,prob20hthp_12trials.xlsx,3,36,80,20,0,,,,,0,8,8,8,0,10,10,8,,,,,,,,4.7,1532.8897052000002,1537.5947751000003,1537.5947075000004,0.3051412999993772,1538.0428449,1538.0428449,n,0.4206152000001566,1540.7870729000006,1540.7870729000006,7,2.261,,,sub-028,55,110,700,bloc_loop.csv,2023-06-21_08h34.44.889,PainUncertainty,2022.2.5,144.19444332306034,
aigu,moderee,stimuli/660Hz,stimuli/moderee,bloc_9,prob20hthp_12trials.xlsx,3,36,80,20,0,,,,,0,8,8,8,0,11,11,6,,,,,,,,3.8,1540.7870729000006,1544.5886501000005,1544.5886055,0.3051044000003458,1545.0329246000001,1545.0329246000001,n,0.4074740999999449,1549.705833,1549.705833,7,4.185,,,sub-028,55,110,700,bloc_loop.csv,2023-06-21_08h34.44.889,PainUncertainty,2022.2.5,144.19444332306034,
grave,forte,stimuli/330Hz,stimuli/forte,bloc_9,prob20hthp_12trials.xlsx,3,36,80,20,0,,,,,0,8,8,8,1,0,12,3,,,,,,,,4.3,1549.705833,1554.0064012000003,1554.0063767000001,0.30520959999921615,1554.4505710000003,1554.4505710000003,m,0.38301240000009784,1555.7163484000002,1555.7163484000002,50,0.81,,,sub-028,55,110,700,bloc_loop.csv,2023-06-21_08h34.44.889,PainUncertainty,2022.2.5,144.19444332306034,
aigu,moderee,stimuli/660Hz,stimuli/moderee,bloc_9,prob20hthp_12trials.xlsx,3,36,80,20,0,,,,,0,8,8,8,1,1,13,8,,,,,,,,3.7,1555.7163484000002,1559.4167951,1559.4168421000004,0.30489549999947485,1559.8612903000003,1559.8612903000003,n,0.3861913000005188,1563.5024963000005,1563.5024963000005,9,3.192,,,sub-028,55,110,700,bloc_loop.csv,2023-06-21_08h34.44.889,PainUncertainty,2022.2.5,144.19444332306034,
aigu,moderee,stimuli/660Hz,stimuli/moderee,bloc_9,prob20hthp_12trials.xlsx,3,36,80,20,0,,,,,0,8,8,8,1,2,14,10,,,,,,,,3.3,1563.5024963000005,1566.8069721000002,1566.8067830999998,0.3051629999999932,1567.2530652000005,1567.2530652000005,n,0.4314179999996668,1568.6149342999997,1568.6149342999997,10,0.865,,,sub-028,55,110,700,bloc_loop.csv,2023-06-21_08h34.44.889,PainUncertainty,2022.2.5,144.19444332306034,
aigu,moderee,stimuli/660Hz,stimuli/moderee,bloc_9,prob20hthp_12trials.xlsx,3,36,80,20,0,,,,,0,8,8,8,1,3,15,6,,,,,,,,4.9,1568.6149342999997,1573.5157502000002,1573.5157318000001,0.30508740000004764,1573.9626278000005,1573.9626278000005,n,0.41978269999935947,1578.1908198,1578.1908198,9,3.734,,,sub-028,55,110,700,bloc_loop.csv,2023-06-21_08h34.44.889,PainUncertainty,2022.2.5,144.19444332306034,
grave,forte,stimuli/330Hz,stimuli/forte,bloc_9,prob20hthp_12trials.xlsx,3,36,80,20,0,,,,,0,8,8,8,1,4,16,4,,,,,,,,3.4,1578.1908198,1581.5929450000003,1581.5927941999998,0.30524979999972857,1582.0371979000001,1582.0371979000001,m,0.375911300000098,1584.0562277,1584.0562277,47,1.587,,,sub-028,55,110,700,bloc_loop.csv,2023-06-21_08h34.44.889,PainUncertainty,2022.2.5,144.19444332306034,
grave,forte,stimuli/330Hz,stimuli/forte,bloc_9,prob20hthp_12trials.xlsx,3,36,80,20,0,,,,,0,8,8,8,1,5,17,0,,,,,,,,3.7,1584.0562277,1587.7603498999997,1587.7602631999998,0.30532140000013896,1588.2048919999997,1588.2048919999997,m,0.49197879999928773,1590.7376356000004,1590.7376356000004,46,1.981,,,sub-028,55,110,700,bloc_loop.csv,2023-06-21_08h34.44.889,PainUncertainty,2022.2.5,144.19444332306034,
aigu,forte,stimuli/660Hz,stimuli/forte,bloc_9,prob20hthp_12trials.xlsx,3,36,80,20,0,,,,,0,8,8,8,1,6,18,11,,,,,,,,3.2,1590.7376356000004,1593.9417209000003,1593.9417549,0.30480569999963336,1594.386034,1594.386034,m,0.4148697000005086,1597.8691913000002,1597.8691913000002,49,2.998,,,sub-028,55,110,700,bloc_loop.csv,2023-06-21_08h34.44.889,PainUncertainty,2022.2.5,144.19444332306034,
grave,moderee,stimuli/330Hz,stimuli/moderee,bloc_9,prob20hthp_12trials.xlsx,3,36,80,20,0,,,,,0,8,8,8,1,7,19,5,,,,,,,,4.6,1597.8691913000002,1602.4705347,1602.4703815000003,0.3048990000006597,1602.9146362000001,1602.9146362000001,n,0.4104293000004873,1606.5943739000004,1606.5943739000004,9,3.203,,,sub-028,55,110,700,bloc_loop.csv,2023-06-21_08h34.44.889,PainUncertainty,2022.2.5,144.19444332306034,
grave,forte,stimuli/330Hz,stimuli/forte,bloc_9,prob20hthp_12trials.xlsx,3,36,80,20,0,,,,,0,8,8,8,1,8,20,1,,,,,,,,4.8,1606.5943739000004,1611.3952539000002,1611.3951637999999,0.3052901999999449,1611.8393731000006,1611.8393731000006,m,0.45849090000001524,1614.1719873000002,1614.1719873000002,48,1.81,,,sub-028,55,110,700,bloc_loop.csv,2023-06-21_08h34.44.889,PainUncertainty,2022.2.5,144.19444332306034,
aigu,moderee,stimuli/660Hz,stimuli/moderee,bloc_9,prob20hthp_12trials.xlsx,3,36,80,20,0,,,,,0,8,8,8,1,9,21,9,,,,,,,,3.3,1614.1719873000002,1617.4722458000006,1617.4722062,0.3051186000002417,1617.9165076,1617.9165076,n,0.5714002999998229,1622.3399980000004,1622.3399980000004,9,3.787,,,sub-028,55,110,700,bloc_loop.csv,2023-06-21_08h34.44.889,PainUncertainty,2022.2.5,144.19444332306034,
aigu,moderee,stimuli/660Hz,stimuli/moderee,bloc_9,prob20hthp_12trials.xlsx,3,36,80,20,0,,,,,0,8,8,8,1,10,22,7,,,,,,,,3.2,1622.3399980000004,1625.5426378000002,1625.5427069000007,0.3048612000002322,1625.9867771,1625.9867771,n,0.40945549999969444,1629.0696210000006,1629.0696210000006,9,2.609,,,sub-028,55,110,700,bloc_loop.csv,2023-06-21_08h34.44.889,PainUncertainty,2022.2.5,144.19444332306034,
grave,forte,stimuli/330Hz,stimuli/forte,bloc_9,prob20hthp_12trials.xlsx,3,36,80,20,0,,,,,0,8,8,8,1,11,23,2,,,,,,,,4.1,1629.0696210000006,1633.1686357999997,1633.1687178000002,0.304772899999989,1633.6149637999997,1633.6149637999997,m,0.41019229999938034,1636.0073367000005,1636.0073367000005,50,1.907,,,sub-028,55,110,700,bloc_loop.csv,2023-06-21_08h34.44.889,PainUncertainty,2022.2.5,144.19444332306034,
aigu,moderee,stimuli/660Hz,stimuli/moderee,bloc_9,prob20hthp_12trials.xlsx,3,36,80,20,0,,,,,0,8,8,8,2,0,24,6,,,,,,,,3.4,1636.0073367000005,1639.4128325000001,1639.4127165999998,0.29932780000035564,1639.8573022,1639.8573022,n,0.37974460000032195,1643.4382101,1643.4382101,10,3.142,,,sub-028,55,110,700,bloc_loop.csv,2023-06-21_08h34.44.889,PainUncertainty,2022.2.5,144.19444332306034,
grave,moderee,stimuli/330Hz,stimuli/moderee,bloc_9,prob20hthp_12trials.xlsx,3,36,80,20,0,,,,,0,8,8,8,2,1,25,5,,,,,,,,4.1,1643.4382101,1647.5384240000003,1647.5384021999998,0.3054448999992019,1647.9857739999998,1647.9857739999998,n,0.5161990999999944,1650.8891849000001,1650.8891849000001,10,2.321,,,sub-028,55,110,700,bloc_loop.csv,2023-06-21_08h34.44.889,PainUncertainty,2022.2.5,144.19444332306034,
aigu,moderee,stimuli/660Hz,stimuli/moderee,bloc_9,prob20hthp_12trials.xlsx,3,36,80,20,0,,,,,0,8,8,8,2,2,26,9,,,,,,,,4.4,1650.8891849000001,1655.2893206999997,1655.2891802000004,0.30509450000045035,1655.7334958000001,1655.7334958000001,n,0.48109580000027563,1659.4875518,1659.4875518,9,3.197,,,sub-028,55,110,700,bloc_loop.csv,2023-06-21_08h34.44.889,PainUncertainty,2022.2.5,144.19444332306034,
grave,forte,stimuli/330Hz,stimuli/forte,bloc_9,prob20hthp_12trials.xlsx,3,36,80,20,0,,,,,0,8,8,8,2,3,27,2,,,,,,,,4.6,1659.4875518,1664.0889283000006,1664.0888519999999,0.30547089999981836,1664.5356817000002,1664.5356817000002,n,0.7338005000005978,1671.8107971999998,1671.8107971999998,46,6.484,,,sub-028,55,110,700,bloc_loop.csv,2023-06-21_08h34.44.889,PainUncertainty,2022.2.5,144.19444332306034,
grave,forte,stimuli/330Hz,stimuli/forte,bloc_9,prob20hthp_12trials.xlsx,3,36,80,20,0,,,,,0,8,8,8,2,4,28,4,,,,,,,,5,1671.8107971999998,1676.8131872000004,1676.8130198,0.3002177999997002,1677.2574418000004,1677.2574418000004,m,0.6479271000002882,1680.0595193,1680.0595193,46,2.073,,,sub-028,55,110,700,bloc_loop.csv,2023-06-21_08h34.44.889,PainUncertainty,2022.2.5,144.19444332306034,
aigu,moderee,stimuli/660Hz,stimuli/moderee,bloc_9,prob20hthp_12trials.xlsx,3,36,80,20,0,,,,,0,8,8,8,2,5,29,10,,,,,,,,3.2,1680.0595193,1683.2650676000003,1683.2647621000006,0.30561089999991964,1683.7120265000003,1683.7120265000003,n,0.7883840999998029,1687.7478802000005,1687.7478802000005,11,3.171,,,sub-028,55,110,700,bloc_loop.csv,2023-06-21_08h34.44.889,PainUncertainty,2022.2.5,144.19444332306034,
grave,forte,stimuli/330Hz,stimuli/forte,bloc_9,prob20hthp_12trials.xlsx,3,36,80,20,0,,,,,0,8,8,8,2,6,30,3,,,,,,,,3.2,1687.7478802000005,1690.9533916,1690.9533332,0.304911400000492,1691.3976054000004,1691.3976054000004,m,0.42703559999927165,1694.1747094000002,1694.1747094000002,45,2.267,,,sub-028,55,110,700,bloc_loop.csv,2023-06-21_08h34.44.889,PainUncertainty,2022.2.5,144.19444332306034,
aigu,moderee,stimuli/660Hz,stimuli/moderee,bloc_9,prob20hthp_12trials.xlsx,3,36,80,20,0,,,,,0,8,8,8,2,7,31,8,,,,,,,,3.2,1694.1747094000002,1697.3775418000005,1697.3775821,0.3052222000005713,1697.8244498000004,1697.8244498000004,n,0.5648208999996314,1699.5940633999999,1699.5940633999999,10,1.128,,,sub-028,55,110,700,bloc_loop.csv,2023-06-21_08h34.44.889,PainUncertainty,2022.2.5,144.19444332306034,
aigu,forte,stimuli/660Hz,stimuli/forte,bloc_9,prob20hthp_12trials.xlsx,3,36,80,20,0,,,,,0,8,8,8,2,8,32,11,,,,,,,,3,1699.5940633999999,1702.5936143,1702.5936049000002,0.30497730000024603,1703.0378167,1703.0378167,m,0.35196070000029067,1705.5541461000003,1705.5541461000003,49,2.114,,,sub-028,55,110,700,bloc_loop.csv,2023-06-21_08h34.44.889,PainUncertainty,2022.2.5,144.19444332306034,
grave,forte,stimuli/330Hz,stimuli/forte,bloc_9,prob20hthp_12trials.xlsx,3,36,80,20,0,,,,,0,8,8,8,2,9,33,1,,,,,,,,4.1,1705.5541461000003,1709.6574378000005,1709.6573257,0.3048116999998456,1710.1010943,1710.1010943,m,0.4744426000002022,1712.5091976000003,1712.5091976000003,46,1.865,,,sub-028,55,110,700,bloc_loop.csv,2023-06-21_08h34.44.889,PainUncertainty,2022.2.5,144.19444332306034,
grave,forte,stimuli/330Hz,stimuli/forte,bloc_9,prob20hthp_12trials.xlsx,3,36,80,20,0,,,,,0,8,8,8,2,10,34,0,,,,,,,,3.3,1712.5091976000003,1715.8104180999999,1715.8103093,0.3056702000003497,1716.2573718000003,1716.2573718000003,m,0.47919950000004974,1718.2640669000002,1718.2640669000002,46,1.448,,,sub-028,55,110,700,bloc_loop.csv,2023-06-21_08h34.44.889,PainUncertainty,2022.2.5,144.19444332306034,
aigu,moderee,stimuli/660Hz,stimuli/moderee,bloc_9,prob20hthp_12trials.xlsx,3,36,80,20,0,,,,,0,8,8,8,2,11,35,7,,,,,,,,3,1718.2640669000002,1721.2693215,1721.2692686,0.3051043000004938,1721.7134957999997,1721.7134957999997,n,0.4537815999997292,1724.6100928000005,1724.6100928000005,9,2.414,,,sub-028,55,110,700,bloc_loop.csv,2023-06-21_08h34.44.889,PainUncertainty,2022.2.5,144.19444332306034,
