cue_,stimulus_,cue_fichier,stimulus_fichier,block_name,block_trials_file,block_n_reps,block_ntrials,block_prob_highP_highT,block_prob_highP_lowT,block_pause_after,Bloc_essai.thisRepN,Bloc_essai.thisTrialN,Bloc_essai.thisN,Bloc_essai.thisIndex,blocks.thisRepN,blocks.thisTrialN,blocks.thisN,blocks.thisIndex,trials.thisRepN,trials.thisTrialN,trials.thisN,trials.thisIndex,pause_loop.thisRepN,pause_loop.thisTrialN,pause_loop.thisN,pause_loop.thisIndex,key_resp_5.started,start_calib.started,key_resp_2.started,ISI_duration,pause.started,pause.stopped,cue.started,ISI.started,choice_pain.started,Choice.started,choice_pain.keys,choice_pain.rt,main_text.started,confirm_text.started,ratingScale.response,ratingScale.rt,key_resp_3.started,key_resp_6.started,participant,low_ma,high_ma,failsafe_ma,block_file,date,expName,psychopyVersion,frameRate,
aigu,moderee,stimuli/660Hz,stimuli/moderee,,,,,,,,0,0,0,2,,,,,,,,,,,,,28.50220050000007,30.664969800000108,240.80168670000012,4.5,244.2684002000001,248.77366759999995,248.77477873999993,0.30536179999990054,249.21317120000003,249.21317120000003,m,2.1767970999999307,255.11172850000003,255.11172850000003,48,3.66,,,sub-034,40,80,700,bloc_loop.csv,2023-06-29_18h52.40.751,PainUncertainty,2022.2.5,142.85959187893448,
grave,forte,stimuli/330Hz,stimuli/forte,,,,,,,,0,1,1,1,,,,,,,,,,,,,,,,3.6,255.11172850000003,258.71563530000003,258.71393242,0.299377800000002,259.15247479999994,259.15247479999994,m,2.4255945999998403,267.1016667000001,267.1016667000001,70,5.448,,,sub-034,40,80,700,bloc_loop.csv,2023-06-29_18h52.40.751,PainUncertainty,2022.2.5,142.85959187893448,
grave,moderee,stimuli/330Hz,stimuli/moderee,,,,,,,,0,2,2,0,,,,,,,,,,,,,,,,3,267.1016667000001,270.1039559000001,270.10388272,0.3048976000000039,270.5552901000001,270.5552901000001,n,0.9672304999999142,273.5262895000001,273.5262895000001,20,1.934,,,sub-034,40,80,700,bloc_loop.csv,2023-06-29_18h52.40.751,PainUncertainty,2022.2.5,142.85959187893448,
aigu,forte,stimuli/660Hz,stimuli/forte,,,,,,,,0,3,3,3,,,,,,,,,,,,,,,,3.1,273.5262895000001,276.625444,276.6256000200001,0.3015182999999979,277.0700928000001,277.0700928000001,m,2.3650275999998485,283.4646222000001,283.4646222000001,71,4.005,,,sub-034,40,80,700,bloc_loop.csv,2023-06-29_18h52.40.751,PainUncertainty,2022.2.5,142.85959187893448,
aigu,moderee,stimuli/660Hz,stimuli/moderee,bloc_1,prob20hthp_12trials.xlsx,4,48,20,80,0,,,,,0,0,0,0,0,0,0,10,,,,,,,,4,333.89363750000007,337.8968606000001,337.8967999199999,0.3051932000000761,338.3409905000001,338.3409905000001,n,0.8979518999997254,341.72455949999994,341.72455949999994,23,2.428,,,sub-034,40,80,700,bloc_loop.csv,2023-06-29_18h52.40.751,PainUncertainty,2022.2.5,142.85959187893448,
aigu,moderee,stimuli/660Hz,stimuli/moderee,bloc_1,prob20hthp_12trials.xlsx,4,48,20,80,0,,,,,0,0,0,0,0,1,1,8,,,,,,,,3.3,341.72455949999994,345.0301491,345.02999602,0.3047017000001233,345.4740673000001,345.4740673000001,n,1.6500292999996873,348.6129506,348.6129506,16,1.434,,,sub-034,40,80,700,bloc_loop.csv,2023-06-29_18h52.40.751,PainUncertainty,2022.2.5,142.85959187893448,
grave,forte,stimuli/330Hz,stimuli/forte,bloc_1,prob20hthp_12trials.xlsx,4,48,20,80,0,,,,,0,0,0,0,0,2,2,1,,,,,,,,5,348.6129506,353.61398150000014,353.61398682000004,0.3052165999999943,354.05812519999995,354.05812519999995,m,2.2228684999997768,359.051009,359.051009,71,2.705,,,sub-034,40,80,700,bloc_loop.csv,2023-06-29_18h52.40.751,PainUncertainty,2022.2.5,142.85959187893448,
grave,forte,stimuli/330Hz,stimuli/forte,bloc_1,prob20hthp_12trials.xlsx,4,48,20,80,0,,,,,0,0,0,0,0,3,3,2,,,,,,,,4.4,359.051009,363.45576370000003,363.4557282200001,0.3014709999999923,363.90019559999996,363.90019559999996,m,2.1468643999996857,367.9686336,367.9686336,69,1.865,,,sub-034,40,80,700,bloc_loop.csv,2023-06-29_18h52.40.751,PainUncertainty,2022.2.5,142.85959187893448,
aigu,moderee,stimuli/660Hz,stimuli/moderee,bloc_1,prob20hthp_12trials.xlsx,4,48,20,80,0,,,,,0,0,0,0,0,4,4,6,,,,,,,,4.4,367.9686336,372.37350919999994,372.3734710200001,0.3051405999999588,372.8178944000001,372.8178944000001,n,1.1508568999997806,375.86384880000014,375.86384880000014,17,1.838,,,sub-034,40,80,700,bloc_loop.csv,2023-06-29_18h52.40.751,PainUncertainty,2022.2.5,142.85959187893448,
aigu,moderee,stimuli/660Hz,stimuli/moderee,bloc_1,prob20hthp_12trials.xlsx,4,48,20,80,0,,,,,0,0,0,0,0,5,5,7,,,,,,,,4.1,375.86384880000014,379.96504230000005,379.96479251999995,0.3052170000000842,380.41227819999995,380.41227819999995,n,0.8199235999998109,383.2319010000001,383.2319010000001,15,1.941,,,sub-034,40,80,700,bloc_loop.csv,2023-06-29_18h52.40.751,PainUncertainty,2022.2.5,142.85959187893448,
grave,forte,stimuli/330Hz,stimuli/forte,bloc_1,prob20hthp_12trials.xlsx,4,48,20,80,0,,,,,0,0,0,0,0,6,6,3,,,,,,,,3.3,383.2319010000001,386.5349530000001,386.5350135200001,0.30496080000011716,386.98280120000004,386.98280120000004,m,0.8959677999998803,390.2317538,390.2317538,80,2.288,,,sub-034,40,80,700,bloc_loop.csv,2023-06-29_18h52.40.751,PainUncertainty,2022.2.5,142.85959187893448,
grave,moderee,stimuli/330Hz,stimuli/moderee,bloc_1,prob20hthp_12trials.xlsx,4,48,20,80,0,,,,,0,0,0,0,0,7,7,5,,,,,,,,4.5,390.2317538,394.73736140000005,394.7375698200001,0.3006447999998727,395.18160910000006,395.18160910000006,n,1.3402866999997514,398.0160071,398.0160071,16,1.433,,,sub-034,40,80,700,bloc_loop.csv,2023-06-29_18h52.40.751,PainUncertainty,2022.2.5,142.85959187893448,
grave,forte,stimuli/330Hz,stimuli/forte,bloc_1,prob20hthp_12trials.xlsx,4,48,20,80,0,,,,,0,0,0,0,0,8,8,4,,,,,,,,4.7,398.0160071,402.71720920000007,402.71715171999995,0.3050801000001684,403.16127660000006,403.16127660000006,m,1.501907399999709,406.7091997,406.7091997,74,1.983,,,sub-034,40,80,700,bloc_loop.csv,2023-06-29_18h52.40.751,PainUncertainty,2022.2.5,142.85959187893448,
grave,forte,stimuli/330Hz,stimuli/forte,bloc_1,prob20hthp_12trials.xlsx,4,48,20,80,0,,,,,0,0,0,0,0,9,9,0,,,,,,,,4.2,406.7091997,410.91265599999997,410.91273802,0.3049341999999342,411.35683859999995,411.35683859999995,m,0.8226281999998264,413.4074203,413.4074203,73,1.171,,,sub-034,40,80,700,bloc_loop.csv,2023-06-29_18h52.40.751,PainUncertainty,2022.2.5,142.85959187893448,
aigu,moderee,stimuli/660Hz,stimuli/moderee,bloc_1,prob20hthp_12trials.xlsx,4,48,20,80,0,,,,,0,0,0,0,0,10,10,9,,,,,,,,3.9,413.4074203,417.3091968000001,417.3091833200001,0.30530069999986154,417.75341000000003,417.75341000000003,n,0.7786913999998433,421.3342722,421.3342722,15,2.748,,,sub-034,40,80,700,bloc_loop.csv,2023-06-29_18h52.40.751,PainUncertainty,2022.2.5,142.85959187893448,
aigu,forte,stimuli/660Hz,stimuli/forte,bloc_1,prob20hthp_12trials.xlsx,4,48,20,80,0,,,,,0,0,0,0,0,11,11,11,,,,,,,,4.4,421.3342722,425.7338300000001,425.73386422,0.3050898999999845,426.1780798,426.1780798,m,0.7795895999997811,428.3989345,428.3989345,74,1.378,,,sub-034,40,80,700,bloc_loop.csv,2023-06-29_18h52.40.751,PainUncertainty,2022.2.5,142.85959187893448,
aigu,moderee,stimuli/660Hz,stimuli/moderee,bloc_1,prob20hthp_12trials.xlsx,4,48,20,80,0,,,,,0,0,0,0,1,0,12,9,,,,,,,,4.1,428.3989345,432.49872670000013,432.4985957199999,0.305013899999949,432.94286250000005,432.94286250000005,n,0.6149255999998786,435.4652965,435.4652965,17,1.843,,,sub-034,40,80,700,bloc_loop.csv,2023-06-29_18h52.40.751,PainUncertainty,2022.2.5,142.85959187893448,
grave,moderee,stimuli/330Hz,stimuli/moderee,bloc_1,prob20hthp_12trials.xlsx,4,48,20,80,0,,,,,0,0,0,0,1,1,13,5,,,,,,,,4.8,435.4652965,440.2706492,440.2706385199999,0.3048023999999714,440.7145187000001,440.7145187000001,n,0.6173652999998467,442.84764829999995,442.84764829999995,15,1.456,,,sub-034,40,80,700,bloc_loop.csv,2023-06-29_18h52.40.751,PainUncertainty,2022.2.5,142.85959187893448,
grave,forte,stimuli/330Hz,stimuli/forte,bloc_1,prob20hthp_12trials.xlsx,4,48,20,80,0,,,,,0,0,0,0,1,2,14,4,,,,,,,,5,442.84764829999995,447.8482163000001,447.8483092199999,0.3044646000000739,448.29210779999994,448.29210779999994,m,0.5487103999998908,451.5589689000001,451.5589689000001,80,2.66,,,sub-034,40,80,700,bloc_loop.csv,2023-06-29_18h52.40.751,PainUncertainty,2022.2.5,142.85959187893448,
aigu,forte,stimuli/660Hz,stimuli/forte,bloc_1,prob20hthp_12trials.xlsx,4,48,20,80,0,,,,,0,0,0,0,1,3,15,11,,,,,,,,3.9,451.5589689000001,455.46001150000006,455.4599966200001,0.30482759999995324,455.9038659,455.9038659,m,0.5231344999999692,461.5005728000001,461.5005728000001,78,5.012,,,sub-034,40,80,700,bloc_loop.csv,2023-06-29_18h52.40.751,PainUncertainty,2022.2.5,142.85959187893448,
grave,forte,stimuli/330Hz,stimuli/forte,bloc_1,prob20hthp_12trials.xlsx,4,48,20,80,0,,,,,0,0,0,0,1,4,16,3,,,,,,,,4.7,461.5005728000001,466.20439880000004,466.20439652000005,0.3049404000000777,466.6486592000001,466.6486592000001,m,0.5791092999998,468.4368730000001,468.4368730000001,79,1.143,,,sub-034,40,80,700,bloc_loop.csv,2023-06-29_18h52.40.751,PainUncertainty,2022.2.5,142.85959187893448,
aigu,moderee,stimuli/660Hz,stimuli/moderee,bloc_1,prob20hthp_12trials.xlsx,4,48,20,80,0,,,,,0,0,0,0,1,5,17,10,,,,,,,,4.1,468.4368730000001,472.5384865000001,472.53847941999993,0.30485380000004625,472.9825175000001,472.9825175000001,n,0.9279649999998583,475.6119953,475.6119953,11,1.65,,,sub-034,40,80,700,bloc_loop.csv,2023-06-29_18h52.40.751,PainUncertainty,2022.2.5,142.85959187893448,
aigu,moderee,stimuli/660Hz,stimuli/moderee,bloc_1,prob20hthp_12trials.xlsx,4,48,20,80,0,,,,,0,0,0,0,1,6,18,8,,,,,,,,3.1,475.6119953,478.7129623000001,478.7129090200001,0.30518659999984266,479.16055589999996,479.16055589999996,n,0.5137517000000571,482.6767204,482.6767204,13,2.95,,,sub-034,40,80,700,bloc_loop.csv,2023-06-29_18h52.40.751,PainUncertainty,2022.2.5,142.85959187893448,
aigu,moderee,stimuli/660Hz,stimuli/moderee,bloc_1,prob20hthp_12trials.xlsx,4,48,20,80,0,,,,,0,0,0,0,1,7,19,6,,,,,,,,3.6,482.6767204,486.2759301000001,486.2759470200001,0.3049886000001152,486.72383190000005,486.72383190000005,n,1.3504950999997618,489.2946458000001,489.2946458000001,14,1.154,,,sub-034,40,80,700,bloc_loop.csv,2023-06-29_18h52.40.751,PainUncertainty,2022.2.5,142.85959187893448,
aigu,moderee,stimuli/660Hz,stimuli/moderee,bloc_1,prob20hthp_12trials.xlsx,4,48,20,80,0,,,,,0,0,0,0,1,8,20,7,,,,,,,,3.9,489.2946458000001,493.19388649999996,493.19394072,0.3048952999999983,493.63776729999995,493.63776729999995,n,0.5051397999998244,496.51787420000005,496.51787420000005,14,2.315,,,sub-034,40,80,700,bloc_loop.csv,2023-06-29_18h52.40.751,PainUncertainty,2022.2.5,142.85959187893448,
grave,forte,stimuli/330Hz,stimuli/forte,bloc_1,prob20hthp_12trials.xlsx,4,48,20,80,0,,,,,0,0,0,0,1,9,21,0,,,,,,,,3.9,496.51787420000005,500.42350280000005,500.42359302,0.3052041000000827,500.87158020000015,500.87158020000015,m,0.776104199999736,504.9263843000001,504.9263843000001,79,3.22,,,sub-034,40,80,700,bloc_loop.csv,2023-06-29_18h52.40.751,PainUncertainty,2022.2.5,142.85959187893448,
grave,forte,stimuli/330Hz,stimuli/forte,bloc_1,prob20hthp_12trials.xlsx,4,48,20,80,0,,,,,0,0,0,0,1,10,22,1,,,,,,,,4.7,504.9263843000001,509.6263974000001,509.6263980200001,0.3046827000000576,510.070295,510.070295,m,0.5221180999999433,513.0631098000001,513.0631098000001,80,2.411,,,sub-034,40,80,700,bloc_loop.csv,2023-06-29_18h52.40.751,PainUncertainty,2022.2.5,142.85959187893448,
grave,forte,stimuli/330Hz,stimuli/forte,bloc_1,prob20hthp_12trials.xlsx,4,48,20,80,0,,,,,0,0,0,0,1,11,23,2,,,,,,,,4,513.0631098000001,517.0647683,517.06473162,0.3052889000000505,517.5111056000001,517.5111056000001,m,0.4695802999999614,519.8384837000001,519.8384837000001,81,1.795,,,sub-034,40,80,700,bloc_loop.csv,2023-06-29_18h52.40.751,PainUncertainty,2022.2.5,142.85959187893448,
grave,forte,stimuli/330Hz,stimuli/forte,bloc_1,prob20hthp_12trials.xlsx,4,48,20,80,0,,,,,0,0,0,0,2,0,24,4,,,,,,,,3.4,519.8384837000001,523.2391275,523.2390416200001,0.3009336000000076,523.6839095,523.6839095,m,0.4970278999999209,525.7031525,525.7031525,82,1.463,,,sub-034,40,80,700,bloc_loop.csv,2023-06-29_18h52.40.751,PainUncertainty,2022.2.5,142.85959187893448,
grave,forte,stimuli/330Hz,stimuli/forte,bloc_1,prob20hthp_12trials.xlsx,4,48,20,80,0,,,,,0,0,0,0,2,1,25,1,,,,,,,,3,525.7031525,528.7048051000002,528.70469282,0.30510560000016085,529.1489145,529.1489145,m,0.7994520999998258,532.4008082,532.4008082,82,2.392,,,sub-034,40,80,700,bloc_loop.csv,2023-06-29_18h52.40.751,PainUncertainty,2022.2.5,142.85959187893448,
grave,forte,stimuli/330Hz,stimuli/forte,bloc_1,prob20hthp_12trials.xlsx,4,48,20,80,0,,,,,0,0,0,0,2,2,26,3,,,,,,,,3,532.4008082,535.4000464000001,535.4000387200001,0.3050915999999688,535.8441931,535.8441931,m,0.5158529000000271,538.7934156000001,538.7934156000001,82,2.327,,,sub-034,40,80,700,bloc_loop.csv,2023-06-29_18h52.40.751,PainUncertainty,2022.2.5,142.85959187893448,
aigu,moderee,stimuli/660Hz,stimuli/moderee,bloc_1,prob20hthp_12trials.xlsx,4,48,20,80,0,,,,,0,0,0,0,2,3,27,7,,,,,,,,3.7,538.7934156000001,542.4981165000002,542.4980648200001,0.30528560000016114,542.9422669,542.9422669,n,0.7384543999996822,546.3852415000001,546.3852415000001,10,2.644,,,sub-034,40,80,700,bloc_loop.csv,2023-06-29_18h52.40.751,PainUncertainty,2022.2.5,142.85959187893448,
grave,moderee,stimuli/330Hz,stimuli/moderee,bloc_1,prob20hthp_12trials.xlsx,4,48,20,80,0,,,,,0,0,0,0,2,4,28,5,,,,,,,,3.1,546.3852415000001,549.4851922,549.48523972,0.3050627000000077,549.9296532000001,549.9296532000001,n,0.900933699999996,553.6570747000001,553.6570747000001,5,2.768,,,sub-034,40,80,700,bloc_loop.csv,2023-06-29_18h52.40.751,PainUncertainty,2022.2.5,142.85959187893448,
aigu,moderee,stimuli/660Hz,stimuli/moderee,bloc_1,prob20hthp_12trials.xlsx,4,48,20,80,0,,,,,0,0,0,0,2,5,29,6,,,,,,,,4.5,553.6570747000001,558.1599214,558.15993112,0.3049525999999787,558.6043716000001,558.6043716000001,n,0.5528580999998667,560.9130938000001,560.9130938000001,12,1.692,,,sub-034,40,80,700,bloc_loop.csv,2023-06-29_18h52.40.751,PainUncertainty,2022.2.5,142.85959187893448,
aigu,moderee,stimuli/660Hz,stimuli/moderee,bloc_1,prob20hthp_12trials.xlsx,4,48,20,80,0,,,,,0,0,0,0,2,6,30,8,,,,,,,,4.7,560.9130938000001,565.6123101000001,565.6122158200001,0.30535200000008444,566.0603914000001,566.0603914000001,n,0.6776417999997193,569.3201014000001,569.3201014000001,11,2.524,,,sub-034,40,80,700,bloc_loop.csv,2023-06-29_18h52.40.751,PainUncertainty,2022.2.5,142.85959187893448,
grave,forte,stimuli/330Hz,stimuli/forte,bloc_1,prob20hthp_12trials.xlsx,4,48,20,80,0,,,,,0,0,0,0,2,7,31,2,,,,,,,,4.7,569.3201014000001,574.0229899000001,574.02299492,0.30545120000010684,574.4696667000001,574.4696667000001,m,0.6787650999997368,578.7176291000001,578.7176291000001,81,3.511,,,sub-034,40,80,700,bloc_loop.csv,2023-06-29_18h52.40.751,PainUncertainty,2022.2.5,142.85959187893448,
aigu,moderee,stimuli/660Hz,stimuli/moderee,bloc_1,prob20hthp_12trials.xlsx,4,48,20,80,0,,,,,0,0,0,0,2,8,32,10,,,,,,,,4.8,578.7176291000001,583.5170913,583.51710602,0.3051772000001165,583.9654585000001,583.9654585000001,n,0.8593565999997281,588.3099431,588.3099431,12,3.398,,,sub-034,40,80,700,bloc_loop.csv,2023-06-29_18h52.40.751,PainUncertainty,2022.2.5,142.85959187893448,
grave,forte,stimuli/330Hz,stimuli/forte,bloc_1,prob20hthp_12trials.xlsx,4,48,20,80,0,,,,,0,0,0,0,2,9,33,0,,,,,,,,3.2,588.3099431,591.5114619000001,591.5126030199999,0.29953230000000985,591.9557856000001,591.9557856000001,m,0.5389425999999276,593.326358,593.326358,80,0.773,,,sub-034,40,80,700,bloc_loop.csv,2023-06-29_18h52.40.751,PainUncertainty,2022.2.5,142.85959187893448,
aigu,forte,stimuli/660Hz,stimuli/forte,bloc_1,prob20hthp_12trials.xlsx,4,48,20,80,0,,,,,0,0,0,0,2,10,34,11,,,,,,,,3,593.326358,596.3310317,596.33091382,0.305368400000134,596.7753013000001,596.7753013000001,m,0.46989129999997203,599.3362574,599.3362574,73,2.031,,,sub-034,40,80,700,bloc_loop.csv,2023-06-29_18h52.40.751,PainUncertainty,2022.2.5,142.85959187893448,
aigu,moderee,stimuli/660Hz,stimuli/moderee,bloc_1,prob20hthp_12trials.xlsx,4,48,20,80,0,,,,,0,0,0,0,2,11,35,9,,,,,,,,4.3,599.3362574,603.6378523000001,603.63797142,0.3053150000000642,604.0869779,604.0869779,n,0.8548763999999665,605.8254220000001,605.8254220000001,10,0.829,,,sub-034,40,80,700,bloc_loop.csv,2023-06-29_18h52.40.751,PainUncertainty,2022.2.5,142.85959187893448,
grave,forte,stimuli/330Hz,stimuli/forte,bloc_1,prob20hthp_12trials.xlsx,4,48,20,80,0,,,,,0,0,0,0,3,0,36,2,,,,,,,,3.3,605.8254220000001,609.1312244000001,609.13133302,0.30498659999989286,609.5754104,609.5754104,m,0.5671531999998933,613.385016,613.385016,81,3.193,,,sub-034,40,80,700,bloc_loop.csv,2023-06-29_18h52.40.751,PainUncertainty,2022.2.5,142.85959187893448,
aigu,moderee,stimuli/660Hz,stimuli/moderee,bloc_1,prob20hthp_12trials.xlsx,4,48,20,80,0,,,,,0,0,0,0,3,1,37,10,,,,,,,,3.9,613.385016,617.2850725000001,617.2850316199999,0.3049817000000985,617.7293870999999,617.7293870999999,n,2.024221899999702,622.3360708,622.3360708,12,2.518,,,sub-034,40,80,700,bloc_loop.csv,2023-06-29_18h52.40.751,PainUncertainty,2022.2.5,142.85959187893448,
grave,forte,stimuli/330Hz,stimuli/forte,bloc_1,prob20hthp_12trials.xlsx,4,48,20,80,0,,,,,0,0,0,0,3,2,38,3,,,,,,,,3.6,622.3360708,625.9394308000001,625.93932612,0.3051758999999947,626.3877280000002,626.3877280000002,m,0.4437951999998404,628.3931315,628.3931315,79,1.51,,,sub-034,40,80,700,bloc_loop.csv,2023-06-29_18h52.40.751,PainUncertainty,2022.2.5,142.85959187893448,
aigu,moderee,stimuli/660Hz,stimuli/moderee,bloc_1,prob20hthp_12trials.xlsx,4,48,20,80,0,,,,,0,0,0,0,3,3,39,6,,,,,,,,3.3,628.3931315,631.6965057,631.69649452,0.2994567000000643,632.1390593000001,632.1390593000001,n,0.6552202999998826,634.0352044000001,634.0352044000001,8,1.192,,,sub-034,40,80,700,bloc_loop.csv,2023-06-29_18h52.40.751,PainUncertainty,2022.2.5,142.85959187893448,
aigu,moderee,stimuli/660Hz,stimuli/moderee,bloc_1,prob20hthp_12trials.xlsx,4,48,20,80,0,,,,,0,0,0,0,3,4,40,9,,,,,,,,3.2,634.0352044000001,637.2388041000002,637.2389027199999,0.30482770000003256,637.6833948000001,637.6833948000001,n,1.4973895999999058,640.3966006,640.3966006,12,1.159,,,sub-034,40,80,700,bloc_loop.csv,2023-06-29_18h52.40.751,PainUncertainty,2022.2.5,142.85959187893448,
grave,moderee,stimuli/330Hz,stimuli/moderee,bloc_1,prob20hthp_12trials.xlsx,4,48,20,80,0,,,,,0,0,0,0,3,5,41,5,,,,,,,,4.8,640.3966006,645.1981262000002,645.19817272,0.3054094999999961,645.6423127,645.6423127,n,0.756515699999909,648.3396506000001,648.3396506000001,8,1.893,,,sub-034,40,80,700,bloc_loop.csv,2023-06-29_18h52.40.751,PainUncertainty,2022.2.5,142.85959187893448,
aigu,moderee,stimuli/660Hz,stimuli/moderee,bloc_1,prob20hthp_12trials.xlsx,4,48,20,80,0,,,,,0,0,0,0,3,6,42,8,,,,,,,,4.4,648.3396506000001,652.7407104000001,652.74073322,0.3055449999999382,653.187484,653.187484,n,2.36721539999985,658.3949634,658.3949634,13,2.78,,,sub-034,40,80,700,bloc_loop.csv,2023-06-29_18h52.40.751,PainUncertainty,2022.2.5,142.85959187893448,
grave,forte,stimuli/330Hz,stimuli/forte,bloc_1,prob20hthp_12trials.xlsx,4,48,20,80,0,,,,,0,0,0,0,3,7,43,0,,,,,,,,4.5,658.3949634,662.895076,662.89502672,0.3053368999999293,663.3394746000001,663.3394746000001,m,0.5453933999997389,666.2588913,666.2588913,81,2.31,,,sub-034,40,80,700,bloc_loop.csv,2023-06-29_18h52.40.751,PainUncertainty,2022.2.5,142.85959187893448,
aigu,moderee,stimuli/660Hz,stimuli/moderee,bloc_1,prob20hthp_12trials.xlsx,4,48,20,80,0,,,,,0,0,0,0,3,8,44,7,,,,,,,,3.9,666.2588913,670.159727,670.15973012,0.3056708999999955,670.6086386,670.6086386,n,0.5811728999999559,672.5062569000002,672.5062569000002,9,1.254,,,sub-034,40,80,700,bloc_loop.csv,2023-06-29_18h52.40.751,PainUncertainty,2022.2.5,142.85959187893448,
grave,forte,stimuli/330Hz,stimuli/forte,bloc_1,prob20hthp_12trials.xlsx,4,48,20,80,0,,,,,0,0,0,0,3,9,45,4,,,,,,,,3.2,672.5062569000002,675.7089314,675.7090436200001,0.3047215999999935,676.1531171000001,676.1531171000001,m,1.0261997000000065,680.4032067,680.4032067,82,3.169,,,sub-034,40,80,700,bloc_loop.csv,2023-06-29_18h52.40.751,PainUncertainty,2022.2.5,142.85959187893448,
grave,forte,stimuli/330Hz,stimuli/forte,bloc_1,prob20hthp_12trials.xlsx,4,48,20,80,0,,,,,0,0,0,0,3,10,46,1,,,,,,,,4.9,680.4032067,685.3073707000001,685.30747182,0.30471780000016224,685.7514141000001,685.7514141000001,m,0.8472688999997899,689.5139127,689.5139127,83,2.852,,,sub-034,40,80,700,bloc_loop.csv,2023-06-29_18h52.40.751,PainUncertainty,2022.2.5,142.85959187893448,
aigu,forte,stimuli/660Hz,stimuli/forte,bloc_1,prob20hthp_12trials.xlsx,4,48,20,80,0,,,,,0,0,0,0,3,11,47,11,,,,,,,,3.7,689.5139127,693.2187173,693.21874222,0.30007049999994706,693.6627125,693.6627125,m,0.5855776999999307,696.9930333,696.9930333,81,2.678,,,sub-034,40,80,700,bloc_loop.csv,2023-06-29_18h52.40.751,PainUncertainty,2022.2.5,142.85959187893448,
grave,forte,stimuli/330Hz,stimuli/forte,bloc_2,prob50_50_4trials.xlsx,2,8,50,50,1,,,,,0,1,1,1,0,0,0,1,,,,,,,,4.7,696.9930333,701.6986552000001,701.69854902,0.2997805999998491,702.1422706000001,702.1422706000001,m,0.5194636999997329,705.1274808000001,705.1274808000001,82,2.406,,,sub-034,40,80,700,bloc_loop.csv,2023-06-29_18h52.40.751,PainUncertainty,2022.2.5,142.85959187893448,
grave,moderee,stimuli/330Hz,stimuli/moderee,bloc_2,prob50_50_4trials.xlsx,2,8,50,50,1,,,,,0,1,1,1,0,1,1,0,,,,,,,,4.5,705.1274808000001,709.6301384999999,709.6301176200002,0.2992210999996132,710.0725319999999,710.0725319999999,n,0.6260407999998279,712.9911216000003,712.9911216000003,8,2.233,,,sub-034,40,80,700,bloc_loop.csv,2023-06-29_18h52.40.751,PainUncertainty,2022.2.5,142.85959187893448,
aigu,forte,stimuli/660Hz,stimuli/forte,bloc_2,prob50_50_4trials.xlsx,2,8,50,50,1,,,,,0,1,1,1,0,2,2,3,,,,,,,,3.2,712.9911216000003,716.1929453999999,716.1930944200001,0.3048791999999594,716.6371412999999,716.6371412999999,m,0.49688319999995656,719.8478591999999,719.8478591999999,81,2.649,,,sub-034,40,80,700,bloc_loop.csv,2023-06-29_18h52.40.751,PainUncertainty,2022.2.5,142.85959187893448,
aigu,moderee,stimuli/660Hz,stimuli/moderee,bloc_2,prob50_50_4trials.xlsx,2,8,50,50,1,,,,,0,1,1,1,0,3,3,2,,,,,,,,3.2,719.8478591999999,723.0479701000002,723.0480743199998,0.3048644000000422,723.4921925000001,723.4921925000001,n,0.9851060000000871,728.1913311000001,728.1913311000001,7,3.651,,,sub-034,40,80,700,bloc_loop.csv,2023-06-29_18h52.40.751,PainUncertainty,2022.2.5,142.85959187893448,
aigu,moderee,stimuli/660Hz,stimuli/moderee,bloc_2,prob50_50_4trials.xlsx,2,8,50,50,1,,,,,0,1,1,1,1,0,4,2,,,,,,,,5,728.1913311000001,733.1950653000001,733.1951364200002,0.3049625999997261,733.6392573999999,733.6392573999999,n,0.7048311999997168,737.159167,737.159167,7,2.747,,,sub-034,40,80,700,bloc_loop.csv,2023-06-29_18h52.40.751,PainUncertainty,2022.2.5,142.85959187893448,
grave,forte,stimuli/330Hz,stimuli/forte,bloc_2,prob50_50_4trials.xlsx,2,8,50,50,1,,,,,0,1,1,1,1,1,5,1,,,,,,,,4,737.159167,741.1614493,741.1613640200001,0.3051295000000209,741.6127733999999,741.6127733999999,m,0.4816078999997444,744.8455955000002,744.8455955000002,74,2.699,,,sub-034,40,80,700,bloc_loop.csv,2023-06-29_18h52.40.751,PainUncertainty,2022.2.5,142.85959187893448,
aigu,forte,stimuli/660Hz,stimuli/forte,bloc_2,prob50_50_4trials.xlsx,2,8,50,50,1,,,,,0,1,1,1,1,2,6,3,,,,,,,,4.1,744.8455955000002,748.9469984999998,748.94707322,0.30520809999961784,749.3935963000001,749.3935963000001,m,0.8654354999998759,752.7741245999998,752.7741245999998,77,2.463,,,sub-034,40,80,700,bloc_loop.csv,2023-06-29_18h52.40.751,PainUncertainty,2022.2.5,142.85959187893448,
grave,moderee,stimuli/330Hz,stimuli/moderee,bloc_2,prob50_50_4trials.xlsx,2,8,50,50,1,,,,,0,1,1,1,1,3,7,0,,,,,,,,4.6,752.7741245999998,757.3788619,757.37903532,0.3047074999999495,757.8227136000003,757.8227136000003,n,0.8914673999997831,761.8143874,761.8143874,10,1.067,,,sub-034,40,80,700,bloc_loop.csv,2023-06-29_18h52.40.751,PainUncertainty,2022.2.5,142.85959187893448,
,,,,bloc_2,prob50_50_4trials.xlsx,2,8,50,50,1,,,,,0,1,1,1,,,,,0,0,0,0,,,,,,,,,,,,,,,,,761.8143874,806.0788810000001,sub-034,40,80,700,bloc_loop.csv,2023-06-29_18h52.40.751,PainUncertainty,2022.2.5,142.85959187893448,
grave,moderee,stimuli/330Hz,stimuli/moderee,bloc_3,prob80hthp_12trials.xlsx,2,24,80,20,0,,,,,0,2,2,2,0,0,0,2,,,,,,,,3.6,807.4206301000002,811.0246266000001,811.0247948200001,0.3044374000000971,811.4687595000003,811.4687595000003,n,0.7120491999999103,815.3473322000002,815.3473322000002,9,3.102,,,sub-034,40,80,700,bloc_loop.csv,2023-06-29_18h52.40.751,PainUncertainty,2022.2.5,142.85959187893448,
grave,moderee,stimuli/330Hz,stimuli/moderee,bloc_3,prob80hthp_12trials.xlsx,2,24,80,20,0,,,,,0,2,2,2,0,1,1,4,,,,,,,,4.2,815.3473322000002,819.5532037999999,819.5531384200001,0.30510169999979553,819.9971407999999,819.9971407999999,n,0.5917026000001897,823.2898393000003,823.2898393000003,6,2.637,,,sub-034,40,80,700,bloc_loop.csv,2023-06-29_18h52.40.751,PainUncertainty,2022.2.5,142.85959187893448,
aigu,moderee,stimuli/660Hz,stimuli/moderee,bloc_3,prob80hthp_12trials.xlsx,2,24,80,20,0,,,,,0,2,2,2,0,2,2,11,,,,,,,,4.9,823.2898393000003,828.1926953999998,828.1927669200002,0.3046389999999519,828.6440100000002,828.6440100000002,n,0.8156437999996342,833.0379611999999,833.0379611999999,8,3.527,,,sub-034,40,80,700,bloc_loop.csv,2023-06-29_18h52.40.751,PainUncertainty,2022.2.5,142.85959187893448,
grave,moderee,stimuli/330Hz,stimuli/moderee,bloc_3,prob80hthp_12trials.xlsx,2,24,80,20,0,,,,,0,2,2,2,0,3,3,0,,,,,,,,4.3,833.0379611999999,837.3394675000002,837.3396425200001,0.30576990000008664,837.7886796999999,837.7886796999999,n,0.5810169000001224,839.8307404999998,839.8307404999998,10,1.408,,,sub-034,40,80,700,bloc_loop.csv,2023-06-29_18h52.40.751,PainUncertainty,2022.2.5,142.85959187893448,
aigu,forte,stimuli/660Hz,stimuli/forte,bloc_3,prob80hthp_12trials.xlsx,2,24,80,20,0,,,,,0,2,2,2,0,4,4,9,,,,,,,,3,839.8307404999998,842.8332281,842.83320282,0.3053250000002663,843.2779480000002,843.2779480000002,m,0.4125707999996848,846.0809820000002,846.0809820000002,79,2.337,,,sub-034,40,80,700,bloc_loop.csv,2023-06-29_18h52.40.751,PainUncertainty,2022.2.5,142.85959187893448,
aigu,forte,stimuli/660Hz,stimuli/forte,bloc_3,prob80hthp_12trials.xlsx,2,24,80,20,0,,,,,0,2,2,2,0,5,5,8,,,,,,,,4,846.0809820000002,850.0845310000002,850.0844991199999,0.3053136000003178,850.5335433000002,850.5335433000002,m,1.0242413999999371,854.0232346,854.0232346,81,2.409,,,sub-034,40,80,700,bloc_loop.csv,2023-06-29_18h52.40.751,PainUncertainty,2022.2.5,142.85959187893448,
grave,moderee,stimuli/330Hz,stimuli/moderee,bloc_3,prob80hthp_12trials.xlsx,2,24,80,20,0,,,,,0,2,2,2,0,6,6,1,,,,,,,,4.1,854.0232346,858.1268938000001,858.1270320199999,0.3048135999997612,858.5747024,858.5747024,n,0.49670689999993556,862.2085881,862.2085881,12,3.072,,,sub-034,40,80,700,bloc_loop.csv,2023-06-29_18h52.40.751,PainUncertainty,2022.2.5,142.85959187893448,
aigu,forte,stimuli/660Hz,stimuli/forte,bloc_3,prob80hthp_12trials.xlsx,2,24,80,20,0,,,,,0,2,2,2,0,7,7,6,,,,,,,,4.4,862.2085881,866.6139977999999,866.6141007200001,0.3002566999998635,867.0584577000002,867.0584577000002,m,0.5097255999994559,870.3896410999998,870.3896410999998,82,2.769,,,sub-034,40,80,700,bloc_loop.csv,2023-06-29_18h52.40.751,PainUncertainty,2022.2.5,142.85959187893448,
grave,moderee,stimuli/330Hz,stimuli/moderee,bloc_3,prob80hthp_12trials.xlsx,2,24,80,20,0,,,,,0,2,2,2,0,8,8,3,,,,,,,,5,870.3896410999998,875.3931587,875.3932210199998,0.3053482000000258,875.8407829,875.8407829,n,0.5356783999995969,880.1872135000001,880.1872135000001,6,3.755,,,sub-034,40,80,700,bloc_loop.csv,2023-06-29_18h52.40.751,PainUncertainty,2022.2.5,142.85959187893448,
aigu,forte,stimuli/660Hz,stimuli/forte,bloc_3,prob80hthp_12trials.xlsx,2,24,80,20,0,,,,,0,2,2,2,0,9,9,10,,,,,,,,4.5,880.1872135000001,884.6926199000002,884.6925893199998,0.30554209999991144,885.1420626000001,885.1420626000001,m,0.7031678999996984,888.8996331999999,888.8996331999999,85,2.99,,,sub-034,40,80,700,bloc_loop.csv,2023-06-29_18h52.40.751,PainUncertainty,2022.2.5,142.85959187893448,
aigu,forte,stimuli/660Hz,stimuli/forte,bloc_3,prob80hthp_12trials.xlsx,2,24,80,20,0,,,,,0,2,2,2,0,10,10,7,,,,,,,,4.8,888.8996331999999,893.7004659000002,893.7005125200001,0.3052606999999625,894.1448040000002,894.1448040000002,m,0.8006885999998303,898.2175841999999,898.2175841999999,87,3.213,,,sub-034,40,80,700,bloc_loop.csv,2023-06-29_18h52.40.751,PainUncertainty,2022.2.5,142.85959187893448,
grave,forte,stimuli/330Hz,stimuli/forte,bloc_3,prob80hthp_12trials.xlsx,2,24,80,20,0,,,,,0,2,2,2,0,11,11,5,,,,,,,,4,898.2175841999999,902.2223982000003,902.2224264200001,0.3051070000001346,902.6666891000002,902.6666891000002,m,0.47837819999949716,906.1117026,906.1117026,84,2.913,,,sub-034,40,80,700,bloc_loop.csv,2023-06-29_18h52.40.751,PainUncertainty,2022.2.5,142.85959187893448,
aigu,forte,stimuli/660Hz,stimuli/forte,bloc_3,prob80hthp_12trials.xlsx,2,24,80,20,0,,,,,0,2,2,2,1,0,12,10,,,,,,,,3.1,906.1117026,909.2166395000002,909.2166927199999,0.30490119999967646,909.6605904999999,909.6605904999999,m,0.7641254999998637,912.2171618999998,912.2171618999998,81,1.737,,,sub-034,40,80,700,bloc_loop.csv,2023-06-29_18h52.40.751,PainUncertainty,2022.2.5,142.85959187893448,
aigu,forte,stimuli/660Hz,stimuli/forte,bloc_3,prob80hthp_12trials.xlsx,2,24,80,20,0,,,,,0,2,2,2,1,1,13,8,,,,,,,,4.1,912.2171618999998,916.3220082999999,916.3222533199998,0.30466530000012426,916.7696492000002,916.7696492000002,m,0.7028383000001668,920.7843808,920.7843808,80,3.259,,,sub-034,40,80,700,bloc_loop.csv,2023-06-29_18h52.40.751,PainUncertainty,2022.2.5,142.85959187893448,
aigu,forte,stimuli/660Hz,stimuli/forte,bloc_3,prob80hthp_12trials.xlsx,2,24,80,20,0,,,,,0,2,2,2,1,2,14,6,,,,,,,,5,920.7843808,925.7877859000002,925.7877545200001,0.30499369999961345,926.2322068999999,926.2322068999999,m,0.6577287000000069,928.2178517999998,928.2178517999998,78,1.274,,,sub-034,40,80,700,bloc_loop.csv,2023-06-29_18h52.40.751,PainUncertainty,2022.2.5,142.85959187893448,
grave,moderee,stimuli/330Hz,stimuli/moderee,bloc_3,prob80hthp_12trials.xlsx,2,24,80,20,0,,,,,0,2,2,2,1,3,15,3,,,,,,,,3.5,928.2178517999998,931.7192066999999,931.71901172,0.30527810000012323,932.1635047000002,932.1635047000002,n,0.6537045000000035,934.0023764999999,934.0023764999999,9,1.128,,,sub-034,40,80,700,bloc_loop.csv,2023-06-29_18h52.40.751,PainUncertainty,2022.2.5,142.85959187893448,
grave,moderee,stimuli/330Hz,stimuli/moderee,bloc_3,prob80hthp_12trials.xlsx,2,24,80,20,0,,,,,0,2,2,2,1,4,16,2,,,,,,,,3.2,934.0023764999999,937.2058729000003,937.2058844199998,0.2991366000001108,937.6486874999998,937.6486874999998,n,0.44022629999972196,940.8910499000001,940.8910499000001,10,2.74,,,sub-034,40,80,700,bloc_loop.csv,2023-06-29_18h52.40.751,PainUncertainty,2022.2.5,142.85959187893448,
aigu,forte,stimuli/660Hz,stimuli/forte,bloc_3,prob80hthp_12trials.xlsx,2,24,80,20,0,,,,,0,2,2,2,1,5,17,9,,,,,,,,3.9,940.8910499000001,944.7901087000002,944.7901229199999,0.3062019000003602,945.2393380000001,945.2393380000001,m,0.40320770000016637,947.0440031,947.0440031,82,1.35,,,sub-034,40,80,700,bloc_loop.csv,2023-06-29_18h52.40.751,PainUncertainty,2022.2.5,142.85959187893448,
grave,moderee,stimuli/330Hz,stimuli/moderee,bloc_3,prob80hthp_12trials.xlsx,2,24,80,20,0,,,,,0,2,2,2,1,6,18,1,,,,,,,,4.2,947.0440031,951.2491584000002,951.2491202200001,0.3049012000001312,951.693313,951.693313,n,0.5903894999996737,954.5086490000001,954.5086490000001,10,2.162,,,sub-034,40,80,700,bloc_loop.csv,2023-06-29_18h52.40.751,PainUncertainty,2022.2.5,142.85959187893448,
grave,moderee,stimuli/330Hz,stimuli/moderee,bloc_3,prob80hthp_12trials.xlsx,2,24,80,20,0,,,,,0,2,2,2,1,7,19,4,,,,,,,,4.9,954.5086490000001,959.4098501999999,959.4098287200002,0.3052927999997337,959.8547532999999,959.8547532999999,n,0.9416510999999446,962.4049244999999,962.4049244999999,9,1.541,,,sub-034,40,80,700,bloc_loop.csv,2023-06-29_18h52.40.751,PainUncertainty,2022.2.5,142.85959187893448,
aigu,moderee,stimuli/660Hz,stimuli/moderee,bloc_3,prob80hthp_12trials.xlsx,2,24,80,20,0,,,,,0,2,2,2,1,8,20,11,,,,,,,,4.7,962.4049244999999,967.1052517,967.1052315200002,0.30507230000011987,967.5492987,967.5492987,n,0.7648021999998491,970.6822574999999,970.6822574999999,11,2.315,,,sub-034,40,80,700,bloc_loop.csv,2023-06-29_18h52.40.751,PainUncertainty,2022.2.5,142.85959187893448,
grave,moderee,stimuli/330Hz,stimuli/moderee,bloc_3,prob80hthp_12trials.xlsx,2,24,80,20,0,,,,,0,2,2,2,1,9,21,0,,,,,,,,3.1,970.6822574999999,973.7865385000002,973.7866226200001,0.30497950000017227,974.2306974,974.2306974,n,0.6866631999996571,976.6438028,976.6438028,14,1.678,,,sub-034,40,80,700,bloc_loop.csv,2023-06-29_18h52.40.751,PainUncertainty,2022.2.5,142.85959187893448,
aigu,forte,stimuli/660Hz,stimuli/forte,bloc_3,prob80hthp_12trials.xlsx,2,24,80,20,0,,,,,0,2,2,2,1,10,22,7,,,,,,,,3.4,976.6438028,980.0442396000001,980.0442476199999,0.305230500000107,980.4884757000002,980.4884757000002,m,0.8251624999998057,984.7314368,984.7314368,82,3.357,,,sub-034,40,80,700,bloc_loop.csv,2023-06-29_18h52.40.751,PainUncertainty,2022.2.5,142.85959187893448,
grave,forte,stimuli/330Hz,stimuli/forte,bloc_3,prob80hthp_12trials.xlsx,2,24,80,20,0,,,,,0,2,2,2,1,11,23,5,,,,,,,,4.4,984.7314368,989.1355473000001,989.1358832200001,0.30257579999988593,989.5802291000002,989.5802291000002,m,0.4057844999997542,992.0200917,992.0200917,82,1.976,,,sub-034,40,80,700,bloc_loop.csv,2023-06-29_18h52.40.751,PainUncertainty,2022.2.5,142.85959187893448,
grave,moderee,stimuli/330Hz,stimuli/moderee,bloc_4,prob50_50_4trials.xlsx,2,8,50,50,1,,,,,0,3,3,3,0,0,0,0,,,,,,,,3.8,992.0200917,995.8238422000002,995.8238542199999,0.30522449999989476,996.2682640999999,996.2682640999999,n,0.760037299999567,1000.1732445999999,1000.1732445999999,7,3.088,,,sub-034,40,80,700,bloc_loop.csv,2023-06-29_18h52.40.751,PainUncertainty,2022.2.5,142.85959187893448,
aigu,moderee,stimuli/660Hz,stimuli/moderee,bloc_4,prob50_50_4trials.xlsx,2,8,50,50,1,,,,,0,3,3,3,0,1,1,2,,,,,,,,4.3,1000.1732445999999,1004.4780677000001,1004.4783251199999,0.3046619000001556,1004.9221055999999,1004.9221055999999,n,0.6571936999998798,1009.2176431999999,1009.2176431999999,5,3.581,,,sub-034,40,80,700,bloc_loop.csv,2023-06-29_18h52.40.751,PainUncertainty,2022.2.5,142.85959187893448,
aigu,forte,stimuli/660Hz,stimuli/forte,bloc_4,prob50_50_4trials.xlsx,2,8,50,50,1,,,,,0,3,3,3,0,2,2,3,,,,,,,,3.3,1009.2176431999999,1012.5203899,1012.5206075200001,0.3045526000000791,1012.9645625,1012.9645625,m,0.46056429999998727,1015.8841294000001,1015.8841294000001,80,2.393,,,sub-034,40,80,700,bloc_loop.csv,2023-06-29_18h52.40.751,PainUncertainty,2022.2.5,142.85959187893448,
grave,forte,stimuli/330Hz,stimuli/forte,bloc_4,prob50_50_4trials.xlsx,2,8,50,50,1,,,,,0,3,3,3,0,3,3,1,,,,,,,,3.9,1015.8841294000001,1019.7851418000002,1019.7851829200001,0.305212599999777,1020.2294442999998,1020.2294442999998,m,0.7519053999994867,1023.1378698000001,1023.1378698000001,82,2.1,,,sub-034,40,80,700,bloc_loop.csv,2023-06-29_18h52.40.751,PainUncertainty,2022.2.5,142.85959187893448,
aigu,forte,stimuli/660Hz,stimuli/forte,bloc_4,prob50_50_4trials.xlsx,2,8,50,50,1,,,,,0,3,3,3,1,0,4,3,,,,,,,,4.5,1023.1378698000001,1027.6403096000001,1027.64026562,0.30557279999993625,1028.0864766000002,1028.0864766000002,m,0.3901986999994733,1029.6597042,1029.6597042,84,1.12,,,sub-034,40,80,700,bloc_loop.csv,2023-06-29_18h52.40.751,PainUncertainty,2022.2.5,142.85959187893448,
aigu,moderee,stimuli/660Hz,stimuli/moderee,bloc_4,prob50_50_4trials.xlsx,2,8,50,50,1,,,,,0,3,3,3,1,1,5,2,,,,,,,,3.8,1029.6597042,1033.4604765000001,1033.46048992,0.3049658999998428,1033.9051006000002,1033.9051006000002,n,0.5482108000001062,1035.924796,1035.924796,10,1.418,,,sub-034,40,80,700,bloc_loop.csv,2023-06-29_18h52.40.751,PainUncertainty,2022.2.5,142.85959187893448,
grave,moderee,stimuli/330Hz,stimuli/moderee,bloc_4,prob50_50_4trials.xlsx,2,8,50,50,1,,,,,0,3,3,3,1,2,6,0,,,,,,,,4.7,1035.924796,1040.6279992000002,1040.62805262,0.3048649000002115,1041.0721646,1041.0721646,n,0.8273317000002862,1042.7974075,1042.7974075,11,0.844,,,sub-034,40,80,700,bloc_loop.csv,2023-06-29_18h52.40.751,PainUncertainty,2022.2.5,142.85959187893448,
grave,forte,stimuli/330Hz,stimuli/forte,bloc_4,prob50_50_4trials.xlsx,2,8,50,50,1,,,,,0,3,3,3,1,3,7,1,,,,,,,,3.6,1042.7974075,1046.3995077000002,1046.39953662,0.3049058999999943,1046.8437665,1046.8437665,m,0.8511189000000741,1052.3718111,1052.3718111,82,2.643,,,sub-034,40,80,700,bloc_loop.csv,2023-06-29_18h52.40.751,PainUncertainty,2022.2.5,142.85959187893448,
,,,,bloc_4,prob50_50_4trials.xlsx,2,8,50,50,1,,,,,0,3,3,3,,,,,0,0,0,0,,,,,,,,,,,,,,,,,1052.3718111,1123.0961157,sub-034,40,80,700,bloc_loop.csv,2023-06-29_18h52.40.751,PainUncertainty,2022.2.5,142.85959187893448,
aigu,moderee,stimuli/660Hz,stimuli/moderee,bloc_5,prob20hthp_12trials.xlsx,2,24,20,80,0,,,,,0,4,4,4,0,0,0,9,,,,,,,,4.9,1123.9930631999998,1128.8954218000001,1128.8953405200002,0.3051959999997962,1129.339534,1129.339534,n,0.9219250999999531,1133.6588934,1133.6588934,11,3.342,,,sub-034,40,80,700,bloc_loop.csv,2023-06-29_18h52.40.751,PainUncertainty,2022.2.5,142.85959187893448,
grave,moderee,stimuli/330Hz,stimuli/moderee,bloc_5,prob20hthp_12trials.xlsx,2,24,20,80,0,,,,,0,4,4,4,0,1,1,5,,,,,,,,3.5,1133.6588934,1137.1604559,1137.16055342,0.304848100000072,1137.6045227000002,1137.6045227000002,n,0.6927771999999095,1141.0274889,1141.0274889,13,1.633,,,sub-034,40,80,700,bloc_loop.csv,2023-06-29_18h52.40.751,PainUncertainty,2022.2.5,142.85959187893448,
grave,forte,stimuli/330Hz,stimuli/forte,bloc_5,prob20hthp_12trials.xlsx,2,24,20,80,0,,,,,0,4,4,4,0,2,2,2,,,,,,,,3.3,1141.0274889,1144.3278951999998,1144.32779392,0.30502800000022035,1144.7757407000001,1144.7757407000001,m,0.8021450999999615,1148.2690928,1148.2690928,79,2.636,,,sub-034,40,80,700,bloc_loop.csv,2023-06-29_18h52.40.751,PainUncertainty,2022.2.5,142.85959187893448,
grave,forte,stimuli/330Hz,stimuli/forte,bloc_5,prob20hthp_12trials.xlsx,2,24,20,80,0,,,,,0,4,4,4,0,3,3,1,,,,,,,,3.4,1148.2690928,1151.6690412,1151.66911302,0.3054379999998673,1152.1160068000002,1152.1160068000002,m,0.8492415999999139,1155.7476681,1155.7476681,82,2.718,,,sub-034,40,80,700,bloc_loop.csv,2023-06-29_18h52.40.751,PainUncertainty,2022.2.5,142.85959187893448,
grave,forte,stimuli/330Hz,stimuli/forte,bloc_5,prob20hthp_12trials.xlsx,2,24,20,80,0,,,,,0,4,4,4,0,4,4,4,,,,,,,,4.2,1155.7476681,1159.9477737999998,1159.94776932,0.3050604000000021,1160.3961659,1160.3961659,m,0.6406283999999687,1163.5470816,1163.5470816,81,2.449,,,sub-034,40,80,700,bloc_loop.csv,2023-06-29_18h52.40.751,PainUncertainty,2022.2.5,142.85959187893448,
aigu,moderee,stimuli/660Hz,stimuli/moderee,bloc_5,prob20hthp_12trials.xlsx,2,24,20,80,0,,,,,0,4,4,4,0,5,5,8,,,,,,,,4.8,1163.5470816,1168.3517803000002,1168.35182642,0.3052735000001121,1168.7985003000001,1168.7985003000001,n,0.476400300000023,1170.8344574999999,1170.8344574999999,11,1.51,,,sub-034,40,80,700,bloc_loop.csv,2023-06-29_18h52.40.751,PainUncertainty,2022.2.5,142.85959187893448,
grave,forte,stimuli/330Hz,stimuli/forte,bloc_5,prob20hthp_12trials.xlsx,2,24,20,80,0,,,,,0,4,4,4,0,6,6,3,,,,,,,,4,1170.8344574999999,1174.8383975,1174.8383809200002,0.3000894000001608,1175.2833394000002,1175.2833394000002,n,0.4562311999998201,1176.6530448,1176.6530448,80,0.851,,,sub-034,40,80,700,bloc_loop.csv,2023-06-29_18h52.40.751,PainUncertainty,2022.2.5,142.85959187893448,
aigu,moderee,stimuli/660Hz,stimuli/moderee,bloc_5,prob20hthp_12trials.xlsx,2,24,20,80,0,,,,,0,4,4,4,0,7,7,7,,,,,,,,3.1,1176.6530448,1179.7560451000002,1179.75602232,0.305485200000021,1180.2030759000002,1180.2030759000002,n,0.4438435000001846,1183.7831042999999,1183.7831042999999,9,3.073,,,sub-034,40,80,700,bloc_loop.csv,2023-06-29_18h52.40.751,PainUncertainty,2022.2.5,142.85959187893448,
grave,forte,stimuli/330Hz,stimuli/forte,bloc_5,prob20hthp_12trials.xlsx,2,24,20,80,0,,,,,0,4,4,4,0,8,8,0,,,,,,,,5,1183.7831042999999,1188.7844178000003,1188.78444802,0.3051841000001332,1189.2286599000001,1189.2286599000001,m,0.5179235999999037,1192.3493841000002,1192.3493841000002,82,2.545,,,sub-034,40,80,700,bloc_loop.csv,2023-06-29_18h52.40.751,PainUncertainty,2022.2.5,142.85959187893448,
aigu,moderee,stimuli/660Hz,stimuli/moderee,bloc_5,prob20hthp_12trials.xlsx,2,24,20,80,0,,,,,0,4,4,4,0,9,9,10,,,,,,,,5,1192.3493841000002,1197.3485640000001,1197.34872762,0.30432250000012573,1197.7924348,1197.7924348,n,0.5898661999995056,1200.4833178000001,1200.4833178000001,9,2.038,,,sub-034,40,80,700,bloc_loop.csv,2023-06-29_18h52.40.751,PainUncertainty,2022.2.5,142.85959187893448,
aigu,moderee,stimuli/660Hz,stimuli/moderee,bloc_5,prob20hthp_12trials.xlsx,2,24,20,80,0,,,,,0,4,4,4,0,10,10,6,,,,,,,,3.9,1200.4833178000001,1204.3836344,1204.3836334199998,0.3050445000003492,1204.8280604,1204.8280604,n,0.6224275999998099,1208.3325316000003,1208.3325316000003,13,2.823,,,sub-034,40,80,700,bloc_loop.csv,2023-06-29_18h52.40.751,PainUncertainty,2022.2.5,142.85959187893448,
aigu,forte,stimuli/660Hz,stimuli/forte,bloc_5,prob20hthp_12trials.xlsx,2,24,20,80,0,,,,,0,4,4,4,0,11,11,11,,,,,,,,3.4,1208.3325316000003,1211.7316346999999,1211.7317522199999,0.30535069999996267,1212.1786244000002,1212.1786244000002,m,0.6055053999998563,1215.2054317,1215.2054317,86,2.366,,,sub-034,40,80,700,bloc_loop.csv,2023-06-29_18h52.40.751,PainUncertainty,2022.2.5,142.85959187893448,
aigu,moderee,stimuli/660Hz,stimuli/moderee,bloc_5,prob20hthp_12trials.xlsx,2,24,20,80,0,,,,,0,4,4,4,1,0,12,9,,,,,,,,4,1215.2054317,1219.2047185,1219.20478372,0.3050615000001926,1219.6490513,1219.6490513,n,0.5199608999996599,1222.5878725999999,1222.5878725999999,8,2.364,,,sub-034,40,80,700,bloc_loop.csv,2023-06-29_18h52.40.751,PainUncertainty,2022.2.5,142.85959187893448,
aigu,moderee,stimuli/660Hz,stimuli/moderee,bloc_5,prob20hthp_12trials.xlsx,2,24,20,80,0,,,,,0,4,4,4,1,1,13,10,,,,,,,,3.4,1222.5878725999999,1225.9903207,1225.9903191199999,0.30502809999961755,1226.4348387000002,1226.4348387000002,n,0.6221513000000414,1229.6844162999998,1229.6844162999998,9,2.573,,,sub-034,40,80,700,bloc_loop.csv,2023-06-29_18h52.40.751,PainUncertainty,2022.2.5,142.85959187893448,
grave,forte,stimuli/330Hz,stimuli/forte,bloc_5,prob20hthp_12trials.xlsx,2,24,20,80,0,,,,,0,4,4,4,1,2,14,4,,,,,,,,4.6,1229.6844162999998,1234.2837707,1234.2834732200001,0.30496720000019195,1234.7310851999998,1234.7310851999998,m,0.48550699999987046,1238.2513509000003,1238.2513509000003,81,2.983,,,sub-034,40,80,700,bloc_loop.csv,2023-06-29_18h52.40.751,PainUncertainty,2022.2.5,142.85959187893448,
aigu,moderee,stimuli/660Hz,stimuli/moderee,bloc_5,prob20hthp_12trials.xlsx,2,24,20,80,0,,,,,0,4,4,4,1,3,15,7,,,,,,,,4.5,1238.2513509000003,1242.7561617,1242.75623312,0.2990983000004235,1243.1946822000002,1243.1946822000002,n,0.4525770000000193,1246.516041,1246.516041,8,2.81,,,sub-034,40,80,700,bloc_loop.csv,2023-06-29_18h52.40.751,PainUncertainty,2022.2.5,142.85959187893448,
grave,forte,stimuli/330Hz,stimuli/forte,bloc_5,prob20hthp_12trials.xlsx,2,24,20,80,0,,,,,0,4,4,4,1,4,16,3,,,,,,,,4.2,1246.516041,1250.7154704000002,1250.7155058199999,0.3049949999999626,1251.1596293999999,1251.1596293999999,m,0.6131950999997571,1253.1320062000002,1253.1320062000002,84,1.302,,,sub-034,40,80,700,bloc_loop.csv,2023-06-29_18h52.40.751,PainUncertainty,2022.2.5,142.85959187893448,
grave,moderee,stimuli/330Hz,stimuli/moderee,bloc_5,prob20hthp_12trials.xlsx,2,24,20,80,0,,,,,0,4,4,4,1,5,17,5,,,,,,,,3.9,1253.1320062000002,1257.0359835000002,1257.0360435199998,0.3020827000000281,1257.4808658,1257.4808658,n,0.4449414999999135,1259.5894764000002,1259.5894764000002,9,1.6,,,sub-034,40,80,700,bloc_loop.csv,2023-06-29_18h52.40.751,PainUncertainty,2022.2.5,142.85959187893448,
grave,forte,stimuli/330Hz,stimuli/forte,bloc_5,prob20hthp_12trials.xlsx,2,24,20,80,0,,,,,0,4,4,4,1,6,18,0,,,,,,,,3.3,1259.5894764000002,1262.8905859,1262.89049112,0.30513969999992696,1263.3346964,1263.3346964,m,0.45177879999982906,1265.7423626000002,1265.7423626000002,85,1.907,,,sub-034,40,80,700,bloc_loop.csv,2023-06-29_18h52.40.751,PainUncertainty,2022.2.5,142.85959187893448,
aigu,moderee,stimuli/660Hz,stimuli/moderee,bloc_5,prob20hthp_12trials.xlsx,2,24,20,80,0,,,,,0,4,4,4,1,7,19,8,,,,,,,,3.6,1265.7423626000002,1269.3433178000002,1269.34317402,0.30495509999991555,1269.7869011,1269.7869011,n,0.46621700000014243,1272.2311275,1272.2311275,8,1.92,,,sub-034,40,80,700,bloc_loop.csv,2023-06-29_18h52.40.751,PainUncertainty,2022.2.5,142.85959187893448,
aigu,forte,stimuli/660Hz,stimuli/forte,bloc_5,prob20hthp_12trials.xlsx,2,24,20,80,0,,,,,0,4,4,4,1,8,20,11,,,,,,,,3,1272.2311275,1275.2323076999999,1275.2324434200002,0.305010399999901,1275.6764911000002,1275.6764911000002,m,1.3786347000000205,1279.3274514000002,1279.3274514000002,85,2.219,,,sub-034,40,80,700,bloc_loop.csv,2023-06-29_18h52.40.751,PainUncertainty,2022.2.5,142.85959187893448,
grave,forte,stimuli/330Hz,stimuli/forte,bloc_5,prob20hthp_12trials.xlsx,2,24,20,80,0,,,,,0,4,4,4,1,9,21,2,,,,,,,,4.3,1279.3274514000002,1283.6298349,1283.62980352,0.30455510000001595,1284.0737289,1284.0737289,m,0.5712188000002243,1287.1769740000002,1287.1769740000002,82,2.47,,,sub-034,40,80,700,bloc_loop.csv,2023-06-29_18h52.40.751,PainUncertainty,2022.2.5,142.85959187893448,
aigu,moderee,stimuli/660Hz,stimuli/moderee,bloc_5,prob20hthp_12trials.xlsx,2,24,20,80,0,,,,,0,4,4,4,1,10,22,6,,,,,,,,3.5,1287.1769740000002,1290.6792082,1290.6791556199998,0.3000554000000193,1291.1232987,1291.1232987,n,0.4393574999999146,1295.3428316000002,1295.3428316000002,9,3.711,,,sub-034,40,80,700,bloc_loop.csv,2023-06-29_18h52.40.751,PainUncertainty,2022.2.5,142.85959187893448,
grave,forte,stimuli/330Hz,stimuli/forte,bloc_5,prob20hthp_12trials.xlsx,2,24,20,80,0,,,,,0,4,4,4,1,11,23,1,,,,,,,,4.9,1295.3428316000002,1300.2421795000002,1300.24220572,0.30510129999993296,1300.6865808999999,1300.6865808999999,m,0.8970871999995325,1305.0295799000003,1305.0295799000003,80,3.335,,,sub-034,40,80,700,bloc_loop.csv,2023-06-29_18h52.40.751,PainUncertainty,2022.2.5,142.85959187893448,
grave,moderee,stimuli/330Hz,stimuli/moderee,bloc_6,prob50_50_4trials.xlsx,2,8,50,50,0,,,,,0,5,5,5,0,0,0,0,,,,,,,,4.5,1305.0295799000003,1309.5352968,1309.5352817199998,0.3050679000002674,1309.9792495,1309.9792495,n,0.4779076999998324,1313.3072411,1313.3072411,8,2.787,,,sub-034,40,80,700,bloc_loop.csv,2023-06-29_18h52.40.751,PainUncertainty,2022.2.5,142.85959187893448,
aigu,moderee,stimuli/660Hz,stimuli/moderee,bloc_6,prob50_50_4trials.xlsx,2,8,50,50,0,,,,,0,5,5,5,0,1,1,2,,,,,,,,5,1313.3072411,1318.3073639000002,1318.3072823200002,0.3014468000001216,1318.7516764,1318.7516764,n,0.6881725999996888,1322.4507726,1322.4507726,8,2.956,,,sub-034,40,80,700,bloc_loop.csv,2023-06-29_18h52.40.751,PainUncertainty,2022.2.5,142.85959187893448,
aigu,forte,stimuli/660Hz,stimuli/forte,bloc_6,prob50_50_4trials.xlsx,2,8,50,50,0,,,,,0,5,5,5,0,2,2,3,,,,,,,,3.5,1322.4507726,1325.953934,1325.95406372,0.3051166000000194,1326.4006041999999,1326.4006041999999,m,0.699363700000049,1330.5688017999998,1330.5688017999998,87,3.398,,,sub-034,40,80,700,bloc_loop.csv,2023-06-29_18h52.40.751,PainUncertainty,2022.2.5,142.85959187893448,
grave,forte,stimuli/330Hz,stimuli/forte,bloc_6,prob50_50_4trials.xlsx,2,8,50,50,0,,,,,0,5,5,5,0,3,3,1,,,,,,,,4.5,1330.5688017999998,1335.0726263,1335.0727939199999,0.3050250999999662,1335.5208958,1335.5208958,None,,1339.6150553,1339.6150553,82,1.587,,,sub-034,40,80,700,bloc_loop.csv,2023-06-29_18h52.40.751,PainUncertainty,2022.2.5,142.85959187893448,
grave,forte,stimuli/330Hz,stimuli/forte,bloc_6,prob50_50_4trials.xlsx,2,8,50,50,0,,,,,0,5,5,5,1,0,4,1,,,,,,,,3,1339.6150553,1342.6153179,1342.6153695199998,0.30514620000030845,1343.0596917999999,1343.0596917999999,m,1.1237285999995947,1347.5118325,1347.5118325,81,3.275,,,sub-034,40,80,700,bloc_loop.csv,2023-06-29_18h52.40.751,PainUncertainty,2022.2.5,142.85959187893448,
aigu,forte,stimuli/660Hz,stimuli/forte,bloc_6,prob50_50_4trials.xlsx,2,8,50,50,0,,,,,0,5,5,5,1,1,5,3,,,,,,,,3,1347.5118325,1350.5125391,1350.5125120199998,0.3053267999998752,1350.9603251,1350.9603251,m,0.4701089999998658,1353.0724499,1353.0724499,84,1.589,,,sub-034,40,80,700,bloc_loop.csv,2023-06-29_18h52.40.751,PainUncertainty,2022.2.5,142.85959187893448,
aigu,moderee,stimuli/660Hz,stimuli/moderee,bloc_6,prob50_50_4trials.xlsx,2,8,50,50,0,,,,,0,5,5,5,1,2,6,2,,,,,,,,4.7,1353.0724499,1357.7773079,1357.7771667200002,0.3006980999998632,1358.2216679,1358.2216679,n,0.46418519999997443,1361.3214581999998,1361.3214581999998,9,2.582,,,sub-034,40,80,700,bloc_loop.csv,2023-06-29_18h52.40.751,PainUncertainty,2022.2.5,142.85959187893448,
grave,moderee,stimuli/330Hz,stimuli/moderee,bloc_6,prob50_50_4trials.xlsx,2,8,50,50,0,,,,,0,5,5,5,1,3,7,0,,,,,,,,5,1361.3214581999998,1366.3265838999998,1366.3265429199998,0.3049664000000121,1366.7706033000002,1366.7706033000002,n,0.47984749999977794,1370.2709197000001,1370.2709197000001,9,2.961,,,sub-034,40,80,700,bloc_loop.csv,2023-06-29_18h52.40.751,PainUncertainty,2022.2.5,142.85959187893448,
aigu,forte,stimuli/660Hz,stimuli/forte,bloc_7,prob80hthp_12trials.xlsx,2,24,80,20,1,,,,,0,6,6,6,0,0,0,10,,,,,,,,4,1370.2709197000001,1374.2717874000002,1374.2718293199998,0.3058363999998619,1374.7191477,1374.7191477,m,0.6471781999998711,1379.0128491000003,1379.0128491000003,85,3.586,,,sub-034,40,80,700,bloc_loop.csv,2023-06-29_18h52.40.751,PainUncertainty,2022.2.5,142.85959187893448,
grave,moderee,stimuli/330Hz,stimuli/moderee,bloc_7,prob80hthp_12trials.xlsx,2,24,80,20,1,,,,,0,6,6,6,0,1,1,1,,,,,,,,5,1379.0128491000003,1384.0165095,1384.0165412200001,0.302043500000309,1384.4611943000002,1384.4611943000002,n,0.38661089999959586,1389.8983973000002,1389.8983973000002,11,4.99,,,sub-034,40,80,700,bloc_loop.csv,2023-06-29_18h52.40.751,PainUncertainty,2022.2.5,142.85959187893448,
aigu,forte,stimuli/660Hz,stimuli/forte,bloc_7,prob80hthp_12trials.xlsx,2,24,80,20,1,,,,,0,6,6,6,0,2,2,8,,,,,,,,3.2,1389.8983973000002,1393.1008273,1393.10076722,0.3056095000001733,1393.5496443,1393.5496443,m,0.4878625000001193,1396.4676173,1396.4676173,85,2.35,,,sub-034,40,80,700,bloc_loop.csv,2023-06-29_18h52.40.751,PainUncertainty,2022.2.5,142.85959187893448,
grave,moderee,stimuli/330Hz,stimuli/moderee,bloc_7,prob80hthp_12trials.xlsx,2,24,80,20,1,,,,,0,6,6,6,0,3,3,3,,,,,,,,4.3,1396.4676173,1400.76823,1400.76829892,0.30484470000010333,1401.2122749000002,1401.2122749000002,n,0.5070517999997719,1405.1291896999999,1405.1291896999999,7,3.358,,,sub-034,40,80,700,bloc_loop.csv,2023-06-29_18h52.40.751,PainUncertainty,2022.2.5,142.85959187893448,
grave,moderee,stimuli/330Hz,stimuli/moderee,bloc_7,prob80hthp_12trials.xlsx,2,24,80,20,1,,,,,0,6,6,6,0,4,4,0,,,,,,,,3.1,1405.1291896999999,1408.234436,1408.2344221199999,0.3050028999996357,1408.6790148000002,1408.6790148000002,n,0.4388602999997602,1411.4098235,1411.4098235,9,2.234,,,sub-034,40,80,700,bloc_loop.csv,2023-06-29_18h52.40.751,PainUncertainty,2022.2.5,142.85959187893448,
grave,forte,stimuli/330Hz,stimuli/forte,bloc_7,prob80hthp_12trials.xlsx,2,24,80,20,1,,,,,0,6,6,6,0,5,5,5,,,,,,,,4.5,1411.4098235,1415.9157662999999,1415.91573382,0.3052864999999656,1416.3598461,1416.3598461,m,0.9574854999996205,1421.6252922,1421.6252922,81,3.204,,,sub-034,40,80,700,bloc_loop.csv,2023-06-29_18h52.40.751,PainUncertainty,2022.2.5,142.85959187893448,
grave,moderee,stimuli/330Hz,stimuli/moderee,bloc_7,prob80hthp_12trials.xlsx,2,24,80,20,1,,,,,0,6,6,6,0,6,6,4,,,,,,,,4.8,1421.6252922,1426.4308136000002,1426.4309118200001,0.30505840000023454,1426.8750268000001,1426.8750268000001,n,0.401655899999696,1429.2485952,1429.2485952,7,1.907,,,sub-034,40,80,700,bloc_loop.csv,2023-06-29_18h52.40.751,PainUncertainty,2022.2.5,142.85959187893448,
aigu,moderee,stimuli/660Hz,stimuli/moderee,bloc_7,prob80hthp_12trials.xlsx,2,24,80,20,1,,,,,0,6,6,6,0,7,7,11,,,,,,,,3.7,1429.2485952,1432.9528259,1432.9528975199999,0.30502049999995506,1433.4007709,1433.4007709,n,0.348951500000112,1438.0873907000002,1438.0873907000002,8,4.281,,,sub-034,40,80,700,bloc_loop.csv,2023-06-29_18h52.40.751,PainUncertainty,2022.2.5,142.85959187893448,
grave,moderee,stimuli/330Hz,stimuli/moderee,bloc_7,prob80hthp_12trials.xlsx,2,24,80,20,1,,,,,0,6,6,6,0,8,8,2,,,,,,,,3.9,1438.0873907000002,1441.9883652,1441.98839282,0.29950559999997495,1442.433099,1442.433099,n,0.48252929999989647,1446.5574491,1446.5574491,8,3.588,,,sub-034,40,80,700,bloc_loop.csv,2023-06-29_18h52.40.751,PainUncertainty,2022.2.5,142.85959187893448,
aigu,forte,stimuli/660Hz,stimuli/forte,bloc_7,prob80hthp_12trials.xlsx,2,24,80,20,1,,,,,0,6,6,6,0,9,9,7,,,,,,,,4.1,1446.5574491,1450.6633896,1450.6633853199999,0.2993406999999024,1451.1039899,1451.1039899,m,1.6163117000000966,1457.0412011,1457.0412011,84,4.252,,,sub-034,40,80,700,bloc_loop.csv,2023-06-29_18h52.40.751,PainUncertainty,2022.2.5,142.85959187893448,
aigu,forte,stimuli/660Hz,stimuli/forte,bloc_7,prob80hthp_12trials.xlsx,2,24,80,20,1,,,,,0,6,6,6,0,10,10,9,,,,,,,,3.3,1457.0412011,1460.3446102999999,1460.3446839199999,0.3051642999998876,1460.7887858000001,1460.7887858000001,m,0.535215099999732,1466.5360761,1466.5360761,86,5.151,,,sub-034,40,80,700,bloc_loop.csv,2023-06-29_18h52.40.751,PainUncertainty,2022.2.5,142.85959187893448,
aigu,forte,stimuli/660Hz,stimuli/forte,bloc_7,prob80hthp_12trials.xlsx,2,24,80,20,1,,,,,0,6,6,6,0,11,11,6,,,,,,,,3.8,1466.5360761,1470.3389461,1470.33894802,0.3009130999998888,1470.7833154000002,1470.7833154000002,m,0.4863610000002154,1476.4597205000002,1476.4597205000002,84,5.144,,,sub-034,40,80,700,bloc_loop.csv,2023-06-29_18h52.40.751,PainUncertainty,2022.2.5,142.85959187893448,
aigu,forte,stimuli/660Hz,stimuli/forte,bloc_7,prob80hthp_12trials.xlsx,2,24,80,20,1,,,,,0,6,6,6,1,0,12,6,,,,,,,,3.7,1476.4597205000002,1480.1594714999999,1480.15949432,0.30517420000023776,1480.6036778999999,1480.6036778999999,m,0.6579854999995405,1485.2200888999998,1485.2200888999998,86,3.907,,,sub-034,40,80,700,bloc_loop.csv,2023-06-29_18h52.40.751,PainUncertainty,2022.2.5,142.85959187893448,
grave,moderee,stimuli/330Hz,stimuli/moderee,bloc_7,prob80hthp_12trials.xlsx,2,24,80,20,1,,,,,0,6,6,6,1,1,13,0,,,,,,,,4.2,1485.2200888999998,1489.4247281,1489.42458002,0.30502060000026177,1489.8689882,1489.8689882,n,0.6449336999999105,1493.7530497,1493.7530497,8,3.192,,,sub-034,40,80,700,bloc_loop.csv,2023-06-29_18h52.40.751,PainUncertainty,2022.2.5,142.85959187893448,
grave,moderee,stimuli/330Hz,stimuli/moderee,bloc_7,prob80hthp_12trials.xlsx,2,24,80,20,1,,,,,0,6,6,6,1,2,14,4,,,,,,,,4.4,1493.7530497,1498.1546295,1498.1546870200002,0.29923639999969964,1498.5975039000002,1498.5975039000002,n,0.4635982999998305,1501.0738952,1501.0738952,8,1.954,,,sub-034,40,80,700,bloc_loop.csv,2023-06-29_18h52.40.751,PainUncertainty,2022.2.5,142.85959187893448,
aigu,forte,stimuli/660Hz,stimuli/forte,bloc_7,prob80hthp_12trials.xlsx,2,24,80,20,1,,,,,0,6,6,6,1,3,15,10,,,,,,,,3.9,1501.0738952,1504.9753545,1504.97530072,0.3049313000001348,1505.4198165,1505.4198165,m,0.40257100000007995,1508.3778444000002,1508.3778444000002,83,2.502,,,sub-034,40,80,700,bloc_loop.csv,2023-06-29_18h52.40.751,PainUncertainty,2022.2.5,142.85959187893448,
grave,moderee,stimuli/330Hz,stimuli/moderee,bloc_7,prob80hthp_12trials.xlsx,2,24,80,20,1,,,,,0,6,6,6,1,4,16,2,,,,,,,,4.8,1508.3778444000002,1513.177356,1513.17737422,0.3050874999998996,1513.6237309,1513.6237309,n,0.38792389999980514,1515.3795361999998,1515.3795361999998,8,1.298,,,sub-034,40,80,700,bloc_loop.csv,2023-06-29_18h52.40.751,PainUncertainty,2022.2.5,142.85959187893448,
aigu,forte,stimuli/660Hz,stimuli/forte,bloc_7,prob80hthp_12trials.xlsx,2,24,80,20,1,,,,,0,6,6,6,1,5,17,7,,,,,,,,4,1515.3795361999998,1519.3794222,1519.3795269200002,0.30511139999998704,1519.8239737000001,1519.8239737000001,m,0.7099140000000261,1522.5392063000002,1522.5392063000002,81,1.948,,,sub-034,40,80,700,bloc_loop.csv,2023-06-29_18h52.40.751,PainUncertainty,2022.2.5,142.85959187893448,
aigu,forte,stimuli/660Hz,stimuli/forte,bloc_7,prob80hthp_12trials.xlsx,2,24,80,20,1,,,,,0,6,6,6,1,6,18,8,,,,,,,,4.3,1522.5392063000002,1526.8389785000002,1526.83899932,0.3049113000001853,1527.2830495,1527.2830495,m,0.4244595999998637,1529.6682144,1529.6682144,83,1.893,,,sub-034,40,80,700,bloc_loop.csv,2023-06-29_18h52.40.751,PainUncertainty,2022.2.5,142.85959187893448,
grave,forte,stimuli/330Hz,stimuli/forte,bloc_7,prob80hthp_12trials.xlsx,2,24,80,20,1,,,,,0,6,6,6,1,7,19,5,,,,,,,,4.2,1529.6682144,1533.8673552000002,1533.86733312,0.2998916999999892,1534.3122216,1534.3122216,m,1.0125668999999107,1537.6266776999998,1537.6266776999998,83,2.236,,,sub-034,40,80,700,bloc_loop.csv,2023-06-29_18h52.40.751,PainUncertainty,2022.2.5,142.85959187893448,
aigu,moderee,stimuli/660Hz,stimuli/moderee,bloc_7,prob80hthp_12trials.xlsx,2,24,80,20,1,,,,,0,6,6,6,1,8,20,11,,,,,,,,4.6,1537.6266776999998,1542.2297332,1542.22974662,0.30543859999988854,1542.6776406000001,1542.6776406000001,n,0.35965029999988474,1544.8842796000001,1544.8842796000001,10,1.791,,,sub-034,40,80,700,bloc_loop.csv,2023-06-29_18h52.40.751,PainUncertainty,2022.2.5,142.85959187893448,
grave,moderee,stimuli/330Hz,stimuli/moderee,bloc_7,prob80hthp_12trials.xlsx,2,24,80,20,1,,,,,0,6,6,6,1,9,21,3,,,,,,,,3.2,1544.8842796000001,1548.0846961999998,1548.08470122,0.30487700000003315,1548.5320942,1548.5320942,n,0.42220910000014555,1552.2025906000001,1552.2025906000001,11,3.186,,,sub-034,40,80,700,bloc_loop.csv,2023-06-29_18h52.40.751,PainUncertainty,2022.2.5,142.85959187893448,
grave,moderee,stimuli/330Hz,stimuli/moderee,bloc_7,prob80hthp_12trials.xlsx,2,24,80,20,1,,,,,0,6,6,6,1,10,22,1,,,,,,,,3,1552.2025906000001,1555.2032706000002,1555.2031506199999,0.30505940000011833,1555.6473422000001,1555.6473422000001,n,0.4138858999999684,1558.052633,1558.052633,11,1.92,,,sub-034,40,80,700,bloc_loop.csv,2023-06-29_18h52.40.751,PainUncertainty,2022.2.5,142.85959187893448,
aigu,forte,stimuli/660Hz,stimuli/forte,bloc_7,prob80hthp_12trials.xlsx,2,24,80,20,1,,,,,0,6,6,6,1,11,23,9,,,,,,,,3.1,1558.052633,1561.1552871000001,1561.15530542,0.3051313000000846,1561.5997482,1561.5997482,m,0.36359019999963493,1566.5054879000002,1566.5054879000002,84,2.512,,,sub-034,40,80,700,bloc_loop.csv,2023-06-29_18h52.40.751,PainUncertainty,2022.2.5,142.85959187893448,
,,,,bloc_7,prob80hthp_12trials.xlsx,2,24,80,20,1,,,,,0,6,6,6,,,,,0,0,0,0,,,,,,,,,,,,,,,,,1566.5054879000002,1596.7917648,sub-034,40,80,700,bloc_loop.csv,2023-06-29_18h52.40.751,PainUncertainty,2022.2.5,142.85959187893448,
grave,moderee,stimuli/330Hz,stimuli/moderee,bloc_8,prob50_50_4trials.xlsx,3,12,50,50,0,,,,,0,7,7,7,0,0,0,0,,,,,,,,4.9,1598.042889,1602.94532,1602.9455175199998,0.30501120000008086,1603.3934007999999,1603.3934007999999,n,1.0444132999996327,1607.4412556999998,1607.4412556999998,9,2.948,,,sub-034,40,80,700,bloc_loop.csv,2023-06-29_18h52.40.751,PainUncertainty,2022.2.5,142.85959187893448,
aigu,moderee,stimuli/660Hz,stimuli/moderee,bloc_8,prob50_50_4trials.xlsx,3,12,50,50,0,,,,,0,7,7,7,0,1,1,2,,,,,,,,3.7,1607.4412556999998,1611.1404642,1611.1403819200002,0.3055370000001858,1611.5874517,1611.5874517,n,0.38637829999970563,1614.886656,1614.886656,10,2.865,,,sub-034,40,80,700,bloc_loop.csv,2023-06-29_18h52.40.751,PainUncertainty,2022.2.5,142.85959187893448,
grave,forte,stimuli/330Hz,stimuli/forte,bloc_8,prob50_50_4trials.xlsx,3,12,50,50,0,,,,,0,7,7,7,0,2,2,1,,,,,,,,3.5,1614.886656,1618.3916569,1618.39173232,0.3046940999997787,1618.8355497,1618.8355497,m,0.5975002999998651,1621.4892459,1621.4892459,73,1.998,,,sub-034,40,80,700,bloc_loop.csv,2023-06-29_18h52.40.751,PainUncertainty,2022.2.5,142.85959187893448,
aigu,forte,stimuli/660Hz,stimuli/forte,bloc_8,prob50_50_4trials.xlsx,3,12,50,50,0,,,,,0,7,7,7,0,3,3,3,,,,,,,,3.8,1621.4892459,1625.2948895000002,1625.29489042,0.3051565999999184,1625.7417008999998,1625.7417008999998,m,0.48305649999974776,1627.7367292000001,1627.7367292000001,83,1.463,,,sub-034,40,80,700,bloc_loop.csv,2023-06-29_18h52.40.751,PainUncertainty,2022.2.5,142.85959187893448,
grave,moderee,stimuli/330Hz,stimuli/moderee,bloc_8,prob50_50_4trials.xlsx,3,12,50,50,0,,,,,0,7,7,7,1,0,4,0,,,,,,,,3.1,1627.7367292000001,1630.8377179000001,1630.8377288200002,0.30464630000005855,1631.2814169,1631.2814169,n,0.6851826999995865,1635.2812126000001,1635.2812126000001,8,3.25,,,sub-034,40,80,700,bloc_loop.csv,2023-06-29_18h52.40.751,PainUncertainty,2022.2.5,142.85959187893448,
aigu,moderee,stimuli/660Hz,stimuli/moderee,bloc_8,prob50_50_4trials.xlsx,3,12,50,50,0,,,,,0,7,7,7,1,1,5,2,,,,,,,,3.4,1635.2812126000001,1638.6870740000002,1638.6860992200002,0.30484759999990274,1639.1343306,1639.1343306,n,0.4200861999997869,1642.6483322000001,1642.6483322000001,10,3.032,,,sub-034,40,80,700,bloc_loop.csv,2023-06-29_18h52.40.751,PainUncertainty,2022.2.5,142.85959187893448,
grave,forte,stimuli/330Hz,stimuli/forte,bloc_8,prob50_50_4trials.xlsx,3,12,50,50,0,,,,,0,7,7,7,1,2,6,1,,,,,,,,4.8,1642.6483322000001,1647.4507609,1647.4507916199998,0.30486819999987347,1647.8945384,1647.8945384,m,0.5542037999998684,1650.4332028000001,1650.4332028000001,84,1.92,,,sub-034,40,80,700,bloc_loop.csv,2023-06-29_18h52.40.751,PainUncertainty,2022.2.5,142.85959187893448,
aigu,forte,stimuli/660Hz,stimuli/forte,bloc_8,prob50_50_4trials.xlsx,3,12,50,50,0,,,,,0,7,7,7,1,3,7,3,,,,,,,,4.2,1650.4332028000001,1654.6324012000002,1654.63229582,0.3049055999999837,1655.0801199,1655.0801199,m,0.46576450000020486,1657.6561989,1657.6561989,81,2.057,,,sub-034,40,80,700,bloc_loop.csv,2023-06-29_18h52.40.751,PainUncertainty,2022.2.5,142.85959187893448,
grave,forte,stimuli/330Hz,stimuli/forte,bloc_8,prob50_50_4trials.xlsx,3,12,50,50,0,,,,,0,7,7,7,2,0,8,1,,,,,,,,4.5,1657.6561989,1662.1604319,1662.1604553200002,0.2993486000000303,1662.602678,1662.602678,m,0.46352939999997034,1664.5773203,1664.5773203,81,1.449,,,sub-034,40,80,700,bloc_loop.csv,2023-06-29_18h52.40.751,PainUncertainty,2022.2.5,142.85959187893448,
grave,moderee,stimuli/330Hz,stimuli/moderee,bloc_8,prob50_50_4trials.xlsx,3,12,50,50,0,,,,,0,7,7,7,2,1,9,0,,,,,,,,3.2,1664.5773203,1667.7790874999998,1667.7791535200001,0.30486289999998917,1668.2233218,1668.2233218,n,0.32286139999951047,1670.7960225,1670.7960225,12,2.185,,,sub-034,40,80,700,bloc_loop.csv,2023-06-29_18h52.40.751,PainUncertainty,2022.2.5,142.85959187893448,
aigu,forte,stimuli/660Hz,stimuli/forte,bloc_8,prob50_50_4trials.xlsx,3,12,50,50,0,,,,,0,7,7,7,2,2,10,3,,,,,,,,4.2,1670.7960225,1674.9956691,1674.9961307199999,0.2994027999998252,1675.4399670999999,1675.4399670999999,m,0.38134039999977176,1678.0834584000002,1678.0834584000002,68,2.212,,,sub-034,40,80,700,bloc_loop.csv,2023-06-29_18h52.40.751,PainUncertainty,2022.2.5,142.85959187893448,
aigu,moderee,stimuli/660Hz,stimuli/moderee,bloc_8,prob50_50_4trials.xlsx,3,12,50,50,0,,,,,0,7,7,7,2,3,11,2,,,,,,,,4.6,1678.0834584000002,1682.6839969999999,1682.6839511199998,0.3045938999998725,1683.1280832,1683.1280832,n,0.8043093999999655,1686.6491243000003,1686.6491243000003,10,2.662,,,sub-034,40,80,700,bloc_loop.csv,2023-06-29_18h52.40.751,PainUncertainty,2022.2.5,142.85959187893448,
aigu,forte,stimuli/660Hz,stimuli/forte,bloc_9,prob20hthp_12trials.xlsx,3,36,80,20,0,,,,,0,8,8,8,0,0,0,11,,,,,,,,3.9,1686.6491243000003,1690.5526416999999,1690.55266212,0.3053093999997145,1691.0040199000002,1691.0040199000002,m,0.7141007999998692,1693.3300919,1693.3300919,79,1.558,,,sub-034,40,80,700,bloc_loop.csv,2023-06-29_18h52.40.751,PainUncertainty,2022.2.5,142.85959187893448,
grave,forte,stimuli/330Hz,stimuli/forte,bloc_9,prob20hthp_12trials.xlsx,3,36,80,20,0,,,,,0,8,8,8,0,1,1,1,,,,,,,,3.5,1693.3300919,1696.8316053,1696.83158622,0.3048957999999402,1697.2754705999998,1697.2754705999998,m,0.5409665000001951,1701.1937341999999,1701.1937341999999,72,3.325,,,sub-034,40,80,700,bloc_loop.csv,2023-06-29_18h52.40.751,PainUncertainty,2022.2.5,142.85959187893448,
aigu,moderee,stimuli/660Hz,stimuli/moderee,bloc_9,prob20hthp_12trials.xlsx,3,36,80,20,0,,,,,0,8,8,8,0,2,2,6,,,,,,,,3.9,1701.1937341999999,1705.0960162,1705.09607472,0.30492770000000746,1705.5402059,1705.5402059,n,0.43643829999973605,1707.8437894,1707.8437894,17,1.788,,,sub-034,40,80,700,bloc_loop.csv,2023-06-29_18h52.40.751,PainUncertainty,2022.2.5,142.85959187893448,
grave,forte,stimuli/330Hz,stimuli/forte,bloc_9,prob20hthp_12trials.xlsx,3,36,80,20,0,,,,,0,8,8,8,0,3,3,3,,,,,,,,3.1,1707.8437894,1710.9442572,1710.94443212,0.29927730000008523,1711.3887124,1711.3887124,m,0.7359289000000899,1714.4766784,1714.4766784,75,2.287,,,sub-034,40,80,700,bloc_loop.csv,2023-06-29_18h52.40.751,PainUncertainty,2022.2.5,142.85959187893448,
aigu,moderee,stimuli/660Hz,stimuli/moderee,bloc_9,prob20hthp_12trials.xlsx,3,36,80,20,0,,,,,0,8,8,8,0,4,4,8,,,,,,,,4.9,1714.4766784,1719.3825523000003,1719.3824957200002,0.3054341000001841,1719.8291014,1719.8291014,n,0.649201599999742,1723.122176,1723.122176,12,2.589,,,sub-034,40,80,700,bloc_loop.csv,2023-06-29_18h52.40.751,PainUncertainty,2022.2.5,142.85959187893448,
grave,moderee,stimuli/330Hz,stimuli/moderee,bloc_9,prob20hthp_12trials.xlsx,3,36,80,20,0,,,,,0,8,8,8,0,5,5,5,,,,,,,,3.6,1723.122176,1726.7240453000002,1726.7239827199999,0.3055841000000328,1727.1683636999999,1727.1683636999999,n,0.434906299999966,1730.3620061,1730.3620061,13,2.706,,,sub-034,40,80,700,bloc_loop.csv,2023-06-29_18h52.40.751,PainUncertainty,2022.2.5,142.85959187893448,
grave,forte,stimuli/330Hz,stimuli/forte,bloc_9,prob20hthp_12trials.xlsx,3,36,80,20,0,,,,,0,8,8,8,0,6,6,4,,,,,,,,3,1730.3620061,1733.3632918,1733.36330642,0.30570339999985663,1733.8125154000002,1733.8125154000002,m,1.2263814999996612,1736.8851372000001,1736.8851372000001,82,1.78,,,sub-034,40,80,700,bloc_loop.csv,2023-06-29_18h52.40.751,PainUncertainty,2022.2.5,142.85959187893448,
aigu,moderee,stimuli/660Hz,stimuli/moderee,bloc_9,prob20hthp_12trials.xlsx,3,36,80,20,0,,,,,0,8,8,8,0,7,7,9,,,,,,,,4.5,1736.8851372000001,1741.385473,1741.38536932,0.30499550000013187,1741.8292282,1741.8292282,n,0.6354357999998683,1743.7728144,1743.7728144,12,1.247,,,sub-034,40,80,700,bloc_loop.csv,2023-06-29_18h52.40.751,PainUncertainty,2022.2.5,142.85959187893448,
aigu,moderee,stimuli/660Hz,stimuli/moderee,bloc_9,prob20hthp_12trials.xlsx,3,36,80,20,0,,,,,0,8,8,8,0,8,8,7,,,,,,,,3.5,1743.7728144,1747.2747995000002,1747.27484932,0.30194940000001225,1747.7201912000003,1747.7201912000003,n,0.3949771999996301,1750.4048292999998,1750.4048292999998,8,2.233,,,sub-034,40,80,700,bloc_loop.csv,2023-06-29_18h52.40.751,PainUncertainty,2022.2.5,142.85959187893448,
aigu,moderee,stimuli/660Hz,stimuli/moderee,bloc_9,prob20hthp_12trials.xlsx,3,36,80,20,0,,,,,0,8,8,8,0,9,9,10,,,,,,,,5,1750.4048292999998,1755.4077049,1755.40773392,0.3050890999998046,1755.8519327000001,1755.8519327000001,n,0.3930786999999327,1757.7726040999999,1757.7726040999999,10,1.476,,,sub-034,40,80,700,bloc_loop.csv,2023-06-29_18h52.40.751,PainUncertainty,2022.2.5,142.85959187893448,
grave,forte,stimuli/330Hz,stimuli/forte,bloc_9,prob20hthp_12trials.xlsx,3,36,80,20,0,,,,,0,8,8,8,0,10,10,0,,,,,,,,3.1,1757.7726040999999,1760.8737391000002,1760.8737693199998,0.30503090000001976,1761.3179739999998,1761.3179739999998,m,0.493983500000013,1765.5078756999999,1765.5078756999999,74,3.628,,,sub-034,40,80,700,bloc_loop.csv,2023-06-29_18h52.40.751,PainUncertainty,2022.2.5,142.85959187893448,
grave,forte,stimuli/330Hz,stimuli/forte,bloc_9,prob20hthp_12trials.xlsx,3,36,80,20,0,,,,,0,8,8,8,0,11,11,2,,,,,,,,4.5,1765.5078756999999,1770.0136373000003,1770.01365082,0.30490569999983563,1770.4580624000002,1770.4580624000002,m,0.7443520999995599,1775.2256535,1775.2256535,77,3.967,,,sub-034,40,80,700,bloc_loop.csv,2023-06-29_18h52.40.751,PainUncertainty,2022.2.5,142.85959187893448,
aigu,moderee,stimuli/660Hz,stimuli/moderee,bloc_9,prob20hthp_12trials.xlsx,3,36,80,20,0,,,,,0,8,8,8,1,0,12,9,,,,,,,,4.9,1775.2256535,1780.1261283000001,1780.1263784199998,0.2993122000002586,1780.5703925999999,1780.5703925999999,n,0.46914379999998346,1784.0794549999998,1784.0794549999998,11,2.984,,,sub-034,40,80,700,bloc_loop.csv,2023-06-29_18h52.40.751,PainUncertainty,2022.2.5,142.85959187893448,
aigu,moderee,stimuli/660Hz,stimuli/moderee,bloc_9,prob20hthp_12trials.xlsx,3,36,80,20,0,,,,,0,8,8,8,1,1,13,7,,,,,,,,4.2,1784.0794549999998,1788.2799944,1788.2799948200002,0.30507630000010977,1788.7272968999998,1788.7272968999998,n,0.39238179999983913,1790.6963911999999,1790.6963911999999,10,1.524,,,sub-034,40,80,700,bloc_loop.csv,2023-06-29_18h52.40.751,PainUncertainty,2022.2.5,142.85959187893448,
grave,forte,stimuli/330Hz,stimuli/forte,bloc_9,prob20hthp_12trials.xlsx,3,36,80,20,0,,,,,0,8,8,8,1,2,14,2,,,,,,,,4,1790.6963911999999,1794.6973541999998,1794.69764522,0.3047571000001881,1795.1411693000002,1795.1411693000002,m,0.5736950999998953,1798.3695265,1798.3695265,83,2.587,,,sub-034,40,80,700,bloc_loop.csv,2023-06-29_18h52.40.751,PainUncertainty,2022.2.5,142.85959187893448,
aigu,forte,stimuli/660Hz,stimuli/forte,bloc_9,prob20hthp_12trials.xlsx,3,36,80,20,0,,,,,0,8,8,8,1,3,15,11,,,,,,,,3.1,1798.3695265,1801.4686041000002,1801.46858532,0.3051570000002357,1801.9129775,1801.9129775,m,1.569588500000009,1809.9408601000002,1809.9408601000002,74,6.407,,,sub-034,40,80,700,bloc_loop.csv,2023-06-29_18h52.40.751,PainUncertainty,2022.2.5,142.85959187893448,
aigu,moderee,stimuli/660Hz,stimuli/moderee,bloc_9,prob20hthp_12trials.xlsx,3,36,80,20,0,,,,,0,8,8,8,1,4,16,8,,,,,,,,4.1,1809.9408601000002,1814.0466051,1814.0466567199999,0.30506199999990713,1814.4906749,1814.4906749,n,0.7058508999998594,1817.4994823,1817.4994823,11,2.246,,,sub-034,40,80,700,bloc_loop.csv,2023-06-29_18h52.40.751,PainUncertainty,2022.2.5,142.85959187893448,
grave,forte,stimuli/330Hz,stimuli/forte,bloc_9,prob20hthp_12trials.xlsx,3,36,80,20,0,,,,,0,8,8,8,1,5,17,3,,,,,,,,5,1817.4994823,1822.5006529999998,1822.49940512,0.30044679999991786,1822.9437813000002,1822.9437813000002,m,0.3815375999997741,1825.2828505999998,1825.2828505999998,81,1.908,,,sub-034,40,80,700,bloc_loop.csv,2023-06-29_18h52.40.751,PainUncertainty,2022.2.5,142.85959187893448,
grave,forte,stimuli/330Hz,stimuli/forte,bloc_9,prob20hthp_12trials.xlsx,3,36,80,20,0,,,,,0,8,8,8,1,6,18,4,,,,,,,,3.7,1825.2828505999998,1828.9858047,1828.9859086200001,0.3051495999998224,1829.4303246000002,1829.4303246000002,m,0.8344898999998804,1833.1139008000002,1833.1139008000002,80,2.794,,,sub-034,40,80,700,bloc_loop.csv,2023-06-29_18h52.40.751,PainUncertainty,2022.2.5,142.85959187893448,
grave,forte,stimuli/330Hz,stimuli/forte,bloc_9,prob20hthp_12trials.xlsx,3,36,80,20,0,,,,,0,8,8,8,1,7,19,1,,,,,,,,4.7,1833.1139008000002,1837.8135645999998,1837.8137550200001,0.3047050999998646,1838.2573951000002,1838.2573951000002,m,0.5848020999997061,1840.6582166,1840.6582166,75,1.747,,,sub-034,40,80,700,bloc_loop.csv,2023-06-29_18h52.40.751,PainUncertainty,2022.2.5,142.85959187893448,
grave,moderee,stimuli/330Hz,stimuli/moderee,bloc_9,prob20hthp_12trials.xlsx,3,36,80,20,0,,,,,0,8,8,8,1,8,20,5,,,,,,,,3.3,1840.6582166,1843.9604748,1843.9602435200002,0.3048260999999002,1844.4039866,1844.4039866,n,0.47113279999985025,1847.8036073,1847.8036073,10,2.863,,,sub-034,40,80,700,bloc_loop.csv,2023-06-29_18h52.40.751,PainUncertainty,2022.2.5,142.85959187893448,
aigu,moderee,stimuli/660Hz,stimuli/moderee,bloc_9,prob20hthp_12trials.xlsx,3,36,80,20,0,,,,,0,8,8,8,1,9,21,6,,,,,,,,3.2,1847.8036073,1851.0093086,1851.00940452,0.30532709999988583,1851.4536785000003,1851.4536785000003,n,0.4678174000000581,1855.0266346,1855.0266346,14,3.039,,,sub-034,40,80,700,bloc_loop.csv,2023-06-29_18h52.40.751,PainUncertainty,2022.2.5,142.85959187893448,
aigu,moderee,stimuli/660Hz,stimuli/moderee,bloc_9,prob20hthp_12trials.xlsx,3,36,80,20,0,,,,,0,8,8,8,1,10,22,10,,,,,,,,3.1,1855.0266346,1858.1286997,1858.1284776200002,0.3049068000000261,1858.572285,1858.572285,n,0.42780779999975493,1861.2284717999999,1861.2284717999999,8,2.163,,,sub-034,40,80,700,bloc_loop.csv,2023-06-29_18h52.40.751,PainUncertainty,2022.2.5,142.85959187893448,
grave,forte,stimuli/330Hz,stimuli/forte,bloc_9,prob20hthp_12trials.xlsx,3,36,80,20,0,,,,,0,8,8,8,1,11,23,0,,,,,,,,3.5,1861.2284717999999,1864.7331095000002,1864.7331094200001,0.30518990000018675,1865.1772702,1865.1772702,m,0.47163529999988896,1868.3576163999999,1868.3576163999999,69,2.656,,,sub-034,40,80,700,bloc_loop.csv,2023-06-29_18h52.40.751,PainUncertainty,2022.2.5,142.85959187893448,
grave,forte,stimuli/330Hz,stimuli/forte,bloc_9,prob20hthp_12trials.xlsx,3,36,80,20,0,,,,,0,8,8,8,2,0,24,2,,,,,,,,3.1,1868.3576163999999,1871.4567924,1871.4567595199999,0.29923409999992145,1871.8995544000002,1871.8995544000002,m,0.5525157999995827,1875.4204739,1875.4204739,73,2.907,,,sub-034,40,80,700,bloc_loop.csv,2023-06-29_18h52.40.751,PainUncertainty,2022.2.5,142.85959187893448,
grave,forte,stimuli/330Hz,stimuli/forte,bloc_9,prob20hthp_12trials.xlsx,3,36,80,20,0,,,,,0,8,8,8,2,1,25,1,,,,,,,,4,1875.4204739,1879.4227945999999,1879.42294672,0.30516250000027867,1879.8693556,1879.8693556,m,0.5475488999995832,1882.4717438,1882.4717438,76,1.989,,,sub-034,40,80,700,bloc_loop.csv,2023-06-29_18h52.40.751,PainUncertainty,2022.2.5,142.85959187893448,
aigu,forte,stimuli/660Hz,stimuli/forte,bloc_9,prob20hthp_12trials.xlsx,3,36,80,20,0,,,,,0,8,8,8,2,2,26,11,,,,,,,,3.6,1882.4717438,1886.0759710999998,1886.0759916200002,0.30479209999975865,1886.5201458,1886.5201458,m,0.5204877000001034,1888.9739222,1888.9739222,75,1.878,,,sub-034,40,80,700,bloc_loop.csv,2023-06-29_18h52.40.751,PainUncertainty,2022.2.5,142.85959187893448,
aigu,moderee,stimuli/660Hz,stimuli/moderee,bloc_9,prob20hthp_12trials.xlsx,3,36,80,20,0,,,,,0,8,8,8,2,3,27,10,,,,,,,,4,1888.9739222,1892.9800096000001,1892.9798678200002,0.304769700000179,1893.4237657,1893.4237657,n,0.382545399999799,1896.2627421999998,1896.2627421999998,13,2.406,,,sub-034,40,80,700,bloc_loop.csv,2023-06-29_18h52.40.751,PainUncertainty,2022.2.5,142.85959187893448,
aigu,moderee,stimuli/660Hz,stimuli/moderee,bloc_9,prob20hthp_12trials.xlsx,3,36,80,20,0,,,,,0,8,8,8,2,4,28,6,,,,,,,,4.5,1896.2627421999998,1900.7651681,1900.76524172,0.30535680000002685,1901.2097388,1901.2097388,n,0.3807034000001295,1904.0629962,1904.0629962,11,2.418,,,sub-034,40,80,700,bloc_loop.csv,2023-06-29_18h52.40.751,PainUncertainty,2022.2.5,142.85959187893448,
aigu,moderee,stimuli/660Hz,stimuli/moderee,bloc_9,prob20hthp_12trials.xlsx,3,36,80,20,0,,,,,0,8,8,8,2,5,29,9,,,,,,,,4,1904.0629962,1908.0649661,1908.0649842199998,0.304998500000238,1908.5089343000002,1908.5089343000002,n,0.40289009999969494,1911.3987214,1911.3987214,12,2.428,,,sub-034,40,80,700,bloc_loop.csv,2023-06-29_18h52.40.751,PainUncertainty,2022.2.5,142.85959187893448,
aigu,moderee,stimuli/660Hz,stimuli/moderee,bloc_9,prob20hthp_12trials.xlsx,3,36,80,20,0,,,,,0,8,8,8,2,6,30,7,,,,,,,,3.6,1911.3987214,1915.0030205,1915.0029386200001,0.3056976000002578,1915.4515177,1915.4515177,n,0.4118485999997574,1920.8611908999999,1920.8611908999999,11,4.936,,,sub-034,40,80,700,bloc_loop.csv,2023-06-29_18h52.40.751,PainUncertainty,2022.2.5,142.85959187893448,
grave,forte,stimuli/330Hz,stimuli/forte,bloc_9,prob20hthp_12trials.xlsx,3,36,80,20,0,,,,,0,8,8,8,2,7,31,4,,,,,,,,3.6,1920.8611908999999,1924.4624724000003,1924.4624996199998,0.3050449000002118,1924.9066199000001,1924.9066199000001,m,0.46113839999998163,1929.3011349,1929.3011349,78,3.865,,,sub-034,40,80,700,bloc_loop.csv,2023-06-29_18h52.40.751,PainUncertainty,2022.2.5,142.85959187893448,
aigu,moderee,stimuli/660Hz,stimuli/moderee,bloc_9,prob20hthp_12trials.xlsx,3,36,80,20,0,,,,,0,8,8,8,2,8,32,8,,,,,,,,4.6,1929.3011349,1933.9011235,1933.90112642,0.305417000000034,1934.3496495000002,1934.3496495000002,n,0.41612809999969613,1938.1052597,1938.1052597,9,3.289,,,sub-034,40,80,700,bloc_loop.csv,2023-06-29_18h52.40.751,PainUncertainty,2022.2.5,142.85959187893448,
grave,forte,stimuli/330Hz,stimuli/forte,bloc_9,prob20hthp_12trials.xlsx,3,36,80,20,0,,,,,0,8,8,8,2,9,33,0,,,,,,,,4.2,1938.1052597,1942.3050974999999,1942.30517342,0.3050759999996444,1942.749044,1942.749044,m,0.38141429999996035,1945.0104703,1945.0104703,79,1.816,,,sub-034,40,80,700,bloc_loop.csv,2023-06-29_18h52.40.751,PainUncertainty,2022.2.5,142.85959187893448,
grave,forte,stimuli/330Hz,stimuli/forte,bloc_9,prob20hthp_12trials.xlsx,3,36,80,20,0,,,,,0,8,8,8,2,10,34,3,,,,,,,,4.3,1945.0104703,1949.3127350000002,1949.31270212,0.3050094000000172,1949.7568471000002,1949.7568471000002,m,0.4339074999998047,1952.1703926000002,1952.1703926000002,76,1.918,,,sub-034,40,80,700,bloc_loop.csv,2023-06-29_18h52.40.751,PainUncertainty,2022.2.5,142.85959187893448,
grave,moderee,stimuli/330Hz,stimuli/moderee,bloc_9,prob20hthp_12trials.xlsx,3,36,80,20,0,,,,,0,8,8,8,2,11,35,5,,,,,,,,3.4,1952.1703926000002,1955.5703154,1955.5704177199998,0.30496949999997014,1956.0184759,1956.0184759,n,0.4105042999995021,1958.6731182,1958.6731182,10,2.219,,,sub-034,40,80,700,bloc_loop.csv,2023-06-29_18h52.40.751,PainUncertainty,2022.2.5,142.85959187893448,
