cue_,stimulus_,cue_fichier,stimulus_fichier,block_name,block_trials_file,block_n_reps,block_ntrials,block_prob_highP_highT,block_prob_highP_lowT,block_pause_after,Bloc_essai.thisRepN,Bloc_essai.thisTrialN,Bloc_essai.thisN,Bloc_essai.thisIndex,blocks.thisRepN,blocks.thisTrialN,blocks.thisN,blocks.thisIndex,trials.thisRepN,trials.thisTrialN,trials.thisN,trials.thisIndex,pause_loop.thisRepN,pause_loop.thisTrialN,pause_loop.thisN,pause_loop.thisIndex,key_resp_5.started,start_calib.started,key_resp_2.started,ISI_duration,pause.started,pause.stopped,cue.started,ISI.started,choice_pain.started,Choice.started,choice_pain.keys,choice_pain.rt,main_text.started,confirm_text.started,ratingScale.response,ratingScale.rt,key_resp_3.started,key_resp_6.started,participant,low_ma,high_ma,failsafe_ma,block_file,date,expName,psychopyVersion,frameRate,
aigu,moderee,stimuli/660Hz,stimuli/moderee,,,,,,,,0,0,0,2,,,,,,,,,,,,,30.75256459999946,162.10935579999932,182.16037179999876,4,183.8893535999996,187.89041589999943,187.8903176099995,0.3054589000003034,188.3387012000003,188.3387012000003,m,1.505990200001179,192.6262241000004,192.6262241000004,55,2.701,,,sub-019,90,160,700,bloc_loop.csv,2023-06-05_17h50.36.211,PainUncertainty,2022.2.5,144.0241499714392,
aigu,forte,stimuli/660Hz,stimuli/forte,,,,,,,,0,1,1,3,,,,,,,,,,,,,,,,4.1,192.6262241000004,196.72518800000034,196.72537620999918,0.30502639999940584,197.1738346000002,197.1738346000002,m,1.0231482000017422,201.2910293999994,201.2910293999994,67,3.033,,,sub-019,90,160,700,bloc_loop.csv,2023-06-05_17h50.36.211,PainUncertainty,2022.2.5,144.0241499714392,
grave,forte,stimuli/330Hz,stimuli/forte,,,,,,,,0,2,2,1,,,,,,,,,,,,,,,,4.2,201.2910293999994,205.49668969999948,205.4968296099998,0.3047380999996676,205.94098289999965,205.94098289999965,m,1.523603900001035,209.06019469999956,209.06019469999956,59,1.516,,,sub-019,90,160,700,bloc_loop.csv,2023-06-05_17h50.36.211,PainUncertainty,2022.2.5,144.0241499714392,
grave,moderee,stimuli/330Hz,stimuli/moderee,,,,,,,,0,3,3,0,,,,,,,,,,,,,,,,3.4,209.06019469999956,212.46347409999908,212.46347600999997,0.30474359999971057,212.91086890000042,212.91086890000042,n,0.9398375000000669,216.3364486999999,216.3364486999999,31,2.462,,,sub-019,90,160,700,bloc_loop.csv,2023-06-05_17h50.36.211,PainUncertainty,2022.2.5,144.0241499714392,
grave,forte,stimuli/330Hz,stimuli/forte,bloc_1,prob20hthp_12trials.xlsx,4,48,20,80,0,,,,,0,0,0,0,0,0,0,0,,,,,,,,3.1,235.53371979999974,238.63295149999976,238.6328793100003,0.3049408000006224,239.0773105999997,239.0773105999997,m,0.9496565999997983,242.51902429999973,242.51902429999973,61,2.413,,,sub-019,90,160,700,bloc_loop.csv,2023-06-05_17h50.36.211,PainUncertainty,2022.2.5,144.0241499714392,
aigu,moderee,stimuli/660Hz,stimuli/moderee,bloc_1,prob20hthp_12trials.xlsx,4,48,20,80,0,,,,,0,0,0,0,0,1,1,8,,,,,,,,4.6,242.51902429999973,247.11960360000012,247.11998060999957,0.30507049999869196,247.56403859999955,247.56403859999955,n,0.9319602000014129,250.7854210000005,250.7854210000005,25,2.205,,,sub-019,90,160,700,bloc_loop.csv,2023-06-05_17h50.36.211,PainUncertainty,2022.2.5,144.0241499714392,
grave,forte,stimuli/330Hz,stimuli/forte,bloc_1,prob20hthp_12trials.xlsx,4,48,20,80,0,,,,,0,0,0,0,0,2,2,2,,,,,,,,4.6,250.7854210000005,255.38455129999966,255.38467290999887,0.30457449999994424,255.82871589999922,255.82871589999922,m,0.7856542000008631,259.78431119999914,259.78431119999914,62,3.102,,,sub-019,90,160,700,bloc_loop.csv,2023-06-05_17h50.36.211,PainUncertainty,2022.2.5,144.0241499714392,
grave,forte,stimuli/330Hz,stimuli/forte,bloc_1,prob20hthp_12trials.xlsx,4,48,20,80,0,,,,,0,0,0,0,0,3,3,3,,,,,,,,4.3,259.78431119999914,264.08696260000033,264.0870237099991,0.2991774999991321,264.5251718999989,264.5251718999989,m,0.8383190999993531,268.3505372999989,268.3505372999989,63,2.929,,,sub-019,90,160,700,bloc_loop.csv,2023-06-05_17h50.36.211,PainUncertainty,2022.2.5,144.0241499714392,
grave,forte,stimuli/330Hz,stimuli/forte,bloc_1,prob20hthp_12trials.xlsx,4,48,20,80,0,,,,,0,0,0,0,0,4,4,4,,,,,,,,3.6,268.3505372999989,271.95604060000005,271.95614930999926,0.3049845000005007,272.4045403,272.4045403,m,1.2277926000006119,275.7371681000004,275.7371681000004,57,2.031,,,sub-019,90,160,700,bloc_loop.csv,2023-06-05_17h50.36.211,PainUncertainty,2022.2.5,144.0241499714392,
aigu,moderee,stimuli/660Hz,stimuli/moderee,bloc_1,prob20hthp_12trials.xlsx,4,48,20,80,0,,,,,0,0,0,0,0,5,5,9,,,,,,,,3.6,275.7371681000004,279.3390853000001,279.3391794099991,0.3049588000012591,279.78294409999944,279.78294409999944,n,0.849463000000469,283.48912889999883,283.48912889999883,24,2.795,,,sub-019,90,160,700,bloc_loop.csv,2023-06-05_17h50.36.211,PainUncertainty,2022.2.5,144.0241499714392,
grave,moderee,stimuli/330Hz,stimuli/moderee,bloc_1,prob20hthp_12trials.xlsx,4,48,20,80,0,,,,,0,0,0,0,0,6,6,5,,,,,,,,4.4,283.48912889999883,287.8888165999997,287.8887402099992,0.30488919999879727,288.33282379999946,288.33282379999946,n,0.9241222000000562,292.4105867999988,292.4105867999988,24,3.094,,,sub-019,90,160,700,bloc_loop.csv,2023-06-05_17h50.36.211,PainUncertainty,2022.2.5,144.0241499714392,
aigu,moderee,stimuli/660Hz,stimuli/moderee,bloc_1,prob20hthp_12trials.xlsx,4,48,20,80,0,,,,,0,0,0,0,0,7,7,6,,,,,,,,5,292.4105867999988,297.4103699999996,297.41039370999914,0.3049537999995664,297.8550075999992,297.8550075999992,n,1.0471744000005856,303.5200647999991,303.5200647999991,22,4.559,,,sub-019,90,160,700,bloc_loop.csv,2023-06-05_17h50.36.211,PainUncertainty,2022.2.5,144.0241499714392,
aigu,moderee,stimuli/660Hz,stimuli/moderee,bloc_1,prob20hthp_12trials.xlsx,4,48,20,80,0,,,,,0,0,0,0,0,8,8,7,,,,,,,,3.9,303.5200647999991,307.42555229999925,307.42564970999973,0.3049901999984286,307.86972629999946,307.86972629999946,n,0.5854805999988457,310.4735542999988,310.4735542999988,31,1.955,,,sub-019,90,160,700,bloc_loop.csv,2023-06-05_17h50.36.211,PainUncertainty,2022.2.5,144.0241499714392,
aigu,moderee,stimuli/660Hz,stimuli/moderee,bloc_1,prob20hthp_12trials.xlsx,4,48,20,80,0,,,,,0,0,0,0,0,9,9,10,,,,,,,,4.6,310.4735542999988,315.07924280000043,315.0793759099999,0.3048579000005702,315.52346059999945,315.52346059999945,n,0.6372523000009096,318.08346510000047,318.08346510000047,32,1.849,,,sub-019,90,160,700,bloc_loop.csv,2023-06-05_17h50.36.211,PainUncertainty,2022.2.5,144.0241499714392,
grave,forte,stimuli/330Hz,stimuli/forte,bloc_1,prob20hthp_12trials.xlsx,4,48,20,80,0,,,,,0,0,0,0,0,10,10,1,,,,,,,,3.2,318.08346510000047,321.28837459999886,321.28838140999886,0.3049446999993961,321.73254499999894,321.73254499999894,m,0.9655516000002535,324.8617663999994,324.8617663999994,63,2.115,,,sub-019,90,160,700,bloc_loop.csv,2023-06-05_17h50.36.211,PainUncertainty,2022.2.5,144.0241499714392,
aigu,forte,stimuli/660Hz,stimuli/forte,bloc_1,prob20hthp_12trials.xlsx,4,48,20,80,0,,,,,0,0,0,0,0,11,11,11,,,,,,,,4.6,324.8617663999994,329.4630232999989,329.46305260999924,0.3047344999995403,329.9115134999993,329.9115134999993,m,0.709175599999071,333.0316454999993,333.0316454999993,62,2.352,,,sub-019,90,160,700,bloc_loop.csv,2023-06-05_17h50.36.211,PainUncertainty,2022.2.5,144.0241499714392,
grave,forte,stimuli/330Hz,stimuli/forte,bloc_1,prob20hthp_12trials.xlsx,4,48,20,80,0,,,,,0,0,0,0,1,0,12,3,,,,,,,,3.7,333.0316454999993,336.7351230999993,336.735034309999,0.30532990000028803,337.1842349999988,337.1842349999988,m,0.7109432000015659,340.0960901999988,340.0960901999988,54,2.135,,,sub-019,90,160,700,bloc_loop.csv,2023-06-05_17h50.36.211,PainUncertainty,2022.2.5,144.0241499714392,
aigu,forte,stimuli/660Hz,stimuli/forte,bloc_1,prob20hthp_12trials.xlsx,4,48,20,80,0,,,,,0,0,0,0,1,1,13,11,,,,,,,,3.4,340.0960901999988,343.50091489999977,343.4997498100003,0.30461149999973713,343.94358329999886,343.94358329999886,n,2.415371100001721,347.7524537999998,347.7524537999998,42,1.338,,,sub-019,90,160,700,bloc_loop.csv,2023-06-05_17h50.36.211,PainUncertainty,2022.2.5,144.0241499714392,
grave,forte,stimuli/330Hz,stimuli/forte,bloc_1,prob20hthp_12trials.xlsx,4,48,20,80,0,,,,,0,0,0,0,1,2,14,1,,,,,,,,3.3,347.7524537999998,351.0556878999996,351.0557577099991,0.3048287000001437,351.49992589999965,351.49992589999965,m,0.6833002000003034,354.3718993000002,354.3718993000002,58,2.107,,,sub-019,90,160,700,bloc_loop.csv,2023-06-05_17h50.36.211,PainUncertainty,2022.2.5,144.0241499714392,
aigu,moderee,stimuli/660Hz,stimuli/moderee,bloc_1,prob20hthp_12trials.xlsx,4,48,20,80,0,,,,,0,0,0,0,1,3,15,10,,,,,,,,3.9,354.3718993000002,358.2720731999998,358.2720499099998,0.30531969999901776,358.7189137999994,358.7189137999994,n,0.6759141999991698,361.53371700000025,361.53371700000025,24,2.059,,,sub-019,90,160,700,bloc_loop.csv,2023-06-05_17h50.36.211,PainUncertainty,2022.2.5,144.0241499714392,
grave,forte,stimuli/330Hz,stimuli/forte,bloc_1,prob20hthp_12trials.xlsx,4,48,20,80,0,,,,,0,0,0,0,1,4,16,4,,,,,,,,3.5,361.53371700000025,365.03666899999916,365.03671220999985,0.3048428000001877,365.48114319999877,365.48114319999877,m,0.5824447000013606,367.83130679999886,367.83130679999886,63,1.698,,,sub-019,90,160,700,bloc_loop.csv,2023-06-05_17h50.36.211,PainUncertainty,2022.2.5,144.0241499714392,
grave,moderee,stimuli/330Hz,stimuli/moderee,bloc_1,prob20hthp_12trials.xlsx,4,48,20,80,0,,,,,0,0,0,0,1,5,17,5,,,,,,,,3.6,367.83130679999886,371.4336287999995,371.4335096100005,0.30528790000062145,371.88129649999973,371.88129649999973,n,0.5570277000006172,374.4324749999996,374.4324749999996,24,1.927,,,sub-019,90,160,700,bloc_loop.csv,2023-06-05_17h50.36.211,PainUncertainty,2022.2.5,144.0241499714392,
grave,forte,stimuli/330Hz,stimuli/forte,bloc_1,prob20hthp_12trials.xlsx,4,48,20,80,0,,,,,0,0,0,0,1,6,18,2,,,,,,,,3.9,374.4324749999996,378.33963070000027,378.33718031000006,0.301048900000751,378.7816019999991,378.7816019999991,m,0.6777891000001546,381.3563108999988,381.3563108999988,65,1.817,,,sub-019,90,160,700,bloc_loop.csv,2023-06-05_17h50.36.211,PainUncertainty,2022.2.5,144.0241499714392,
aigu,moderee,stimuli/660Hz,stimuli/moderee,bloc_1,prob20hthp_12trials.xlsx,4,48,20,80,0,,,,,0,0,0,0,1,7,19,7,,,,,,,,4.7,381.3563108999988,386.0598668999992,386.0598859099993,0.3051883000007365,386.5040446999992,386.5040446999992,n,0.7821709000018018,389.6210911999988,389.6210911999988,27,2.253,,,sub-019,90,160,700,bloc_loop.csv,2023-06-05_17h50.36.211,PainUncertainty,2022.2.5,144.0241499714392,
grave,forte,stimuli/330Hz,stimuli/forte,bloc_1,prob20hthp_12trials.xlsx,4,48,20,80,0,,,,,0,0,0,0,1,8,20,0,,,,,,,,4.4,389.6210911999988,394.0265333999996,394.026810309999,0.30469219999940833,394.47036599999956,394.47036599999956,n,0.9001600999999937,397.3258016,397.3258016,57,1.886,,,sub-019,90,160,700,bloc_loop.csv,2023-06-05_17h50.36.211,PainUncertainty,2022.2.5,144.0241499714392,
aigu,moderee,stimuli/660Hz,stimuli/moderee,bloc_1,prob20hthp_12trials.xlsx,4,48,20,80,0,,,,,0,0,0,0,1,9,21,9,,,,,,,,3.2,397.3258016,400.52734529999907,400.5273443099997,0.299145300001328,400.96569219999947,400.96569219999947,n,0.551564800000051,402.8868457999997,402.8868457999997,25,1.315,,,sub-019,90,160,700,bloc_loop.csv,2023-06-05_17h50.36.211,PainUncertainty,2022.2.5,144.0241499714392,
aigu,moderee,stimuli/660Hz,stimuli/moderee,bloc_1,prob20hthp_12trials.xlsx,4,48,20,80,0,,,,,0,0,0,0,1,10,22,6,,,,,,,,4.2,402.8868457999997,407.09067680000044,407.0905837100001,0.3050095999988116,407.53431909999927,407.53431909999927,n,0.9509090000010474,411.3768602,411.3768602,29,2.838,,,sub-019,90,160,700,bloc_loop.csv,2023-06-05_17h50.36.211,PainUncertainty,2022.2.5,144.0241499714392,
aigu,moderee,stimuli/660Hz,stimuli/moderee,bloc_1,prob20hthp_12trials.xlsx,4,48,20,80,0,,,,,0,0,0,0,1,11,23,8,,,,,,,,3.9,411.3768602,415.27870280000025,415.278747909999,0.30509840000013355,415.7230879999988,415.7230879999988,n,0.7252317000020412,419.01841459999923,419.01841459999923,32,2.49,,,sub-019,90,160,700,bloc_loop.csv,2023-06-05_17h50.36.211,PainUncertainty,2022.2.5,144.0241499714392,
grave,forte,stimuli/330Hz,stimuli/forte,bloc_1,prob20hthp_12trials.xlsx,4,48,20,80,0,,,,,0,0,0,0,2,0,24,1,,,,,,,,3.1,419.01841459999923,422.12009620000026,422.119998209999,0.30506989999958023,422.56426269999974,422.56426269999974,m,0.9457488999996713,427.41029179999896,427.41029179999896,62,3.829,,,sub-019,90,160,700,bloc_loop.csv,2023-06-05_17h50.36.211,PainUncertainty,2022.2.5,144.0241499714392,
aigu,moderee,stimuli/660Hz,stimuli/moderee,bloc_1,prob20hthp_12trials.xlsx,4,48,20,80,0,,,,,0,0,0,0,2,1,25,9,,,,,,,,4.7,427.41029179999896,432.11437119999937,432.1144545099998,0.30554189999929804,432.5633440999991,432.5633440999991,n,0.8825539000008575,437.8494493999988,437.8494493999988,26,4.283,,,sub-019,90,160,700,bloc_loop.csv,2023-06-05_17h50.36.211,PainUncertainty,2022.2.5,144.0241499714392,
grave,forte,stimuli/330Hz,stimuli/forte,bloc_1,prob20hthp_12trials.xlsx,4,48,20,80,0,,,,,0,0,0,0,2,2,26,4,,,,,,,,3.4,437.8494493999988,441.2540289999997,441.25405711,0.3053316999994422,441.6986324999998,441.6986324999998,m,1.5852142999992793,445.8254493000004,445.8254493000004,61,2.477,,,sub-019,90,160,700,bloc_loop.csv,2023-06-05_17h50.36.211,PainUncertainty,2022.2.5,144.0241499714392,
grave,forte,stimuli/330Hz,stimuli/forte,bloc_1,prob20hthp_12trials.xlsx,4,48,20,80,0,,,,,0,0,0,0,2,3,27,3,,,,,,,,4.8,445.8254493000004,450.6305615000001,450.6308247099989,0.2997224999999162,451.07499479999933,451.07499479999933,m,1.2950748999992356,455.05065379999905,455.05065379999905,63,2.615,,,sub-019,90,160,700,bloc_loop.csv,2023-06-05_17h50.36.211,PainUncertainty,2022.2.5,144.0241499714392,
aigu,forte,stimuli/660Hz,stimuli/forte,bloc_1,prob20hthp_12trials.xlsx,4,48,20,80,0,,,,,0,0,0,0,2,4,28,11,,,,,,,,4.1,455.05065379999905,459.1531426999991,459.1523882099993,0.3054026999998314,459.60002279999935,459.60002279999935,m,1.7795374000015727,463.55521640000006,463.55521640000006,61,2.094,,,sub-019,90,160,700,bloc_loop.csv,2023-06-05_17h50.36.211,PainUncertainty,2022.2.5,144.0241499714392,
aigu,moderee,stimuli/660Hz,stimuli/moderee,bloc_1,prob20hthp_12trials.xlsx,4,48,20,80,0,,,,,0,0,0,0,2,5,29,10,,,,,,,,4.8,463.55521640000006,468.3545290999991,468.35446131000043,0.30538979999982985,468.80247339999914,468.80247339999914,n,0.6352769000004628,470.82748869999887,470.82748869999887,30,1.33,,,sub-019,90,160,700,bloc_loop.csv,2023-06-05_17h50.36.211,PainUncertainty,2022.2.5,144.0241499714392,
aigu,moderee,stimuli/660Hz,stimuli/moderee,bloc_1,prob20hthp_12trials.xlsx,4,48,20,80,0,,,,,0,0,0,0,2,6,30,8,,,,,,,,3.3,470.82748869999887,474.1329920999997,474.13295920999934,0.304931900000156,474.5771160000004,474.5771160000004,n,0.5652339000007487,478.66043290000016,478.66043290000016,27,3.456,,,sub-019,90,160,700,bloc_loop.csv,2023-06-05_17h50.36.211,PainUncertainty,2022.2.5,144.0241499714392,
aigu,moderee,stimuli/660Hz,stimuli/moderee,bloc_1,prob20hthp_12trials.xlsx,4,48,20,80,0,,,,,0,0,0,0,2,7,31,6,,,,,,,,5,478.66043290000016,483.66188839999995,483.66200980999946,0.3050179999991087,484.1098714999989,484.1098714999989,n,1.4641797999993287,489.54814369999986,489.54814369999986,29,3.9,,,sub-019,90,160,700,bloc_loop.csv,2023-06-05_17h50.36.211,PainUncertainty,2022.2.5,144.0241499714392,
grave,forte,stimuli/330Hz,stimuli/forte,bloc_1,prob20hthp_12trials.xlsx,4,48,20,80,0,,,,,0,0,0,0,2,8,32,2,,,,,,,,4.9,489.54814369999986,494.4479266999988,494.44790650999875,0.30536690000008093,494.89611239999977,494.89611239999977,m,1.3023362000003544,498.34035740000036,498.34035740000036,63,2.066,,,sub-019,90,160,700,bloc_loop.csv,2023-06-05_17h50.36.211,PainUncertainty,2022.2.5,144.0241499714392,
aigu,moderee,stimuli/660Hz,stimuli/moderee,bloc_1,prob20hthp_12trials.xlsx,4,48,20,80,0,,,,,0,0,0,0,2,9,33,7,,,,,,,,4.2,498.34035740000036,502.5394028999999,502.5394884099989,0.30574979999983043,502.9888441999992,502.9888441999992,n,1.8763795000013488,506.9082225000002,506.9082225000002,33,1.969,,,sub-019,90,160,700,bloc_loop.csv,2023-06-05_17h50.36.211,PainUncertainty,2022.2.5,144.0241499714392,
grave,forte,stimuli/330Hz,stimuli/forte,bloc_1,prob20hthp_12trials.xlsx,4,48,20,80,0,,,,,0,0,0,0,2,10,34,0,,,,,,,,3.9,506.9082225000002,510.8110154999995,510.8109745099993,0.3051487000011548,511.2554483999993,511.2554483999993,m,1.0900550999995176,514.8700288,514.8700288,63,2.456,,,sub-019,90,160,700,bloc_loop.csv,2023-06-05_17h50.36.211,PainUncertainty,2022.2.5,144.0241499714392,
grave,moderee,stimuli/330Hz,stimuli/moderee,bloc_1,prob20hthp_12trials.xlsx,4,48,20,80,0,,,,,0,0,0,0,2,11,35,5,,,,,,,,3.5,514.8700288,518.3747320999992,518.3746708099991,0.3048966999995173,518.8189648999996,518.8189648999996,n,0.7480156999990868,523.0373681000001,523.0373681000001,30,3.399,,,sub-019,90,160,700,bloc_loop.csv,2023-06-05_17h50.36.211,PainUncertainty,2022.2.5,144.0241499714392,
grave,forte,stimuli/330Hz,stimuli/forte,bloc_1,prob20hthp_12trials.xlsx,4,48,20,80,0,,,,,0,0,0,0,3,0,36,2,,,,,,,,3.5,523.0373681000001,526.5420777999989,526.5421815100001,0.3046856000000844,526.9861757999988,526.9861757999988,n,1.8209281999988889,530.7414907000002,530.7414907000002,64,1.864,,,sub-019,90,160,700,bloc_loop.csv,2023-06-05_17h50.36.211,PainUncertainty,2022.2.5,144.0241499714392,
aigu,moderee,stimuli/660Hz,stimuli/moderee,bloc_1,prob20hthp_12trials.xlsx,4,48,20,80,0,,,,,0,0,0,0,3,1,37,7,,,,,,,,3.2,530.7414907000002,533.9456327999997,533.9457591100002,0.3049574999986362,534.3900940000003,534.3900940000003,n,1.8729163000007247,538.8972591000002,538.8972591000002,38,2.553,,,sub-019,90,160,700,bloc_loop.csv,2023-06-05_17h50.36.211,PainUncertainty,2022.2.5,144.0241499714392,
grave,forte,stimuli/330Hz,stimuli/forte,bloc_1,prob20hthp_12trials.xlsx,4,48,20,80,0,,,,,0,0,0,0,3,2,38,4,,,,,,,,4.1,538.8972591000002,543.0026374999998,543.00273941,0.3050905000000057,543.4503817000004,543.4503817000004,m,0.8523602000004757,547.8809788999988,547.8809788999988,59,3.498,,,sub-019,90,160,700,bloc_loop.csv,2023-06-05_17h50.36.211,PainUncertainty,2022.2.5,144.0241499714392,
aigu,moderee,stimuli/660Hz,stimuli/moderee,bloc_1,prob20hthp_12trials.xlsx,4,48,20,80,0,,,,,0,0,0,0,3,3,39,8,,,,,,,,3.8,547.8809788999988,551.6840054999993,551.6840387100003,0.3048796000002767,552.1282351999998,552.1282351999998,n,1.4495440999999119,555.1226444999993,555.1226444999993,37,1.483,,,sub-019,90,160,700,bloc_loop.csv,2023-06-05_17h50.36.211,PainUncertainty,2022.2.5,144.0241499714392,
grave,moderee,stimuli/330Hz,stimuli/moderee,bloc_1,prob20hthp_12trials.xlsx,4,48,20,80,0,,,,,0,0,0,0,3,4,40,5,,,,,,,,3.5,555.1226444999993,558.6228047000004,558.6227448100001,0.30486150000069756,559.070839,559.070839,n,0.9219073000003846,562.8091755999994,562.8091755999994,24,2.739,,,sub-019,90,160,700,bloc_loop.csv,2023-06-05_17h50.36.211,PainUncertainty,2022.2.5,144.0241499714392,
aigu,forte,stimuli/660Hz,stimuli/forte,bloc_1,prob20hthp_12trials.xlsx,4,48,20,80,0,,,,,0,0,0,0,3,5,41,11,,,,,,,,3.7,562.8091755999994,566.5128129000004,566.5127999099989,0.3044850000005681,566.9564837999988,566.9564837999988,m,2.1852930999993987,572.4815595,572.4815595,62,3.275,,,sub-019,90,160,700,bloc_loop.csv,2023-06-05_17h50.36.211,PainUncertainty,2022.2.5,144.0241499714392,
grave,forte,stimuli/330Hz,stimuli/forte,bloc_1,prob20hthp_12trials.xlsx,4,48,20,80,0,,,,,0,0,0,0,3,6,42,3,,,,,,,,4.9,572.4815595,577.3813665999987,577.3814088099991,0.3051735999997618,577.8257667999987,577.8257667999987,m,0.6295683999996982,580.0114635999998,580.0114635999998,63,1.496,,,sub-019,90,160,700,bloc_loop.csv,2023-06-05_17h50.36.211,PainUncertainty,2022.2.5,144.0241499714392,
grave,forte,stimuli/330Hz,stimuli/forte,bloc_1,prob20hthp_12trials.xlsx,4,48,20,80,0,,,,,0,0,0,0,3,7,43,1,,,,,,,,3.3,580.0114635999998,583.3127815999997,583.312878609999,0.3057186999994883,583.7620062999995,583.7620062999995,m,0.7741767999996227,586.7743990999988,586.7743990999988,60,2.157,,,sub-019,90,160,700,bloc_loop.csv,2023-06-05_17h50.36.211,PainUncertainty,2022.2.5,144.0241499714392,
aigu,moderee,stimuli/660Hz,stimuli/moderee,bloc_1,prob20hthp_12trials.xlsx,4,48,20,80,0,,,,,0,0,0,0,3,8,44,6,,,,,,,,3.7,586.7743990999988,590.4736481999989,590.4738637100002,0.3050963999994565,590.9184198000003,590.9184198000003,n,2.429091399999379,594.7332074000005,594.7332074000005,36,1.337,,,sub-019,90,160,700,bloc_loop.csv,2023-06-05_17h50.36.211,PainUncertainty,2022.2.5,144.0241499714392,
aigu,moderee,stimuli/660Hz,stimuli/moderee,bloc_1,prob20hthp_12trials.xlsx,4,48,20,80,0,,,,,0,0,0,0,3,9,45,10,,,,,,,,4.9,594.7332074000005,599.6340490999992,599.6342071099991,0.3054166999991139,600.0790349999988,600.0790349999988,n,1.1059889999996813,604.1516319999992,604.1516319999992,25,2.886,,,sub-019,90,160,700,bloc_loop.csv,2023-06-05_17h50.36.211,PainUncertainty,2022.2.5,144.0241499714392,
grave,forte,stimuli/330Hz,stimuli/forte,bloc_1,prob20hthp_12trials.xlsx,4,48,20,80,0,,,,,0,0,0,0,3,10,46,0,,,,,,,,3.3,604.1516319999992,607.4545565999997,607.4545541099999,0.30528959999901417,607.899121299999,607.899121299999,m,0.769563099998777,611.4885503000005,611.4885503000005,60,2.741,,,sub-019,90,160,700,bloc_loop.csv,2023-06-05_17h50.36.211,PainUncertainty,2022.2.5,144.0241499714392,
aigu,moderee,stimuli/660Hz,stimuli/moderee,bloc_1,prob20hthp_12trials.xlsx,4,48,20,80,0,,,,,0,0,0,0,3,11,47,9,,,,,,,,3.7,611.4885503000005,615.1918434999989,615.1920818099991,0.30485780000162777,615.6386106999998,615.6386106999998,n,1.1928055999997014,619.0321179999992,619.0321179999992,27,2.135,,,sub-019,90,160,700,bloc_loop.csv,2023-06-05_17h50.36.211,PainUncertainty,2022.2.5,144.0241499714392,
grave,moderee,stimuli/330Hz,stimuli/moderee,bloc_2,prob50_50_4trials.xlsx,2,8,50,50,1,,,,,0,1,1,1,0,0,0,0,,,,,,,,4.9,619.0321179999992,623.935942099999,623.9359145099991,0.30491490000167687,624.3797180999991,624.3797180999991,n,0.6906806999995752,626.1794150000005,626.1794150000005,30,1.052,,,sub-019,90,160,700,bloc_loop.csv,2023-06-05_17h50.36.211,PainUncertainty,2022.2.5,144.0241499714392,
aigu,moderee,stimuli/660Hz,stimuli/moderee,bloc_2,prob50_50_4trials.xlsx,2,8,50,50,1,,,,,0,1,1,1,0,1,1,2,,,,,,,,4,626.1794150000005,630.1798965999988,630.1797453099991,0.3048402000003989,630.623753599999,630.623753599999,n,2.299279100001513,636.9372380000004,636.9372380000004,36,3.942,,,sub-019,90,160,700,bloc_loop.csv,2023-06-05_17h50.36.211,PainUncertainty,2022.2.5,144.0241499714392,
aigu,forte,stimuli/660Hz,stimuli/forte,bloc_2,prob50_50_4trials.xlsx,2,8,50,50,1,,,,,0,1,1,1,0,2,2,3,,,,,,,,4,636.9372380000004,640.9375567999996,640.9377777100001,0.3051133999997546,641.3818799000001,641.3818799000001,m,0.7414564999999129,643.8112296999989,643.8112296999989,62,1.621,,,sub-019,90,160,700,bloc_loop.csv,2023-06-05_17h50.36.211,PainUncertainty,2022.2.5,144.0241499714392,
grave,forte,stimuli/330Hz,stimuli/forte,bloc_2,prob50_50_4trials.xlsx,2,8,50,50,1,,,,,0,1,1,1,0,3,3,1,,,,,,,,4.3,643.8112296999989,648.1125725999991,648.1128440100003,0.30482370000027004,648.5590604999998,648.5590604999998,m,0.6855163000000175,651.8195581,651.8195581,62,2.51,,,sub-019,90,160,700,bloc_loop.csv,2023-06-05_17h50.36.211,PainUncertainty,2022.2.5,144.0241499714392,
aigu,forte,stimuli/660Hz,stimuli/forte,bloc_2,prob50_50_4trials.xlsx,2,8,50,50,1,,,,,0,1,1,1,1,0,4,3,,,,,,,,4.4,651.8195581,656.2241835000004,656.2241762100005,0.3051746000001003,656.668511599999,656.668511599999,m,1.3556091000009474,660.6429752000004,660.6429752000004,61,2.552,,,sub-019,90,160,700,bloc_loop.csv,2023-06-05_17h50.36.211,PainUncertainty,2022.2.5,144.0241499714392,
grave,forte,stimuli/330Hz,stimuli/forte,bloc_2,prob50_50_4trials.xlsx,2,8,50,50,1,,,,,0,1,1,1,1,1,5,1,,,,,,,,3.6,660.6429752000004,664.2460680999993,664.2460215100002,0.30549059999975725,664.6906072000002,664.6906072000002,m,0.6183638999991672,667.4384790999993,667.4384790999993,64,2.053,,,sub-019,90,160,700,bloc_loop.csv,2023-06-05_17h50.36.211,PainUncertainty,2022.2.5,144.0241499714392,
aigu,moderee,stimuli/660Hz,stimuli/moderee,bloc_2,prob50_50_4trials.xlsx,2,8,50,50,1,,,,,0,1,1,1,1,2,6,2,,,,,,,,3.6,667.4384790999993,671.0386940999997,671.03864911,0.3049554999997781,671.4831078999996,671.4831078999996,n,0.7552903000014339,675.605712999999,675.605712999999,26,3.31,,,sub-019,90,160,700,bloc_loop.csv,2023-06-05_17h50.36.211,PainUncertainty,2022.2.5,144.0241499714392,
grave,moderee,stimuli/330Hz,stimuli/moderee,bloc_2,prob50_50_4trials.xlsx,2,8,50,50,1,,,,,0,1,1,1,1,3,7,0,,,,,,,,3.1,675.605712999999,678.7067279000003,678.7067406099998,0.30477309999878344,679.1509378999999,679.1509378999999,n,0.6591082000013557,683.7890181000002,683.7890181000002,22,1.948,,,sub-019,90,160,700,bloc_loop.csv,2023-06-05_17h50.36.211,PainUncertainty,2022.2.5,144.0241499714392,
,,,,bloc_2,prob50_50_4trials.xlsx,2,8,50,50,1,,,,,0,1,1,1,,,,,0,0,0,0,,,,,,,,,,,,,,,,,683.7890181000002,695.0969461999994,sub-019,90,160,700,bloc_loop.csv,2023-06-05_17h50.36.211,PainUncertainty,2022.2.5,144.0241499714392,
aigu,forte,stimuli/660Hz,stimuli/forte,bloc_3,prob80hthp_12trials.xlsx,2,24,80,20,0,,,,,0,2,2,2,0,0,0,9,,,,,,,,4.7,696.6131711999988,701.3128777000002,701.3128534099999,0.30644650000067486,701.7625171,701.7625171,m,1.3213126999999076,706.6350989999992,706.6350989999992,63,3.477,,,sub-019,90,160,700,bloc_loop.csv,2023-06-05_17h50.36.211,PainUncertainty,2022.2.5,144.0241499714392,
grave,moderee,stimuli/330Hz,stimuli/moderee,bloc_3,prob80hthp_12trials.xlsx,2,24,80,20,0,,,,,0,2,2,2,0,1,1,1,,,,,,,,3.5,706.6350989999992,710.1407801000005,710.1406929099996,0.30513950000022305,710.5849999999991,710.5849999999991,n,0.6272532000002684,712.7419601999991,712.7419601999991,19,1.455,,,sub-019,90,160,700,bloc_loop.csv,2023-06-05_17h50.36.211,PainUncertainty,2022.2.5,144.0241499714392,
aigu,forte,stimuli/660Hz,stimuli/forte,bloc_3,prob80hthp_12trials.xlsx,2,24,80,20,0,,,,,0,2,2,2,0,2,2,7,,,,,,,,3.5,712.7419601999991,716.2453647000002,716.2452471099989,0.30525070000112464,716.6935897000003,716.6935897000003,m,0.7925168000001577,719.7919330999994,719.7919330999994,66,2.253,,,sub-019,90,160,700,bloc_loop.csv,2023-06-05_17h50.36.211,PainUncertainty,2022.2.5,144.0241499714392,
aigu,forte,stimuli/660Hz,stimuli/forte,bloc_3,prob80hthp_12trials.xlsx,2,24,80,20,0,,,,,0,2,2,2,0,3,3,10,,,,,,,,3.8,719.7919330999994,723.5937133999996,723.5937271099995,0.30536840000058874,724.0414548999997,724.0414548999997,m,0.6093787999998312,726.8408784999992,726.8408784999992,67,2.108,,,sub-019,90,160,700,bloc_loop.csv,2023-06-05_17h50.36.211,PainUncertainty,2022.2.5,144.0241499714392,
grave,moderee,stimuli/330Hz,stimuli/moderee,bloc_3,prob80hthp_12trials.xlsx,2,24,80,20,0,,,,,0,2,2,2,0,4,4,0,,,,,,,,4.6,726.8408784999992,731.4434111999999,731.4419598099996,0.3049494000006234,731.8905894999989,731.8905894999989,n,1.444600700000592,735.1223007999997,735.1223007999997,21,1.7,,,sub-019,90,160,700,bloc_loop.csv,2023-06-05_17h50.36.211,PainUncertainty,2022.2.5,144.0241499714392,
aigu,forte,stimuli/660Hz,stimuli/forte,bloc_3,prob80hthp_12trials.xlsx,2,24,80,20,0,,,,,0,2,2,2,0,5,5,8,,,,,,,,4,735.1223007999997,739.123518299999,739.1234500100002,0.30508740000004764,739.5715154999998,739.5715154999998,m,0.5902521000007255,742.0436771999994,742.0436771999994,70,1.81,,,sub-019,90,160,700,bloc_loop.csv,2023-06-05_17h50.36.211,PainUncertainty,2022.2.5,144.0241499714392,
grave,moderee,stimuli/330Hz,stimuli/moderee,bloc_3,prob80hthp_12trials.xlsx,2,24,80,20,0,,,,,0,2,2,2,0,6,6,4,,,,,,,,3.7,742.0436771999994,745.7488064999998,745.7487999099997,0.30533640000066953,746.1970886999989,746.1970886999989,n,0.6644080999994912,748.6295871000002,748.6295871000002,23,1.692,,,sub-019,90,160,700,bloc_loop.csv,2023-06-05_17h50.36.211,PainUncertainty,2022.2.5,144.0241499714392,
aigu,forte,stimuli/660Hz,stimuli/forte,bloc_3,prob80hthp_12trials.xlsx,2,24,80,20,0,,,,,0,2,2,2,0,7,7,6,,,,,,,,3.4,748.6295871000002,752.0343202999993,752.0342423099994,0.3053063999996084,752.4807820999995,752.4807820999995,m,0.9692869000009523,756.7349715,756.7349715,68,3.205,,,sub-019,90,160,700,bloc_loop.csv,2023-06-05_17h50.36.211,PainUncertainty,2022.2.5,144.0241499714392,
grave,moderee,stimuli/330Hz,stimuli/moderee,bloc_3,prob80hthp_12trials.xlsx,2,24,80,20,0,,,,,0,2,2,2,0,8,8,2,,,,,,,,4.7,756.7349715,761.4381897000003,761.4382669099998,0.3050937999996677,761.8823603000001,761.8823603000001,n,0.6442121000000043,766.0545399000002,766.0545399000002,19,3.468,,,sub-019,90,160,700,bloc_loop.csv,2023-06-05_17h50.36.211,PainUncertainty,2022.2.5,144.0241499714392,
grave,moderee,stimuli/330Hz,stimuli/moderee,bloc_3,prob80hthp_12trials.xlsx,2,24,80,20,0,,,,,0,2,2,2,0,9,9,3,,,,,,,,4.4,766.0545399000002,770.453477699999,770.4536891099999,0.30506879999848024,770.9002068999998,770.9002068999998,n,0.6146821999991516,773.7119968999996,773.7119968999996,24,2.122,,,sub-019,90,160,700,bloc_loop.csv,2023-06-05_17h50.36.211,PainUncertainty,2022.2.5,144.0241499714392,
grave,forte,stimuli/330Hz,stimuli/forte,bloc_3,prob80hthp_12trials.xlsx,2,24,80,20,0,,,,,0,2,2,2,0,10,10,5,,,,,,,,4.7,773.7119968999996,778.4129033999998,778.4128413099991,0.30518950000077893,778.8612472000004,778.8612472000004,m,0.625243299999056,782.3757750000004,782.3757750000004,64,2.815,,,sub-019,90,160,700,bloc_loop.csv,2023-06-05_17h50.36.211,PainUncertainty,2022.2.5,144.0241499714392,
aigu,moderee,stimuli/660Hz,stimuli/moderee,bloc_3,prob80hthp_12trials.xlsx,2,24,80,20,0,,,,,0,2,2,2,0,11,11,11,,,,,,,,3,782.3757750000004,785.3785155000005,785.3786295100001,0.30508220000047004,785.8226777,785.8226777,n,0.6179188000005524,787.937646299999,787.937646299999,26,1.44,,,sub-019,90,160,700,bloc_loop.csv,2023-06-05_17h50.36.211,PainUncertainty,2022.2.5,144.0241499714392,
grave,moderee,stimuli/330Hz,stimuli/moderee,bloc_3,prob80hthp_12trials.xlsx,2,24,80,20,0,,,,,0,2,2,2,1,0,12,2,,,,,,,,3.6,787.937646299999,791.5390785,791.5391153099993,0.3047817999995459,791.9834871999992,791.9834871999992,n,1.35334949999924,795.5946758999999,795.5946758999999,25,2.198,,,sub-019,90,160,700,bloc_loop.csv,2023-06-05_17h50.36.211,PainUncertainty,2022.2.5,144.0241499714392,
grave,moderee,stimuli/330Hz,stimuli/moderee,bloc_3,prob80hthp_12trials.xlsx,2,24,80,20,0,,,,,0,2,2,2,1,1,13,0,,,,,,,,3.2,795.5946758999999,798.7968538999994,798.7968061100003,0.3052121000000625,799.2452749999993,799.2452749999993,n,0.6190119000002596,802.7419625000002,802.7419625000002,24,2.817,,,sub-019,90,160,700,bloc_loop.csv,2023-06-05_17h50.36.211,PainUncertainty,2022.2.5,144.0241499714392,
grave,moderee,stimuli/330Hz,stimuli/moderee,bloc_3,prob80hthp_12trials.xlsx,2,24,80,20,0,,,,,0,2,2,2,1,2,14,1,,,,,,,,3.7,802.7419625000002,806.4438212000005,806.4437954099997,0.30509600000004866,806.8920643999991,806.8920643999991,n,0.7765431999996508,810.9103094999991,810.9103094999991,25,3.169,,,sub-019,90,160,700,bloc_loop.csv,2023-06-05_17h50.36.211,PainUncertainty,2022.2.5,144.0241499714392,
grave,forte,stimuli/330Hz,stimuli/forte,bloc_3,prob80hthp_12trials.xlsx,2,24,80,20,0,,,,,0,2,2,2,1,3,15,5,,,,,,,,3.8,810.9103094999991,814.7153933999998,814.7154201100004,0.2999822999991011,815.1600777999993,815.1600777999993,m,0.6933919999992213,817.7683414000003,817.7683414000003,67,1.844,,,sub-019,90,160,700,bloc_loop.csv,2023-06-05_17h50.36.211,PainUncertainty,2022.2.5,144.0241499714392,
grave,moderee,stimuli/330Hz,stimuli/moderee,bloc_3,prob80hthp_12trials.xlsx,2,24,80,20,0,,,,,0,2,2,2,1,4,16,4,,,,,,,,4.3,817.7683414000003,822.0704714999993,822.070447209999,0.30526300000019546,822.514756999999,822.514756999999,n,0.5897589000014705,826.8807744999995,826.8807744999995,23,3.706,,,sub-019,90,160,700,bloc_loop.csv,2023-06-05_17h50.36.211,PainUncertainty,2022.2.5,144.0241499714392,
aigu,forte,stimuli/660Hz,stimuli/forte,bloc_3,prob80hthp_12trials.xlsx,2,24,80,20,0,,,,,0,2,2,2,1,5,17,9,,,,,,,,3.7,826.8807744999995,830.5858184999997,830.5857636099993,0.30501270000058867,831.0298803999995,831.0298803999995,m,1.2810528999998496,836.1525903000002,836.1525903000002,66,3.761,,,sub-019,90,160,700,bloc_loop.csv,2023-06-05_17h50.36.211,PainUncertainty,2022.2.5,144.0241499714392,
grave,moderee,stimuli/330Hz,stimuli/moderee,bloc_3,prob80hthp_12trials.xlsx,2,24,80,20,0,,,,,0,2,2,2,1,6,18,3,,,,,,,,4.3,836.1525903000002,840.4545756999996,840.4546976099994,0.30501169999843114,840.8987765999991,840.8987765999991,n,0.5844814000010956,844.5942491000005,844.5942491000005,27,3.024,,,sub-019,90,160,700,bloc_loop.csv,2023-06-05_17h50.36.211,PainUncertainty,2022.2.5,144.0241499714392,
aigu,forte,stimuli/660Hz,stimuli/forte,bloc_3,prob80hthp_12trials.xlsx,2,24,80,20,0,,,,,0,2,2,2,1,7,19,7,,,,,,,,3.7,844.5942491000005,848.295926499999,848.29579511,0.3053177000001597,848.7399834999997,848.7399834999997,m,0.5933853999995335,852.281374799999,852.281374799999,71,2.887,,,sub-019,90,160,700,bloc_loop.csv,2023-06-05_17h50.36.211,PainUncertainty,2022.2.5,144.0241499714392,
aigu,forte,stimuli/660Hz,stimuli/forte,bloc_3,prob80hthp_12trials.xlsx,2,24,80,20,0,,,,,0,2,2,2,1,8,20,8,,,,,,,,4.2,852.281374799999,856.4843390999995,856.48430321,0.3051556000009441,856.9284417999988,856.9284417999988,m,0.5868088000006537,861.4906231000004,861.4906231000004,72,3.916,,,sub-019,90,160,700,bloc_loop.csv,2023-06-05_17h50.36.211,PainUncertainty,2022.2.5,144.0241499714392,
aigu,forte,stimuli/660Hz,stimuli/forte,bloc_3,prob80hthp_12trials.xlsx,2,24,80,20,0,,,,,0,2,2,2,1,9,21,6,,,,,,,,4.8,861.4906231000004,866.2910394999999,866.2910653099991,0.30502440000054776,866.735502399999,866.735502399999,m,0.5711283000000549,871.7213124999998,871.7213124999998,73,4.343,,,sub-019,90,160,700,bloc_loop.csv,2023-06-05_17h50.36.211,PainUncertainty,2022.2.5,144.0241499714392,
aigu,moderee,stimuli/660Hz,stimuli/moderee,bloc_3,prob80hthp_12trials.xlsx,2,24,80,20,0,,,,,0,2,2,2,1,10,22,11,,,,,,,,4.8,871.7213124999998,876.5215026000005,876.5215932100002,0.30512519999865617,876.9658715000005,876.9658715000005,n,0.5772092999995948,879.1853216999989,879.1853216999989,22,1.566,,,sub-019,90,160,700,bloc_loop.csv,2023-06-05_17h50.36.211,PainUncertainty,2022.2.5,144.0241499714392,
aigu,forte,stimuli/660Hz,stimuli/forte,bloc_3,prob80hthp_12trials.xlsx,2,24,80,20,0,,,,,0,2,2,2,1,11,23,10,,,,,,,,3.6,879.1853216999989,882.7864129999998,882.78653401,0.3048395999994682,883.2302374999999,883.2302374999999,m,0.40642579999985173,885.7398125,885.7398125,72,2.038,,,sub-019,90,160,700,bloc_loop.csv,2023-06-05_17h50.36.211,PainUncertainty,2022.2.5,144.0241499714392,
grave,forte,stimuli/330Hz,stimuli/forte,bloc_4,prob50_50_4trials.xlsx,2,8,50,50,1,,,,,0,3,3,3,0,0,0,1,,,,,,,,4.3,885.7398125,890.0438773000005,890.0440321099998,0.30494569999973464,890.4882951999989,890.4882951999989,m,0.5906787000003533,892.4222288000001,892.4222288000001,68,1.289,,,sub-019,90,160,700,bloc_loop.csv,2023-06-05_17h50.36.211,PainUncertainty,2022.2.5,144.0241499714392,
aigu,forte,stimuli/660Hz,stimuli/forte,bloc_4,prob50_50_4trials.xlsx,2,8,50,50,1,,,,,0,3,3,3,0,1,1,3,,,,,,,,3.4,892.4222288000001,895.8223565999997,895.8224484099994,0.30546619999950053,896.2692534999987,896.2692534999987,m,0.6123411000007764,899.2185339999996,899.2185339999996,66,2.262,,,sub-019,90,160,700,bloc_loop.csv,2023-06-05_17h50.36.211,PainUncertainty,2022.2.5,144.0241499714392,
grave,moderee,stimuli/330Hz,stimuli/moderee,bloc_4,prob50_50_4trials.xlsx,2,8,50,50,1,,,,,0,3,3,3,0,2,2,0,,,,,,,,4.5,899.2185339999996,903.7190661999994,903.7191680099988,0.304973099999188,904.1633237999995,904.1633237999995,n,0.6594963000006828,907.5768451999993,907.5768451999993,14,2.705,,,sub-019,90,160,700,bloc_loop.csv,2023-06-05_17h50.36.211,PainUncertainty,2022.2.5,144.0241499714392,
aigu,moderee,stimuli/660Hz,stimuli/moderee,bloc_4,prob50_50_4trials.xlsx,2,8,50,50,1,,,,,0,3,3,3,0,3,3,2,,,,,,,,3.5,907.5768451999993,911.0812468999993,911.0812692099992,0.30486760000167124,911.5253013000001,911.5253013000001,n,0.5491395000008197,914.9941056999996,914.9941056999996,16,2.857,,,sub-019,90,160,700,bloc_loop.csv,2023-06-05_17h50.36.211,PainUncertainty,2022.2.5,144.0241499714392,
aigu,moderee,stimuli/660Hz,stimuli/moderee,bloc_4,prob50_50_4trials.xlsx,2,8,50,50,1,,,,,0,3,3,3,1,0,4,2,,,,,,,,4.6,914.9941056999996,919.5967744999998,919.5969106100004,0.30053700000098615,920.0415854000003,920.0415854000003,n,0.5840353000003233,922.0453988999998,922.0453988999998,21,1.345,,,sub-019,90,160,700,bloc_loop.csv,2023-06-05_17h50.36.211,PainUncertainty,2022.2.5,144.0241499714392,
aigu,forte,stimuli/660Hz,stimuli/forte,bloc_4,prob50_50_4trials.xlsx,2,8,50,50,1,,,,,0,3,3,3,1,1,5,3,,,,,,,,3.7,922.0453988999998,925.7495925000003,925.7497120099999,0.3048796000002767,926.1938413999997,926.1938413999997,m,0.9841663999995944,929.1900286,929.1900286,67,1.942,,,sub-019,90,160,700,bloc_loop.csv,2023-06-05_17h50.36.211,PainUncertainty,2022.2.5,144.0241499714392,
grave,moderee,stimuli/330Hz,stimuli/moderee,bloc_4,prob50_50_4trials.xlsx,2,8,50,50,1,,,,,0,3,3,3,1,2,6,0,,,,,,,,4.1,929.1900286,933.2922325,933.2922387099991,0.3052497000007861,933.7386358999993,933.7386358999993,n,1.0160843000012392,938.7026998999991,938.7026998999991,16,3.865,,,sub-019,90,160,700,bloc_loop.csv,2023-06-05_17h50.36.211,PainUncertainty,2022.2.5,144.0241499714392,
grave,forte,stimuli/330Hz,stimuli/forte,bloc_4,prob50_50_4trials.xlsx,2,8,50,50,1,,,,,0,3,3,3,1,3,7,1,,,,,,,,3.7,938.7026998999991,942.404328999999,942.4043822099995,0.30517479999980424,942.8487948000002,942.8487948000002,m,0.5737959000016417,948.5234199999995,948.5234199999995,67,3.067,,,sub-019,90,160,700,bloc_loop.csv,2023-06-05_17h50.36.211,PainUncertainty,2022.2.5,144.0241499714392,
,,,,bloc_4,prob50_50_4trials.xlsx,2,8,50,50,1,,,,,0,3,3,3,,,,,0,0,0,0,,,,,,,,,,,,,,,,,948.5234199999995,956.3713153999997,sub-019,90,160,700,bloc_loop.csv,2023-06-05_17h50.36.211,PainUncertainty,2022.2.5,144.0241499714392,
grave,moderee,stimuli/330Hz,stimuli/moderee,bloc_5,prob20hthp_12trials.xlsx,2,24,20,80,0,,,,,0,4,4,4,0,0,0,5,,,,,,,,4.3,957.3263568999992,961.6288316999999,961.6289043099989,0.3003324999990582,962.0737810999999,962.0737810999999,n,0.6282204999988608,965.9902956000005,965.9902956000005,16,3.213,,,sub-019,90,160,700,bloc_loop.csv,2023-06-05_17h50.36.211,PainUncertainty,2022.2.5,144.0241499714392,
grave,forte,stimuli/330Hz,stimuli/forte,bloc_5,prob20hthp_12trials.xlsx,2,24,20,80,0,,,,,0,4,4,4,0,1,1,0,,,,,,,,4.5,965.9902956000005,970.4909767999998,970.4911087099993,0.3049331999991409,970.9352249000003,970.9352249000003,m,0.5892490999995061,972.8001196999994,972.8001196999994,66,1.204,,,sub-019,90,160,700,bloc_loop.csv,2023-06-05_17h50.36.211,PainUncertainty,2022.2.5,144.0241499714392,
aigu,moderee,stimuli/660Hz,stimuli/moderee,bloc_5,prob20hthp_12trials.xlsx,2,24,20,80,0,,,,,0,4,4,4,0,2,2,10,,,,,,,,4,972.8001196999994,976.8042807999991,976.80424831,0.3052049999987503,977.2489186999992,977.2489186999992,n,1.2622113000015815,983.0807738999993,983.0807738999993,25,4.498,,,sub-019,90,160,700,bloc_loop.csv,2023-06-05_17h50.36.211,PainUncertainty,2022.2.5,144.0241499714392,
grave,forte,stimuli/330Hz,stimuli/forte,bloc_5,prob20hthp_12trials.xlsx,2,24,20,80,0,,,,,0,4,4,4,0,3,3,2,,,,,,,,4.4,983.0807738999993,987.4861056999998,987.4861870099996,0.3049699999992299,987.9302449999996,987.9302449999996,m,0.540017600000283,991.7450098999998,991.7450098999998,67,3.199,,,sub-019,90,160,700,bloc_loop.csv,2023-06-05_17h50.36.211,PainUncertainty,2022.2.5,144.0241499714392,
aigu,moderee,stimuli/660Hz,stimuli/moderee,bloc_5,prob20hthp_12trials.xlsx,2,24,20,80,0,,,,,0,4,4,4,0,4,4,8,,,,,,,,3.5,991.7450098999998,995.2439649999997,995.2440728099994,0.3050074999991921,995.6919091999989,995.6919091999989,n,0.6412965999988955,1000.3928607999987,1000.3928607999987,23,3.997,,,sub-019,90,160,700,bloc_loop.csv,2023-06-05_17h50.36.211,PainUncertainty,2022.2.5,144.0241499714392,
aigu,moderee,stimuli/660Hz,stimuli/moderee,bloc_5,prob20hthp_12trials.xlsx,2,24,20,80,0,,,,,0,4,4,4,0,5,5,7,,,,,,,,3.3,1000.3928607999987,1003.6962753999996,1003.6962463099992,0.30537850000109756,1004.1405648999989,1004.1405648999989,n,1.0510562000035861,1009.2810850000005,1009.2810850000005,29,4.018,,,sub-019,90,160,700,bloc_loop.csv,2023-06-05_17h50.36.211,PainUncertainty,2022.2.5,144.0241499714392,
grave,forte,stimuli/330Hz,stimuli/forte,bloc_5,prob20hthp_12trials.xlsx,2,24,20,80,0,,,,,0,4,4,4,0,6,6,1,,,,,,,,3.7,1009.2810850000005,1012.9821826999996,1012.9822818100004,0.3045709999969404,1013.4264491000013,1013.4264491000013,m,0.6065014000032534,1016.3936301000012,1016.3936301000012,66,2.281,,,sub-019,90,160,700,bloc_loop.csv,2023-06-05_17h50.36.211,PainUncertainty,2022.2.5,144.0241499714392,
aigu,moderee,stimuli/660Hz,stimuli/moderee,bloc_5,prob20hthp_12trials.xlsx,2,24,20,80,0,,,,,0,4,4,4,0,7,7,6,,,,,,,,4.6,1016.3936301000012,1020.9970239999984,1020.99707831,0.3049300000020594,1021.4413698999979,1021.4413698999979,n,0.5793946000030701,1025.3145815000007,1025.3145815000007,28,3.218,,,sub-019,90,160,700,bloc_loop.csv,2023-06-05_17h50.36.211,PainUncertainty,2022.2.5,144.0241499714392,
grave,forte,stimuli/330Hz,stimuli/forte,bloc_5,prob20hthp_12trials.xlsx,2,24,20,80,0,,,,,0,4,4,4,0,8,8,4,,,,,,,,4.7,1025.3145815000007,1030.0192540999979,1030.019299609998,0.3007757000013953,1030.463165700001,1030.463165700001,m,0.9401804999997694,1034.1858434000005,1034.1858434000005,67,2.726,,,sub-019,90,160,700,bloc_loop.csv,2023-06-05_17h50.36.211,PainUncertainty,2022.2.5,144.0241499714392,
grave,forte,stimuli/330Hz,stimuli/forte,bloc_5,prob20hthp_12trials.xlsx,2,24,20,80,0,,,,,0,4,4,4,0,9,9,3,,,,,,,,4.4,1034.1858434000005,1038.5900993999985,1038.5902215099998,0.2998890999988362,1039.0354621999995,1039.0354621999995,m,1.2374787999997352,1043.9711339000005,1043.9711339000005,64,3.62,,,sub-019,90,160,700,bloc_loop.csv,2023-06-05_17h50.36.211,PainUncertainty,2022.2.5,144.0241499714392,
aigu,moderee,stimuli/660Hz,stimuli/moderee,bloc_5,prob20hthp_12trials.xlsx,2,24,20,80,0,,,,,0,4,4,4,0,10,10,9,,,,,,,,4.9,1043.9711339000005,1048.8760303,1048.8759201100004,0.30487989999892307,1049.324580399998,1049.324580399998,n,1.0176883000003727,1052.5225081000008,1052.5225081000008,20,2.108,,,sub-019,90,160,700,bloc_loop.csv,2023-06-05_17h50.36.211,PainUncertainty,2022.2.5,144.0241499714392,
aigu,forte,stimuli/660Hz,stimuli/forte,bloc_5,prob20hthp_12trials.xlsx,2,24,20,80,0,,,,,0,4,4,4,0,11,11,11,,,,,,,,3.4,1052.5225081000008,1055.9252786999987,1055.9255025099994,0.30489529999977094,1056.3694510000005,1056.3694510000005,m,0.7664276999985304,1059.3787589000003,1059.3787589000003,64,2.17,,,sub-019,90,160,700,bloc_loop.csv,2023-06-05_17h50.36.211,PainUncertainty,2022.2.5,144.0241499714392,
aigu,moderee,stimuli/660Hz,stimuli/moderee,bloc_5,prob20hthp_12trials.xlsx,2,24,20,80,0,,,,,0,4,4,4,1,0,12,7,,,,,,,,4.8,1059.3787589000003,1064.1830938000003,1064.183190609998,0.30487880000146106,1064.6270582999987,1064.6270582999987,n,1.4696621000020968,1068.9547657999992,1068.9547657999992,23,2.796,,,sub-019,90,160,700,bloc_loop.csv,2023-06-05_17h50.36.211,PainUncertainty,2022.2.5,144.0241499714392,
aigu,moderee,stimuli/660Hz,stimuli/moderee,bloc_5,prob20hthp_12trials.xlsx,2,24,20,80,0,,,,,0,4,4,4,1,1,13,6,,,,,,,,5,1068.9547657999992,1073.9548301999985,1073.9548399099988,0.30553519999739365,1074.4030904999981,1074.4030904999981,n,0.9035076000018307,1077.5718357999995,1077.5718357999995,25,2.213,,,sub-019,90,160,700,bloc_loop.csv,2023-06-05_17h50.36.211,PainUncertainty,2022.2.5,144.0241499714392,
aigu,moderee,stimuli/660Hz,stimuli/moderee,bloc_5,prob20hthp_12trials.xlsx,2,24,20,80,0,,,,,0,4,4,4,1,2,14,10,,,,,,,,3.7,1077.5718357999995,1081.2757317999985,1081.2756950100013,0.3051077999989502,1081.722244399998,1081.722244399998,n,0.744004700000005,1085.0398493000012,1085.0398493000012,25,2.488,,,sub-019,90,160,700,bloc_loop.csv,2023-06-05_17h50.36.211,PainUncertainty,2022.2.5,144.0241499714392,
grave,forte,stimuli/330Hz,stimuli/forte,bloc_5,prob20hthp_12trials.xlsx,2,24,20,80,0,,,,,0,4,4,4,1,3,15,0,,,,,,,,3.8,1085.0398493000012,1088.8454895000013,1088.8455878099996,0.30511259999912,1089.2896693999992,1089.2896693999992,m,0.854785700003049,1094.9492560999988,1094.9492560999988,70,4.741,,,sub-019,90,160,700,bloc_loop.csv,2023-06-05_17h50.36.211,PainUncertainty,2022.2.5,144.0241499714392,
aigu,moderee,stimuli/660Hz,stimuli/moderee,bloc_5,prob20hthp_12trials.xlsx,2,24,20,80,0,,,,,0,4,4,4,1,4,16,9,,,,,,,,4,1094.9492560999988,1098.9511719999991,1098.9512018099997,0.3053810000019439,1099.3992458000012,1099.3992458000012,n,0.9766142999997101,1102.111891399998,1102.111891399998,29,1.65,,,sub-019,90,160,700,bloc_loop.csv,2023-06-05_17h50.36.211,PainUncertainty,2022.2.5,144.0241499714392,
grave,forte,stimuli/330Hz,stimuli/forte,bloc_5,prob20hthp_12trials.xlsx,2,24,20,80,0,,,,,0,4,4,4,1,5,17,4,,,,,,,,3.9,1102.111891399998,1106.0143039999984,1106.0144018100002,0.3052886000004946,1106.4621704,1106.4621704,m,0.7648886000006314,1112.1494492000002,1112.1494492000002,67,4.859,,,sub-019,90,160,700,bloc_loop.csv,2023-06-05_17h50.36.211,PainUncertainty,2022.2.5,144.0241499714392,
grave,forte,stimuli/330Hz,stimuli/forte,bloc_5,prob20hthp_12trials.xlsx,2,24,20,80,0,,,,,0,4,4,4,1,6,18,1,,,,,,,,5,1112.1494492000002,1117.1548706999984,1117.154659510001,0.30501430000003893,1117.5985892000008,1117.5985892000008,m,0.6573518999994121,1122.8140844999998,1122.8140844999998,64,4.476,,,sub-019,90,160,700,bloc_loop.csv,2023-06-05_17h50.36.211,PainUncertainty,2022.2.5,144.0241499714392,
aigu,moderee,stimuli/660Hz,stimuli/moderee,bloc_5,prob20hthp_12trials.xlsx,2,24,20,80,0,,,,,0,4,4,4,1,7,19,8,,,,,,,,3.2,1122.8140844999998,1126.0165577999996,1126.016609210001,0.3051941000012448,1126.4607191999985,1126.4607191999985,n,0.7571685999992042,1130.9500740999993,1130.9500740999993,23,3.665,,,sub-019,90,160,700,bloc_loop.csv,2023-06-05_17h50.36.211,PainUncertainty,2022.2.5,144.0241499714392,
grave,forte,stimuli/330Hz,stimuli/forte,bloc_5,prob20hthp_12trials.xlsx,2,24,20,80,0,,,,,0,4,4,4,1,8,20,3,,,,,,,,3.2,1130.9500740999993,1134.1495472000006,1134.1495403099982,0.3051187999990361,1134.5936075000009,1134.5936075000009,m,1.29211160000159,1140.0448407999993,1140.0448407999993,62,4.102,,,sub-019,90,160,700,bloc_loop.csv,2023-06-05_17h50.36.211,PainUncertainty,2022.2.5,144.0241499714392,
grave,forte,stimuli/330Hz,stimuli/forte,bloc_5,prob20hthp_12trials.xlsx,2,24,20,80,0,,,,,0,4,4,4,1,9,21,2,,,,,,,,4,1140.0448407999993,1144.0465066999986,1144.0464566099984,0.30525159999888274,1144.4907466999994,1144.4907466999994,m,1.1894129999982397,1150.373087599999,1150.373087599999,70,4.608,,,sub-019,90,160,700,bloc_loop.csv,2023-06-05_17h50.36.211,PainUncertainty,2022.2.5,144.0241499714392,
grave,moderee,stimuli/330Hz,stimuli/moderee,bloc_5,prob20hthp_12trials.xlsx,2,24,20,80,0,,,,,0,4,4,4,1,10,22,5,,,,,,,,3.8,1150.373087599999,1154.1729078999979,1154.1727631100005,0.3051344999985304,1154.6212690999982,1154.6212690999982,n,1.49370170000293,1158.7010656000002,1158.7010656000002,25,2.516,,,sub-019,90,160,700,bloc_loop.csv,2023-06-05_17h50.36.211,PainUncertainty,2022.2.5,144.0241499714392,
aigu,forte,stimuli/660Hz,stimuli/forte,bloc_5,prob20hthp_12trials.xlsx,2,24,20,80,0,,,,,0,4,4,4,1,11,23,11,,,,,,,,3.3,1158.7010656000002,1162.0000782000006,1162.0001100099983,0.30492120000053546,1162.448480500001,1162.448480500001,m,0.8933082999992621,1166.213505499998,1166.213505499998,68,2.802,,,sub-019,90,160,700,bloc_loop.csv,2023-06-05_17h50.36.211,PainUncertainty,2022.2.5,144.0241499714392,
grave,forte,stimuli/330Hz,stimuli/forte,bloc_6,prob50_50_4trials.xlsx,2,8,50,50,0,,,,,0,5,5,5,0,0,0,1,,,,,,,,4.8,1166.213505499998,1171.0153492000009,1171.015450709998,0.3047903000006045,1171.4597154999992,1171.4597154999992,m,1.1238605000016832,1176.5881041000011,1176.5881041000011,67,3.926,,,sub-019,90,160,700,bloc_loop.csv,2023-06-05_17h50.36.211,PainUncertainty,2022.2.5,144.0241499714392,
aigu,moderee,stimuli/660Hz,stimuli/moderee,bloc_6,prob50_50_4trials.xlsx,2,8,50,50,0,,,,,0,5,5,5,0,1,1,2,,,,,,,,4.1,1176.5881041000011,1180.6901192999994,1180.6900907099991,0.30491299999994226,1181.1340222999988,1181.1340222999988,n,1.5097112000021298,1184.9670075000013,1184.9670075000013,25,2.24,,,sub-019,90,160,700,bloc_loop.csv,2023-06-05_17h50.36.211,PainUncertainty,2022.2.5,144.0241499714392,
aigu,forte,stimuli/660Hz,stimuli/forte,bloc_6,prob50_50_4trials.xlsx,2,8,50,50,0,,,,,0,5,5,5,0,2,2,3,,,,,,,,3.7,1184.9670075000013,1188.6699333999986,1188.6700254099999,0.30514620000030845,1189.114072899998,1189.114072899998,m,0.7494712000025174,1193.7438789999997,1193.7438789999997,67,3.802,,,sub-019,90,160,700,bloc_loop.csv,2023-06-05_17h50.36.211,PainUncertainty,2022.2.5,144.0241499714392,
grave,moderee,stimuli/330Hz,stimuli/moderee,bloc_6,prob50_50_4trials.xlsx,2,8,50,50,0,,,,,0,5,5,5,0,3,3,0,,,,,,,,3.7,1193.7438789999997,1197.4488131999988,1197.4487371100006,0.3050312999985181,1197.8929059999991,1197.8929059999991,n,0.8813681000010547,1201.1436842999992,1201.1436842999992,23,2.31,,,sub-019,90,160,700,bloc_loop.csv,2023-06-05_17h50.36.211,PainUncertainty,2022.2.5,144.0241499714392,
grave,moderee,stimuli/330Hz,stimuli/moderee,bloc_6,prob50_50_4trials.xlsx,2,8,50,50,0,,,,,0,5,5,5,1,0,4,0,,,,,,,,3.2,1201.1436842999992,1204.3454984,1204.345516409998,0.3051034999989497,1204.7916032000012,1204.7916032000012,n,0.6586502000009204,1206.9142005000012,1206.9142005000012,28,1.391,,,sub-019,90,160,700,bloc_loop.csv,2023-06-05_17h50.36.211,PainUncertainty,2022.2.5,144.0241499714392,
grave,forte,stimuli/330Hz,stimuli/forte,bloc_6,prob50_50_4trials.xlsx,2,8,50,50,0,,,,,0,5,5,5,1,1,5,1,,,,,,,,3.5,1206.9142005000012,1210.4155529,1210.4156251099996,0.3052882000010868,1210.8600377999992,1210.8600377999992,m,0.6749139000003197,1214.3330517999984,1214.3330517999984,62,2.713,,,sub-019,90,160,700,bloc_loop.csv,2023-06-05_17h50.36.211,PainUncertainty,2022.2.5,144.0241499714392,
aigu,moderee,stimuli/660Hz,stimuli/moderee,bloc_6,prob50_50_4trials.xlsx,2,8,50,50,0,,,,,0,5,5,5,1,2,6,2,,,,,,,,3.4,1214.3330517999984,1217.7358575999988,1217.735970009999,0.3053534999999101,1218.1848480999997,1218.1848480999997,n,0.9046701999996003,1222.9972185999995,1222.9972185999995,29,3.83,,,sub-019,90,160,700,bloc_loop.csv,2023-06-05_17h50.36.211,PainUncertainty,2022.2.5,144.0241499714392,
aigu,forte,stimuli/660Hz,stimuli/forte,bloc_6,prob50_50_4trials.xlsx,2,8,50,50,0,,,,,0,5,5,5,1,3,7,3,,,,,,,,3.2,1222.9972185999995,1226.2028340999987,1226.2027778099985,0.3050231999986863,1226.6510966000005,1226.6510966000005,m,1.2158775000007154,1231.1650978999987,1231.1650978999987,69,3.239,,,sub-019,90,160,700,bloc_loop.csv,2023-06-05_17h50.36.211,PainUncertainty,2022.2.5,144.0241499714392,
aigu,forte,stimuli/660Hz,stimuli/forte,bloc_7,prob80hthp_12trials.xlsx,2,24,80,20,1,,,,,0,6,6,6,0,0,0,9,,,,,,,,3.9,1231.1650978999987,1235.0643954999996,1235.0644270099986,0.30505540000012843,1235.5085200000012,1235.5085200000012,m,0.6069805999995879,1238.9649936000005,1238.9649936000005,67,2.789,,,sub-019,90,160,700,bloc_loop.csv,2023-06-05_17h50.36.211,PainUncertainty,2022.2.5,144.0241499714392,
aigu,forte,stimuli/660Hz,stimuli/forte,bloc_7,prob80hthp_12trials.xlsx,2,24,80,20,1,,,,,0,6,6,6,0,1,1,10,,,,,,,,3.1,1238.9649936000005,1242.0656741000003,1242.0657731100002,0.30484419999993406,1242.5098854000007,1242.5098854000007,m,0.811739700000544,1245.7761421999985,1245.7761421999985,67,2.377,,,sub-019,90,160,700,bloc_loop.csv,2023-06-05_17h50.36.211,PainUncertainty,2022.2.5,144.0241499714392,
grave,moderee,stimuli/330Hz,stimuli/moderee,bloc_7,prob80hthp_12trials.xlsx,2,24,80,20,1,,,,,0,6,6,6,0,2,2,4,,,,,,,,4,1245.7761421999985,1249.7814294,1249.7815215099984,0.30545859999983804,1250.2299068000011,1250.2299068000011,n,0.6066001000017422,1253.9459321000013,1253.9459321000013,25,3.032,,,sub-019,90,160,700,bloc_loop.csv,2023-06-05_17h50.36.211,PainUncertainty,2022.2.5,144.0241499714392,
aigu,forte,stimuli/660Hz,stimuli/forte,bloc_7,prob80hthp_12trials.xlsx,2,24,80,20,1,,,,,0,6,6,6,0,3,3,7,,,,,,,,3.1,1253.9459321000013,1257.0461216999993,1257.0462242100004,0.3050788999971701,1257.4905937999993,1257.4905937999993,m,0.5959019999991142,1260.5310717000011,1260.5310717000011,67,2.372,,,sub-019,90,160,700,bloc_loop.csv,2023-06-05_17h50.36.211,PainUncertainty,2022.2.5,144.0241499714392,
aigu,moderee,stimuli/660Hz,stimuli/moderee,bloc_7,prob80hthp_12trials.xlsx,2,24,80,20,1,,,,,0,6,6,6,0,4,4,11,,,,,,,,3.4,1260.5310717000011,1263.9362051000007,1263.9361616099998,0.30495630000223173,1264.3802250999997,1264.3802250999997,n,0.5910796000007394,1267.1962341999988,1267.1962341999988,29,2.164,,,sub-019,90,160,700,bloc_loop.csv,2023-06-05_17h50.36.211,PainUncertainty,2022.2.5,144.0241499714392,
grave,moderee,stimuli/330Hz,stimuli/moderee,bloc_7,prob80hthp_12trials.xlsx,2,24,80,20,1,,,,,0,6,6,6,0,5,5,2,,,,,,,,4.2,1267.1962341999988,1271.3955917000003,1271.3956765100013,0.3049420999996073,1271.8437942,1271.8437942,n,0.5904011000002356,1274.6772610999997,1274.6772610999997,24,2.17,,,sub-019,90,160,700,bloc_loop.csv,2023-06-05_17h50.36.211,PainUncertainty,2022.2.5,144.0241499714392,
aigu,forte,stimuli/660Hz,stimuli/forte,bloc_7,prob80hthp_12trials.xlsx,2,24,80,20,1,,,,,0,6,6,6,0,6,6,6,,,,,,,,4.1,1274.6772610999997,1278.7786496999997,1278.7784017099987,0.3005782000000181,1279.2226290999988,1279.2226290999988,m,0.7238703000020905,1282.512263300001,1282.512263300001,69,2.48,,,sub-019,90,160,700,bloc_loop.csv,2023-06-05_17h50.36.211,PainUncertainty,2022.2.5,144.0241499714392,
grave,moderee,stimuli/330Hz,stimuli/moderee,bloc_7,prob80hthp_12trials.xlsx,2,24,80,20,1,,,,,0,6,6,6,0,7,7,1,,,,,,,,3.4,1282.512263300001,1285.917750999999,1285.9177767100011,0.3049256000012974,1286.361990200001,1286.361990200001,n,0.4686296999989281,1289.7682288999986,1289.7682288999986,21,2.885,,,sub-019,90,160,700,bloc_loop.csv,2023-06-05_17h50.36.211,PainUncertainty,2022.2.5,144.0241499714392,
grave,moderee,stimuli/330Hz,stimuli/moderee,bloc_7,prob80hthp_12trials.xlsx,2,24,80,20,1,,,,,0,6,6,6,0,8,8,3,,,,,,,,3.3,1289.7682288999986,1293.0715191,1293.0715464099997,0.29935870000190334,1293.5142614999986,1293.5142614999986,n,0.6858415000006062,1296.721698299998,1296.721698299998,27,2.449,,,sub-019,90,160,700,bloc_loop.csv,2023-06-05_17h50.36.211,PainUncertainty,2022.2.5,144.0241499714392,
grave,forte,stimuli/330Hz,stimuli/forte,bloc_7,prob80hthp_12trials.xlsx,2,24,80,20,1,,,,,0,6,6,6,0,9,9,5,,,,,,,,4.5,1296.721698299998,1301.225016899998,1301.2252652099999,0.30499930000223685,1301.676650200001,1301.676650200001,m,0.5147907999980816,1304.5390719000006,1304.5390719000006,69,2.281,,,sub-019,90,160,700,bloc_loop.csv,2023-06-05_17h50.36.211,PainUncertainty,2022.2.5,144.0241499714392,
aigu,forte,stimuli/660Hz,stimuli/forte,bloc_7,prob80hthp_12trials.xlsx,2,24,80,20,1,,,,,0,6,6,6,0,10,10,8,,,,,,,,4.7,1304.5390719000006,1309.2401623999995,1309.240262309999,0.3048482999984117,1309.6840708,1309.6840708,m,0.6119754000010289,1312.021565699999,1312.021565699999,65,1.642,,,sub-019,90,160,700,bloc_loop.csv,2023-06-05_17h50.36.211,PainUncertainty,2022.2.5,144.0241499714392,
grave,moderee,stimuli/330Hz,stimuli/moderee,bloc_7,prob80hthp_12trials.xlsx,2,24,80,20,1,,,,,0,6,6,6,0,11,11,0,,,,,,,,4.5,1312.021565699999,1316.5261262000004,1316.5259807100012,0.30487889999858453,1316.9698912000003,1316.9698912000003,n,0.4653213000001415,1321.0855902999992,1321.0855902999992,25,3.573,,,sub-019,90,160,700,bloc_loop.csv,2023-06-05_17h50.36.211,PainUncertainty,2022.2.5,144.0241499714392,
grave,forte,stimuli/330Hz,stimuli/forte,bloc_7,prob80hthp_12trials.xlsx,2,24,80,20,1,,,,,0,6,6,6,1,0,12,5,,,,,,,,4.1,1321.0855902999992,1325.1861852999991,1325.1863707099985,0.305355899999995,1325.6331550999985,1325.6331550999985,m,1.0971508999991784,1328.952142,1328.952142,69,2.163,,,sub-019,90,160,700,bloc_loop.csv,2023-06-05_17h50.36.211,PainUncertainty,2022.2.5,144.0241499714392,
aigu,forte,stimuli/660Hz,stimuli/forte,bloc_7,prob80hthp_12trials.xlsx,2,24,80,20,1,,,,,0,6,6,6,1,1,13,8,,,,,,,,4.2,1328.952142,1333.1524855999978,1333.1528778100003,0.30450939999718685,1333.5966395999985,1333.5966395999985,m,0.5669326999977784,1335.4558553000006,1335.4558553000006,68,1.239,,,sub-019,90,160,700,bloc_loop.csv,2023-06-05_17h50.36.211,PainUncertainty,2022.2.5,144.0241499714392,
aigu,forte,stimuli/660Hz,stimuli/forte,bloc_7,prob80hthp_12trials.xlsx,2,24,80,20,1,,,,,0,6,6,6,1,2,14,6,,,,,,,,3.7,1335.4558553000006,1339.1601159000002,1339.1602176099989,0.3050565999983519,1339.6043278999987,1339.6043278999987,m,0.5501100000019505,1342.1380980000013,1342.1380980000013,66,1.907,,,sub-019,90,160,700,bloc_loop.csv,2023-06-05_17h50.36.211,PainUncertainty,2022.2.5,144.0241499714392,
grave,moderee,stimuli/330Hz,stimuli/moderee,bloc_7,prob80hthp_12trials.xlsx,2,24,80,20,1,,,,,0,6,6,6,1,3,15,0,,,,,,,,3.6,1342.1380980000013,1345.7373494000003,1345.7374952100001,0.30493639999986044,1346.1815640000004,1346.1815640000004,n,0.9184175999998843,1351.9211314000004,1351.9211314000004,28,4.76,,,sub-019,90,160,700,bloc_loop.csv,2023-06-05_17h50.36.211,PainUncertainty,2022.2.5,144.0241499714392,
aigu,moderee,stimuli/660Hz,stimuli/moderee,bloc_7,prob80hthp_12trials.xlsx,2,24,80,20,1,,,,,0,6,6,6,1,4,16,11,,,,,,,,3.8,1351.9211314000004,1355.7246657999985,1355.7246953100005,0.30524440000226605,1356.1695157000013,1356.1695157000013,n,1.0682663999996294,1358.5731240000005,1358.5731240000005,20,1.254,,,sub-019,90,160,700,bloc_loop.csv,2023-06-05_17h50.36.211,PainUncertainty,2022.2.5,144.0241499714392,
aigu,forte,stimuli/660Hz,stimuli/forte,bloc_7,prob80hthp_12trials.xlsx,2,24,80,20,1,,,,,0,6,6,6,1,5,17,10,,,,,,,,4.2,1358.5731240000005,1362.774091199999,1362.7741389100013,0.3054063000017777,1363.2224514999998,1363.2224514999998,m,0.4389993999993749,1365.4464299999981,1365.4464299999981,68,1.706,,,sub-019,90,160,700,bloc_loop.csv,2023-06-05_17h50.36.211,PainUncertainty,2022.2.5,144.0241499714392,
grave,moderee,stimuli/330Hz,stimuli/moderee,bloc_7,prob80hthp_12trials.xlsx,2,24,80,20,1,,,,,0,6,6,6,1,6,18,3,,,,,,,,4.6,1365.4464299999981,1370.0461503999995,1370.046219709999,0.3051922000013292,1370.4945214999989,1370.4945214999989,n,0.9801551000000472,1373.181577199999,1373.181577199999,19,1.656,,,sub-019,90,160,700,bloc_loop.csv,2023-06-05_17h50.36.211,PainUncertainty,2022.2.5,144.0241499714392,
grave,moderee,stimuli/330Hz,stimuli/moderee,bloc_7,prob80hthp_12trials.xlsx,2,24,80,20,1,,,,,0,6,6,6,1,7,19,4,,,,,,,,4,1373.181577199999,1377.1859825999982,1377.1859926100008,0.30079029999978957,1377.6300754999993,1377.6300754999993,n,0.6494270999992295,1380.136167499999,1380.136167499999,18,1.789,,,sub-019,90,160,700,bloc_loop.csv,2023-06-05_17h50.36.211,PainUncertainty,2022.2.5,144.0241499714392,
aigu,forte,stimuli/660Hz,stimuli/forte,bloc_7,prob80hthp_12trials.xlsx,2,24,80,20,1,,,,,0,6,6,6,1,8,20,9,,,,,,,,3.3,1380.136167499999,1383.4363314999991,1383.4363564099988,0.3060507999980473,1383.8860824999992,1383.8860824999992,m,0.674871000001076,1385.924157200001,1385.924157200001,69,1.295,,,sub-019,90,160,700,bloc_loop.csv,2023-06-05_17h50.36.211,PainUncertainty,2022.2.5,144.0241499714392,
grave,moderee,stimuli/330Hz,stimuli/moderee,bloc_7,prob80hthp_12trials.xlsx,2,24,80,20,1,,,,,0,6,6,6,1,9,21,1,,,,,,,,3.1,1385.924157200001,1389.0273569,1389.0274652099981,0.30492279999816674,1389.4714373000006,1389.4714373000006,n,0.5328426000032778,1391.3761843999982,1391.3761843999982,26,1.289,,,sub-019,90,160,700,bloc_loop.csv,2023-06-05_17h50.36.211,PainUncertainty,2022.2.5,144.0241499714392,
aigu,forte,stimuli/660Hz,stimuli/forte,bloc_7,prob80hthp_12trials.xlsx,2,24,80,20,1,,,,,0,6,6,6,1,10,22,7,,,,,,,,4.8,1391.3761843999982,1396.1808712000002,1396.1809578100003,0.3047349000007671,1396.6250631999992,1396.6250631999992,m,0.4395026999973197,1399.5748240000012,1399.5748240000012,71,2.442,,,sub-019,90,160,700,bloc_loop.csv,2023-06-05_17h50.36.211,PainUncertainty,2022.2.5,144.0241499714392,
grave,moderee,stimuli/330Hz,stimuli/moderee,bloc_7,prob80hthp_12trials.xlsx,2,24,80,20,1,,,,,0,6,6,6,1,11,23,2,,,,,,,,4.2,1399.5748240000012,1403.7789393000003,1403.7792264099992,0.3049825000016426,1404.2252804,1404.2252804,n,0.8525802999993175,1409.0205074999994,1409.0205074999994,25,1.865,,,sub-019,90,160,700,bloc_loop.csv,2023-06-05_17h50.36.211,PainUncertainty,2022.2.5,144.0241499714392,
,,,,bloc_7,prob80hthp_12trials.xlsx,2,24,80,20,1,,,,,0,6,6,6,,,,,0,0,0,0,,,,,,,,,,,,,,,,,1409.0205074999994,1417.0863000000008,sub-019,90,160,700,bloc_loop.csv,2023-06-05_17h50.36.211,PainUncertainty,2022.2.5,144.0241499714392,
grave,moderee,stimuli/330Hz,stimuli/moderee,bloc_8,prob50_50_4trials.xlsx,3,12,50,50,0,,,,,0,7,7,7,0,0,0,0,,,,,,,,4.5,1417.6728209999983,1422.177345099999,1422.1773819099983,0.3052139999999781,1422.6235319999996,1422.6235319999996,n,0.8169156999992992,1427.2950235999979,1427.2950235999979,21,3.781,,,sub-019,90,160,700,bloc_loop.csv,2023-06-05_17h50.36.211,PainUncertainty,2022.2.5,144.0241499714392,
aigu,forte,stimuli/660Hz,stimuli/forte,bloc_8,prob50_50_4trials.xlsx,3,12,50,50,0,,,,,0,7,7,7,0,1,1,3,,,,,,,,4.5,1427.2950235999979,1431.796268600001,1431.7963091099994,0.3056227000015497,1432.244990000001,1432.244990000001,m,0.6849648999977944,1434.4717357999998,1434.4717357999998,67,1.481,,,sub-019,90,160,700,bloc_loop.csv,2023-06-05_17h50.36.211,PainUncertainty,2022.2.5,144.0241499714392,
grave,forte,stimuli/330Hz,stimuli/forte,bloc_8,prob50_50_4trials.xlsx,3,12,50,50,0,,,,,0,7,7,7,0,2,2,1,,,,,,,,3.1,1434.4717357999998,1437.5747131999979,1437.5748136100012,0.3050922999973409,1438.0188412000007,1438.0188412000007,m,0.9914337999998679,1441.4899937999999,1441.4899937999999,69,2.414,,,sub-019,90,160,700,bloc_loop.csv,2023-06-05_17h50.36.211,PainUncertainty,2022.2.5,144.0241499714392,
aigu,moderee,stimuli/660Hz,stimuli/moderee,bloc_8,prob50_50_4trials.xlsx,3,12,50,50,0,,,,,0,7,7,7,0,3,3,2,,,,,,,,4.6,1441.4899937999999,1446.0896884999984,1446.089629710001,0.30574519999936456,1446.5378751999979,1446.5378751999979,n,0.5289519000016298,1449.0349020999984,1449.0349020999984,25,1.914,,,sub-019,90,160,700,bloc_loop.csv,2023-06-05_17h50.36.211,PainUncertainty,2022.2.5,144.0241499714392,
grave,moderee,stimuli/330Hz,stimuli/moderee,bloc_8,prob50_50_4trials.xlsx,3,12,50,50,0,,,,,0,7,7,7,1,0,4,0,,,,,,,,4.3,1449.0349020999984,1453.3340880999986,1453.3340150100014,0.30519009999989066,1453.7817258000014,1453.7817258000014,n,0.6062290999998368,1456.132865900001,1456.132865900001,29,1.678,,,sub-019,90,160,700,bloc_loop.csv,2023-06-05_17h50.36.211,PainUncertainty,2022.2.5,144.0241499714392,
aigu,forte,stimuli/660Hz,stimuli/forte,bloc_8,prob50_50_4trials.xlsx,3,12,50,50,0,,,,,0,7,7,7,1,1,5,3,,,,,,,,3.7,1456.132865900001,1459.834822499999,1459.8348053099983,0.3050340999980108,1460.2824219999984,1460.2824219999984,m,0.6551152000010916,1462.5298604,1462.5298604,69,1.51,,,sub-019,90,160,700,bloc_loop.csv,2023-06-05_17h50.36.211,PainUncertainty,2022.2.5,144.0241499714392,
aigu,moderee,stimuli/660Hz,stimuli/moderee,bloc_8,prob50_50_4trials.xlsx,3,12,50,50,0,,,,,0,7,7,7,1,2,6,2,,,,,,,,4.8,1462.5298604,1467.3352367999996,1467.3353188100011,0.30512570000064443,1467.779665199998,1467.779665199998,n,2.2813121999988653,1472.4564074999998,1472.4564074999998,29,2.323,,,sub-019,90,160,700,bloc_loop.csv,2023-06-05_17h50.36.211,PainUncertainty,2022.2.5,144.0241499714392,
grave,forte,stimuli/330Hz,stimuli/forte,bloc_8,prob50_50_4trials.xlsx,3,12,50,50,0,,,,,0,7,7,7,1,3,7,1,,,,,,,,4.9,1472.4564074999998,1477.3573204000004,1477.3575835099984,0.30480289999832166,1477.8015259000003,1477.8015259000003,m,0.8812286999982462,1480.401039800001,1480.401039800001,64,1.643,,,sub-019,90,160,700,bloc_loop.csv,2023-06-05_17h50.36.211,PainUncertainty,2022.2.5,144.0241499714392,
grave,moderee,stimuli/330Hz,stimuli/moderee,bloc_8,prob50_50_4trials.xlsx,3,12,50,50,0,,,,,0,7,7,7,2,0,8,0,,,,,,,,5,1480.401039800001,1485.4002176000013,1485.4022443100005,0.3036876000005577,1485.844736699999,1485.844736699999,n,1.0214957000007416,1491.286639,1491.286639,21,4.344,,,sub-019,90,160,700,bloc_loop.csv,2023-06-05_17h50.36.211,PainUncertainty,2022.2.5,144.0241499714392,
grave,forte,stimuli/330Hz,stimuli/forte,bloc_8,prob50_50_4trials.xlsx,3,12,50,50,0,,,,,0,7,7,7,2,1,9,1,,,,,,,,4.6,1491.286639,1495.8872690999979,1495.8872833099997,0.30507720000241534,1496.3315592999988,1496.3315592999988,m,1.5679614999990008,1499.2978378999996,1499.2978378999996,70,1.316,,,sub-019,90,160,700,bloc_loop.csv,2023-06-05_17h50.36.211,PainUncertainty,2022.2.5,144.0241499714392,
aigu,moderee,stimuli/660Hz,stimuli/moderee,bloc_8,prob50_50_4trials.xlsx,3,12,50,50,0,,,,,0,7,7,7,2,2,10,2,,,,,,,,3.8,1499.2978378999996,1503.1034148999988,1503.1034807100007,0.30512480000106734,1503.5548255999984,1503.5548255999984,n,0.6722320999997464,1507.4816674999984,1507.4816674999984,21,3.184,,,sub-019,90,160,700,bloc_loop.csv,2023-06-05_17h50.36.211,PainUncertainty,2022.2.5,144.0241499714392,
aigu,forte,stimuli/660Hz,stimuli/forte,bloc_8,prob50_50_4trials.xlsx,3,12,50,50,0,,,,,0,7,7,7,2,3,11,3,,,,,,,,3.2,1507.4816674999984,1510.6808354000004,1510.6807677100007,0.29974589999983436,1511.1237549999987,1511.1237549999987,m,0.6601265000008425,1515.4735219999984,1515.4735219999984,71,3.63,,,sub-019,90,160,700,bloc_loop.csv,2023-06-05_17h50.36.211,PainUncertainty,2022.2.5,144.0241499714392,
grave,forte,stimuli/330Hz,stimuli/forte,bloc_9,prob20hthp_12trials.xlsx,3,36,80,20,0,,,,,0,8,8,8,0,0,0,3,,,,,,,,3,1515.4735219999984,1518.4733398999979,1518.4733885099997,0.30504479999945033,1518.9179210999991,1518.9179210999991,m,0.6435140000012325,1524.0255640000014,1524.0255640000014,65,4.408,,,sub-019,90,160,700,bloc_loop.csv,2023-06-05_17h50.36.211,PainUncertainty,2022.2.5,144.0241499714392,
grave,forte,stimuli/330Hz,stimuli/forte,bloc_9,prob20hthp_12trials.xlsx,3,36,80,20,0,,,,,0,8,8,8,0,1,1,4,,,,,,,,4.4,1524.0255640000014,1528.4258997999987,1528.425992910001,0.30510599999979604,1528.8701161000008,1528.8701161000008,m,0.9540929000013421,1533.329482799998,1533.329482799998,66,3.442,,,sub-019,90,160,700,bloc_loop.csv,2023-06-05_17h50.36.211,PainUncertainty,2022.2.5,144.0241499714392,
grave,forte,stimuli/330Hz,stimuli/forte,bloc_9,prob20hthp_12trials.xlsx,3,36,80,20,0,,,,,0,8,8,8,0,2,2,2,,,,,,,,3.6,1533.329482799998,1536.9338283999987,1536.9339302099982,0.3051671000030183,1537.382685300001,1537.382685300001,m,0.8151622000023053,1539.9811581000013,1539.9811581000013,60,1.712,,,sub-019,90,160,700,bloc_loop.csv,2023-06-05_17h50.36.211,PainUncertainty,2022.2.5,144.0241499714392,
aigu,moderee,stimuli/660Hz,stimuli/moderee,bloc_9,prob20hthp_12trials.xlsx,3,36,80,20,0,,,,,0,8,8,8,0,3,3,7,,,,,,,,3.2,1539.9811581000013,1543.1850419999992,1543.185065509999,0.30496920000223326,1543.6360239000005,1543.6360239000005,n,1.0478568999988056,1547.8923081999983,1547.8923081999983,21,3.151,,,sub-019,90,160,700,bloc_loop.csv,2023-06-05_17h50.36.211,PainUncertainty,2022.2.5,144.0241499714392,
grave,moderee,stimuli/330Hz,stimuli/moderee,bloc_9,prob20hthp_12trials.xlsx,3,36,80,20,0,,,,,0,8,8,8,0,4,4,5,,,,,,,,3.4,1547.8923081999983,1551.2967246999997,1551.2968767099994,0.30520899999828544,1551.7456221000011,1551.7456221000011,n,0.917261900000085,1553.8565323999992,1553.8565323999992,24,1.114,,,sub-019,90,160,700,bloc_loop.csv,2023-06-05_17h50.36.211,PainUncertainty,2022.2.5,144.0241499714392,
grave,forte,stimuli/330Hz,stimuli/forte,bloc_9,prob20hthp_12trials.xlsx,3,36,80,20,0,,,,,0,8,8,8,0,5,5,0,,,,,,,,3.5,1553.8565323999992,1557.3599145999997,1557.3600035099992,0.3054645999982313,1557.8047189000008,1557.8047189000008,m,0.8183579000015015,1560.9530606999997,1560.9530606999997,67,2.275,,,sub-019,90,160,700,bloc_loop.csv,2023-06-05_17h50.36.211,PainUncertainty,2022.2.5,144.0241499714392,
aigu,forte,stimuli/660Hz,stimuli/forte,bloc_9,prob20hthp_12trials.xlsx,3,36,80,20,0,,,,,0,8,8,8,0,6,6,11,,,,,,,,3.4,1560.9530606999997,1564.3538334999994,1564.353916209999,0.3050007999991067,1564.7981547,1564.7981547,m,1.1651182000005065,1569.7297404,1569.7297404,71,3.699,,,sub-019,90,160,700,bloc_loop.csv,2023-06-05_17h50.36.211,PainUncertainty,2022.2.5,144.0241499714392,
aigu,moderee,stimuli/660Hz,stimuli/moderee,bloc_9,prob20hthp_12trials.xlsx,3,36,80,20,0,,,,,0,8,8,8,0,7,7,6,,,,,,,,5,1569.7297404,1574.730355900001,1574.7305410099982,0.2996461000002455,1575.1727147000001,1575.1727147000001,n,0.7225543000004109,1578.6503384000007,1578.6503384000007,24,2.692,,,sub-019,90,160,700,bloc_loop.csv,2023-06-05_17h50.36.211,PainUncertainty,2022.2.5,144.0241499714392,
aigu,moderee,stimuli/660Hz,stimuli/moderee,bloc_9,prob20hthp_12trials.xlsx,3,36,80,20,0,,,,,0,8,8,8,0,8,8,10,,,,,,,,3.5,1578.6503384000007,1582.1548740999988,1582.1548700099995,0.30481779999900027,1582.598970099998,1582.598970099998,n,1.0125305999990815,1587.7136059999993,1587.7136059999993,22,4.046,,,sub-019,90,160,700,bloc_loop.csv,2023-06-05_17h50.36.211,PainUncertainty,2022.2.5,144.0241499714392,
aigu,moderee,stimuli/660Hz,stimuli/moderee,bloc_9,prob20hthp_12trials.xlsx,3,36,80,20,0,,,,,0,8,8,8,0,9,9,9,,,,,,,,3.5,1587.7136059999993,1591.2181594999984,1591.2181725099983,0.30502770000020973,1591.6623127000003,1591.6623127000003,n,1.5395072999981494,1596.250642099998,1596.250642099998,17,2.988,,,sub-019,90,160,700,bloc_loop.csv,2023-06-05_17h50.36.211,PainUncertainty,2022.2.5,144.0241499714392,
aigu,moderee,stimuli/660Hz,stimuli/moderee,bloc_9,prob20hthp_12trials.xlsx,3,36,80,20,0,,,,,0,8,8,8,0,10,10,8,,,,,,,,4,1596.250642099998,1600.2543774999995,1600.2542481099993,0.3053308999988076,1600.7020771000007,1600.7020771000007,n,1.2689049999989948,1605.8747819,1605.8747819,18,3.823,,,sub-019,90,160,700,bloc_loop.csv,2023-06-05_17h50.36.211,PainUncertainty,2022.2.5,144.0241499714392,
grave,forte,stimuli/330Hz,stimuli/forte,bloc_9,prob20hthp_12trials.xlsx,3,36,80,20,0,,,,,0,8,8,8,0,11,11,1,,,,,,,,3.1,1605.8747819,1608.9772466000013,1608.9772786100004,0.3051240000022517,1609.4213861000007,1609.4213861000007,m,0.7099436999978934,1611.6610168999996,1611.6610168999996,67,1.469,,,sub-019,90,160,700,bloc_loop.csv,2023-06-05_17h50.36.211,PainUncertainty,2022.2.5,144.0241499714392,
grave,forte,stimuli/330Hz,stimuli/forte,bloc_9,prob20hthp_12trials.xlsx,3,36,80,20,0,,,,,0,8,8,8,1,0,12,3,,,,,,,,3.6,1611.6610168999996,1615.2626266999996,1615.2629063099996,0.30469410000296193,1615.706909800001,1615.706909800001,m,0.6101685999983602,1620.7600856000008,1620.7600856000008,68,4.366,,,sub-019,90,160,700,bloc_loop.csv,2023-06-05_17h50.36.211,PainUncertainty,2022.2.5,144.0241499714392,
aigu,moderee,stimuli/660Hz,stimuli/moderee,bloc_9,prob20hthp_12trials.xlsx,3,36,80,20,0,,,,,0,8,8,8,1,1,13,8,,,,,,,,4.7,1620.7600856000008,1625.4652270999995,1625.4653100100006,0.3051080000004731,1625.9094559999994,1625.9094559999994,n,1.0351435000029596,1628.3996375000006,1628.3996375000006,20,1.379,,,sub-019,90,160,700,bloc_loop.csv,2023-06-05_17h50.36.211,PainUncertainty,2022.2.5,144.0241499714392,
grave,forte,stimuli/330Hz,stimuli/forte,bloc_9,prob20hthp_12trials.xlsx,3,36,80,20,0,,,,,0,8,8,8,1,2,14,2,,,,,,,,3.7,1628.3996375000006,1632.0985410000012,1632.0986656099997,0.2995006999990437,1632.542991100001,1632.542991100001,m,0.6157781000019895,1638.9024913000012,1638.9024913000012,67,5.663,,,sub-019,90,160,700,bloc_loop.csv,2023-06-05_17h50.36.211,PainUncertainty,2022.2.5,144.0241499714392,
grave,moderee,stimuli/330Hz,stimuli/moderee,bloc_9,prob20hthp_12trials.xlsx,3,36,80,20,0,,,,,0,8,8,8,1,3,15,5,,,,,,,,3.8,1638.9024913000012,1642.7044068000014,1642.7041846100003,0.3048104000008607,1643.148017999998,1643.148017999998,n,0.5932388000019273,1649.053249300001,1649.053249300001,17,5.247,,,sub-019,90,160,700,bloc_loop.csv,2023-06-05_17h50.36.211,PainUncertainty,2022.2.5,144.0241499714392,
aigu,moderee,stimuli/660Hz,stimuli/moderee,bloc_9,prob20hthp_12trials.xlsx,3,36,80,20,0,,,,,0,8,8,8,1,4,16,6,,,,,,,,3.3,1649.053249300001,1652.3575669000002,1652.357616409998,0.3049166000018886,1652.8019059999988,1652.8019059999988,n,0.5891897999990761,1656.6153810999986,1656.6153810999986,21,3.153,,,sub-019,90,160,700,bloc_loop.csv,2023-06-05_17h50.36.211,PainUncertainty,2022.2.5,144.0241499714392,
grave,forte,stimuli/330Hz,stimuli/forte,bloc_9,prob20hthp_12trials.xlsx,3,36,80,20,0,,,,,0,8,8,8,1,5,17,4,,,,,,,,4.5,1656.6153810999986,1661.1153953999983,1661.1154180099986,0.30531649999829824,1661.559694499998,1661.559694499998,m,0.5679790999984107,1663.3774312000005,1663.3774312000005,66,1.177,,,sub-019,90,160,700,bloc_loop.csv,2023-06-05_17h50.36.211,PainUncertainty,2022.2.5,144.0241499714392,
aigu,moderee,stimuli/660Hz,stimuli/moderee,bloc_9,prob20hthp_12trials.xlsx,3,36,80,20,0,,,,,0,8,8,8,1,6,18,7,,,,,,,,3.4,1663.3774312000005,1666.7827092999996,1666.7828243100014,0.3048447999972268,1667.226934100001,1667.226934100001,n,0.49021120000361407,1669.4991645999999,1669.4991645999999,27,1.712,,,sub-019,90,160,700,bloc_loop.csv,2023-06-05_17h50.36.211,PainUncertainty,2022.2.5,144.0241499714392,
grave,forte,stimuli/330Hz,stimuli/forte,bloc_9,prob20hthp_12trials.xlsx,3,36,80,20,0,,,,,0,8,8,8,1,7,19,1,,,,,,,,4.4,1669.4991645999999,1673.901547200001,1673.9016762100002,0.30557490000137477,1674.350459700001,1674.350459700001,m,0.6889931000023353,1676.8531619000005,1676.8531619000005,64,1.752,,,sub-019,90,160,700,bloc_loop.csv,2023-06-05_17h50.36.211,PainUncertainty,2022.2.5,144.0241499714392,
aigu,forte,stimuli/660Hz,stimuli/forte,bloc_9,prob20hthp_12trials.xlsx,3,36,80,20,0,,,,,0,8,8,8,1,8,20,11,,,,,,,,4.2,1676.8531619000005,1681.0552774000007,1681.055284710001,0.30560140000307,1681.5043566000004,1681.5043566000004,m,0.8171309000008478,1684.8628297000014,1684.8628297000014,73,2.47,,,sub-019,90,160,700,bloc_loop.csv,2023-06-05_17h50.36.211,PainUncertainty,2022.2.5,144.0241499714392,
aigu,moderee,stimuli/660Hz,stimuli/moderee,bloc_9,prob20hthp_12trials.xlsx,3,36,80,20,0,,,,,0,8,8,8,1,9,21,9,,,,,,,,3.2,1684.8628297000014,1688.0633971000007,1688.063402510001,0.3048397999991721,1688.5072348999984,1688.5072348999984,n,0.8112726999988809,1690.8109771,1690.8109771,25,1.413,,,sub-019,90,160,700,bloc_loop.csv,2023-06-05_17h50.36.211,PainUncertainty,2022.2.5,144.0241499714392,
grave,forte,stimuli/330Hz,stimuli/forte,bloc_9,prob20hthp_12trials.xlsx,3,36,80,20,0,,,,,0,8,8,8,1,10,22,0,,,,,,,,4.3,1690.8109771,1695.112951699999,1695.1132014100006,0.2995688999981212,1695.5550396999988,1695.5550396999988,m,0.4935115999996924,1697.9870433999986,1697.9870433999986,68,1.872,,,sub-019,90,160,700,bloc_loop.csv,2023-06-05_17h50.36.211,PainUncertainty,2022.2.5,144.0241499714392,
aigu,moderee,stimuli/660Hz,stimuli/moderee,bloc_9,prob20hthp_12trials.xlsx,3,36,80,20,0,,,,,0,8,8,8,1,11,23,10,,,,,,,,3.1,1697.9870433999986,1701.0929947999994,1701.0928039100002,0.3053070000023581,1701.5417128999998,1701.5417128999998,n,0.6164533000028314,1704.4295266999998,1704.4295266999998,23,2.191,,,sub-019,90,160,700,bloc_loop.csv,2023-06-05_17h50.36.211,PainUncertainty,2022.2.5,144.0241499714392,
grave,forte,stimuli/330Hz,stimuli/forte,bloc_9,prob20hthp_12trials.xlsx,3,36,80,20,0,,,,,0,8,8,8,2,0,24,3,,,,,,,,3.1,1704.4295266999998,1707.530671300001,1707.5308786099997,0.3013052999995125,1707.9763746000008,1707.9763746000008,m,0.6360577000032208,1710.5514010999996,1710.5514010999996,69,1.872,,,sub-019,90,160,700,bloc_loop.csv,2023-06-05_17h50.36.211,PainUncertainty,2022.2.5,144.0241499714392,
aigu,moderee,stimuli/660Hz,stimuli/moderee,bloc_9,prob20hthp_12trials.xlsx,3,36,80,20,0,,,,,0,8,8,8,2,1,25,9,,,,,,,,4.2,1710.5514010999996,1714.7538232999996,1714.7538409099982,0.3052711999989697,1715.2011180999998,1715.2011180999998,n,0.7920728999979474,1720.0644039999988,1720.0644039999988,19,3.996,,,sub-019,90,160,700,bloc_loop.csv,2023-06-05_17h50.36.211,PainUncertainty,2022.2.5,144.0241499714392,
aigu,forte,stimuli/660Hz,stimuli/forte,bloc_9,prob20hthp_12trials.xlsx,3,36,80,20,0,,,,,0,8,8,8,2,2,26,11,,,,,,,,4.2,1720.0644039999988,1724.268825699999,1724.2688864099985,0.3049032000017178,1724.7129551999988,1724.7129551999988,m,0.6476753000006283,1727.8169862000013,1727.8169862000013,67,2.372,,,sub-019,90,160,700,bloc_loop.csv,2023-06-05_17h50.36.211,PainUncertainty,2022.2.5,144.0241499714392,
aigu,moderee,stimuli/660Hz,stimuli/moderee,bloc_9,prob20hthp_12trials.xlsx,3,36,80,20,0,,,,,0,8,8,8,2,3,27,6,,,,,,,,3.4,1727.8169862000013,1731.2213742000004,1731.2213553100012,0.30482320000010077,1731.665242500001,1731.665242500001,n,1.1127871000007872,1736.3835382999987,1736.3835382999987,18,3.539,,,sub-019,90,160,700,bloc_loop.csv,2023-06-05_17h50.36.211,PainUncertainty,2022.2.5,144.0241499714392,
aigu,moderee,stimuli/660Hz,stimuli/moderee,bloc_9,prob20hthp_12trials.xlsx,3,36,80,20,0,,,,,0,8,8,8,2,4,28,10,,,,,,,,5,1736.3835382999987,1741.3910076999982,1741.3893248099996,0.3014102000015555,1741.8334683000012,1741.8334683000012,n,0.6418500000017957,1744.2343509000002,1744.2343509000002,22,1.682,,,sub-019,90,160,700,bloc_loop.csv,2023-06-05_17h50.36.211,PainUncertainty,2022.2.5,144.0241499714392,
grave,forte,stimuli/330Hz,stimuli/forte,bloc_9,prob20hthp_12trials.xlsx,3,36,80,20,0,,,,,0,8,8,8,2,5,29,0,,,,,,,,3.4,1744.2343509000002,1747.639997799999,1747.640089910001,0.29968279999957304,1748.0844755999988,1748.0844755999988,m,0.5104795000024751,1750.3065192999984,1750.3065192999984,66,1.635,,,sub-019,90,160,700,bloc_loop.csv,2023-06-05_17h50.36.211,PainUncertainty,2022.2.5,144.0241499714392,
aigu,moderee,stimuli/660Hz,stimuli/moderee,bloc_9,prob20hthp_12trials.xlsx,3,36,80,20,0,,,,,0,8,8,8,2,6,30,8,,,,,,,,3.3,1750.3065192999984,1753.605732599999,1753.6059108099982,0.304536100000405,1754.0499953999988,1754.0499953999988,n,0.5308869999989838,1759.307977399998,1759.307977399998,19,4.671,,,sub-019,90,160,700,bloc_loop.csv,2023-06-05_17h50.36.211,PainUncertainty,2022.2.5,144.0241499714392,
aigu,moderee,stimuli/660Hz,stimuli/moderee,bloc_9,prob20hthp_12trials.xlsx,3,36,80,20,0,,,,,0,8,8,8,2,7,31,7,,,,,,,,3.1,1759.307977399998,1762.4124528999982,1762.4124589099995,0.30505949999860604,1762.860357399999,1762.860357399999,n,0.5782812999987073,1765.031990900001,1765.031990900001,21,1.518,,,sub-019,90,160,700,bloc_loop.csv,2023-06-05_17h50.36.211,PainUncertainty,2022.2.5,144.0241499714392,
grave,forte,stimuli/330Hz,stimuli/forte,bloc_9,prob20hthp_12trials.xlsx,3,36,80,20,0,,,,,0,8,8,8,2,8,32,1,,,,,,,,4.9,1765.031990900001,1769.9343551000002,1769.9343406099981,0.30500469999969937,1770.3789171000008,1770.3789171000008,m,0.9762958000010258,1773.2784630000006,1773.2784630000006,66,1.851,,,sub-019,90,160,700,bloc_loop.csv,2023-06-05_17h50.36.211,PainUncertainty,2022.2.5,144.0241499714392,
grave,moderee,stimuli/330Hz,stimuli/moderee,bloc_9,prob20hthp_12trials.xlsx,3,36,80,20,0,,,,,0,8,8,8,2,9,33,5,,,,,,,,4.9,1773.2784630000006,1778.178000400001,1778.1780767099992,0.30512930000259075,1778.6221959000013,1778.6221959000013,n,1.1299737999997888,1781.4482360999991,1781.4482360999991,34,1.629,,,sub-019,90,160,700,bloc_loop.csv,2023-06-05_17h50.36.211,PainUncertainty,2022.2.5,144.0241499714392,
grave,forte,stimuli/330Hz,stimuli/forte,bloc_9,prob20hthp_12trials.xlsx,3,36,80,20,0,,,,,0,8,8,8,2,10,34,2,,,,,,,,3.9,1781.4482360999991,1785.3524282999988,1785.3524922100007,0.30570060000172816,1785.801512699998,1785.801512699998,m,1.5584376999995584,1788.756201899998,1788.756201899998,63,1.33,,,sub-019,90,160,700,bloc_loop.csv,2023-06-05_17h50.36.211,PainUncertainty,2022.2.5,144.0241499714392,
grave,forte,stimuli/330Hz,stimuli/forte,bloc_9,prob20hthp_12trials.xlsx,3,36,80,20,0,,,,,0,8,8,8,2,11,35,4,,,,,,,,4.9,1788.756201899998,1793.6590056000005,1793.6591969100011,0.3048082000022987,1794.1031654999988,1794.1031654999988,m,0.5471783999983018,1796.6091598000003,1796.6091598000003,68,1.933,,,sub-019,90,160,700,bloc_loop.csv,2023-06-05_17h50.36.211,PainUncertainty,2022.2.5,144.0241499714392,
