cue_,stimulus_,cue_fichier,stimulus_fichier,block_name,block_trials_file,block_n_reps,block_ntrials,block_prob_highP_highT,block_prob_highP_lowT,block_pause_after,Bloc_essai.thisRepN,Bloc_essai.thisTrialN,Bloc_essai.thisN,Bloc_essai.thisIndex,blocks.thisRepN,blocks.thisTrialN,blocks.thisN,blocks.thisIndex,trials.thisRepN,trials.thisTrialN,trials.thisN,trials.thisIndex,pause_loop.thisRepN,pause_loop.thisTrialN,pause_loop.thisN,pause_loop.thisIndex,key_resp_5.started,start_calib.started,key_resp_2.started,ISI_duration,pause.started,pause.stopped,cue.started,ISI.started,choice_pain.started,Choice.started,choice_pain.keys,main_text.started,confirm_text.started,ratingScale.response,ratingScale.rt,choice_pain.rt,choice_pain.stopped,Choice.stopped,key_resp_3.started,key_resp_6.started,participant,low_ma,high_ma,failsafe_ma,block_file,date,expName,psychopyVersion,frameRate,
grave,moderee,stimuli/330Hz,stimuli/moderee,,,,,,,,0,0,0,0,,,,,,,,,,,,,23.40788819998852,27.486825199986924,29.29933519999031,4.3,29.931196499994257,34.255034199988586,34.25782241999405,0.30509389999497216,34.695519699991564,34.695519699991564,None,48.60507510000025,48.60507510000025,16,11.41,,,,,,sub-063,55,110,700,bloc_loop.csv,2023-10-26_10h45.43.220,PainUncertainty,2022.2.5,142.99584883198509,
aigu,moderee,stimuli/660Hz,stimuli/moderee,,,,,,,,0,1,1,2,,,,,,,,,,,,,,,,3.8,48.60507510000025,52.40597739999066,52.405841229995715,0.30522799999744166,52.85038199998962,52.85038199998962,m,58.24182640000072,58.24182640000072,33,4.074,1.2404088999901433,,,,,sub-063,55,110,700,bloc_loop.csv,2023-10-26_10h45.43.220,PainUncertainty,2022.2.5,142.99584883198509,
grave,forte,stimuli/330Hz,stimuli/forte,,,,,,,,0,2,2,1,,,,,,,,,,,,,,,,4.1,58.24182640000072,62.3449641999905,62.34511612999195,0.3052505000086967,62.79245819999778,62.79245819999778,m,69.61757819999184,69.61757819999184,42,4.976,1.7826353999989806,,,,,sub-063,55,110,700,bloc_loop.csv,2023-10-26_10h45.43.220,PainUncertainty,2022.2.5,142.99584883198509,
aigu,forte,stimuli/660Hz,stimuli/forte,,,,,,,,0,3,3,3,,,,,,,,,,,,,,,,3.1,69.61757819999184,72.72099389998766,72.72093852999679,0.3051061000005575,73.16507149999961,73.16507149999961,m,80.37506819999544,80.37506819999544,40,5.345,1.8364968999958364,,,,,sub-063,55,110,700,bloc_loop.csv,2023-10-26_10h45.43.220,PainUncertainty,2022.2.5,142.99584883198509,
grave,forte,stimuli/330Hz,stimuli/forte,bloc_1,prob20hthp_12trials.xlsx,4,48,20,80,0,,,,,0,0,0,0,0,0,0,3,,,,,,,,3.2,156.67838589999883,159.87746429999243,159.8774981299968,0.3048536999995122,160.32176359998994,160.32176359998994,None,165.25903899999685,165.25903899999685,46,2.419,,162.79139149999537,162.79139149999537,,,sub-063,55,110,700,bloc_loop.csv,2023-10-26_10h45.43.220,PainUncertainty,2022.2.5,142.99584883198509,
aigu,moderee,stimuli/660Hz,stimuli/moderee,bloc_1,prob20hthp_12trials.xlsx,4,48,20,80,0,,,,,0,0,0,0,0,1,1,8,,,,,,,,4.8,165.25903899999685,170.05927399999928,170.05946692999277,0.3048177000018768,170.50734069998725,170.50734069998725,n,174.42923470000096,174.42923470000096,15,2.997,0.8712187000055565,,,,,sub-063,55,110,700,bloc_loop.csv,2023-10-26_10h45.43.220,PainUncertainty,2022.2.5,142.99584883198509,
aigu,moderee,stimuli/660Hz,stimuli/moderee,bloc_1,prob20hthp_12trials.xlsx,4,48,20,80,0,,,,,0,0,0,0,0,2,2,9,,,,,,,,4.8,174.42923470000096,179.23399309998786,179.2340054299886,0.3049992000014754,179.68217580000055,179.68217580000055,n,181.2385934999911,181.2385934999911,20,0.956,0.5234974000049988,,,,,sub-063,55,110,700,bloc_loop.csv,2023-10-26_10h45.43.220,PainUncertainty,2022.2.5,142.99584883198509,
grave,forte,stimuli/330Hz,stimuli/forte,bloc_1,prob20hthp_12trials.xlsx,4,48,20,80,0,,,,,0,0,0,0,0,3,3,0,,,,,,,,4.3,181.2385934999911,185.54023709999456,185.54034082999277,0.30481140001211315,185.98468759999378,185.98468759999378,m,188.60454019998724,188.60454019998724,42,1.893,0.6478010999999242,,,,,sub-063,55,110,700,bloc_loop.csv,2023-10-26_10h45.43.220,PainUncertainty,2022.2.5,142.99584883198509,
aigu,moderee,stimuli/660Hz,stimuli/moderee,bloc_1,prob20hthp_12trials.xlsx,4,48,20,80,0,,,,,0,0,0,0,0,4,4,7,,,,,,,,4.9,188.60454019998724,193.5081965999998,193.50686822999268,0.30508540000300854,193.95455179999408,193.95455179999408,n,195.90767760000017,195.90767760000017,13,1.497,0.3826258999906713,,,,,sub-063,55,110,700,bloc_loop.csv,2023-10-26_10h45.43.220,PainUncertainty,2022.2.5,142.99584883198509,
aigu,forte,stimuli/660Hz,stimuli/forte,bloc_1,prob20hthp_12trials.xlsx,4,48,20,80,0,,,,,0,0,0,0,0,5,5,11,,,,,,,,4.7,195.90767760000017,200.61156809999375,200.6116928299918,0.3049629000015557,201.06041189999087,201.06041189999087,None,207.379803799995,207.379803799995,40,3.824,,,,,,sub-063,55,110,700,bloc_loop.csv,2023-10-26_10h45.43.220,PainUncertainty,2022.2.5,142.99584883198509,
grave,forte,stimuli/330Hz,stimuli/forte,bloc_1,prob20hthp_12trials.xlsx,4,48,20,80,0,,,,,0,0,0,0,0,6,6,2,,,,,,,,3.4,207.379803799995,210.7794031999947,210.77948242999554,0.30188020000059623,211.22518499998841,211.22518499998841,m,216.53594019998854,216.53594019998854,38,4.608,0.626687399999355,,,,,sub-063,55,110,700,bloc_loop.csv,2023-10-26_10h45.43.220,PainUncertainty,2022.2.5,142.99584883198509,
aigu,moderee,stimuli/660Hz,stimuli/moderee,bloc_1,prob20hthp_12trials.xlsx,4,48,20,80,0,,,,,0,0,0,0,0,7,7,10,,,,,,,,3,216.53594019998854,219.5378558999946,219.53775622998654,0.30151869999826886,219.9824469999876,219.9824469999876,n,222.65832399998908,222.65832399998908,10,2.08,0.5248699000076158,,,,,sub-063,55,110,700,bloc_loop.csv,2023-10-26_10h45.43.220,PainUncertainty,2022.2.5,142.99584883198509,
grave,forte,stimuli/330Hz,stimuli/forte,bloc_1,prob20hthp_12trials.xlsx,4,48,20,80,0,,,,,0,0,0,0,0,8,8,4,,,,,,,,3.7,222.65832399998908,226.35780199999863,226.35781582999624,0.3052078999899095,226.80913129998953,226.80913129998953,m,230.16831899998942,230.16831899998942,43,2.608,0.6758809000020847,,,,,sub-063,55,110,700,bloc_loop.csv,2023-10-26_10h45.43.220,PainUncertainty,2022.2.5,142.99584883198509,
aigu,moderee,stimuli/660Hz,stimuli/moderee,bloc_1,prob20hthp_12trials.xlsx,4,48,20,80,0,,,,,0,0,0,0,0,9,9,6,,,,,,,,4.9,230.16831899998942,235.07408479999867,235.0741158299963,0.30510330000834074,235.5183995999978,235.5183995999978,n,238.15695569998934,238.15695569998934,14,2.002,0.5828843999915989,,,,,sub-063,55,110,700,bloc_loop.csv,2023-10-26_10h45.43.220,PainUncertainty,2022.2.5,142.99584883198509,
grave,moderee,stimuli/330Hz,stimuli/moderee,bloc_1,prob20hthp_12trials.xlsx,4,48,20,80,0,,,,,0,0,0,0,0,10,10,5,,,,,,,,3.3,238.15695569998934,241.45677169998817,241.45667292998695,0.2991302000009455,241.89502129999164,241.89502129999164,n,245.04573369999707,245.04573369999707,10,1.706,1.3678180999995675,,,,,sub-063,55,110,700,bloc_loop.csv,2023-10-26_10h45.43.220,PainUncertainty,2022.2.5,142.99584883198509,
grave,forte,stimuli/330Hz,stimuli/forte,bloc_1,prob20hthp_12trials.xlsx,4,48,20,80,0,,,,,0,0,0,0,0,11,11,1,,,,,,,,3.2,245.04573369999707,248.24926709999272,248.24916382998634,0.3052529999986291,248.69364230000065,248.69364230000065,m,251.75668599999335,251.75668599999335,32,1.47,1.5229954000096768,,,,,sub-063,55,110,700,bloc_loop.csv,2023-10-26_10h45.43.220,PainUncertainty,2022.2.5,142.99584883198509,
grave,moderee,stimuli/330Hz,stimuli/moderee,bloc_1,prob20hthp_12trials.xlsx,4,48,20,80,0,,,,,0,0,0,0,1,0,12,5,,,,,,,,3.3,251.75668599999335,255.05554279999342,255.05572793000027,0.30495600000722334,255.5002766999969,255.5002766999969,n,257.4121607999987,257.4121607999987,8,1.122,0.7400965000124415,,,,,sub-063,55,110,700,bloc_loop.csv,2023-10-26_10h45.43.220,PainUncertainty,2022.2.5,142.99584883198509,
aigu,moderee,stimuli/660Hz,stimuli/moderee,bloc_1,prob20hthp_12trials.xlsx,4,48,20,80,0,,,,,0,0,0,0,1,1,13,8,,,,,,,,5,257.4121607999987,262.4176260999957,262.41767002998967,0.30526709998957813,262.86192019999726,262.86192019999726,n,267.17579419999674,267.17579419999674,9,3.601,0.658603599993512,,,,,sub-063,55,110,700,bloc_loop.csv,2023-10-26_10h45.43.220,PainUncertainty,2022.2.5,142.99584883198509,
aigu,moderee,stimuli/660Hz,stimuli/moderee,bloc_1,prob20hthp_12trials.xlsx,4,48,20,80,0,,,,,0,0,0,0,1,2,14,10,,,,,,,,3.9,267.17579419999674,271.07869129999017,271.0787208299909,0.29901560000143945,271.5206673999928,271.5206673999928,n,273.58349279999675,273.58349279999675,8,1.087,0.8937458000000333,,,,,sub-063,55,110,700,bloc_loop.csv,2023-10-26_10h45.43.220,PainUncertainty,2022.2.5,142.99584883198509,
grave,forte,stimuli/330Hz,stimuli/forte,bloc_1,prob20hthp_12trials.xlsx,4,48,20,80,0,,,,,0,0,0,0,1,3,15,2,,,,,,,,4.3,273.58349279999675,277.8850158999994,277.88493482998746,0.3050630000070669,278.33298409999406,278.33298409999406,m,280.7906324999931,280.7906324999931,41,1.685,0.7199097000120673,,,,,sub-063,55,110,700,bloc_loop.csv,2023-10-26_10h45.43.220,PainUncertainty,2022.2.5,142.99584883198509,
grave,forte,stimuli/330Hz,stimuli/forte,bloc_1,prob20hthp_12trials.xlsx,4,48,20,80,0,,,,,0,0,0,0,1,4,16,3,,,,,,,,3.8,280.7906324999931,284.59410569998727,284.5940677299979,0.3049745000025723,285.0382392999891,285.0382392999891,m,289.4853677999927,289.4853677999927,42,2.94,1.4314942000055453,,,,,sub-063,55,110,700,bloc_loop.csv,2023-10-26_10h45.43.220,PainUncertainty,2022.2.5,142.99584883198509,
aigu,moderee,stimuli/660Hz,stimuli/moderee,bloc_1,prob20hthp_12trials.xlsx,4,48,20,80,0,,,,,0,0,0,0,1,5,17,7,,,,,,,,3.3,289.4853677999927,292.78948929999024,292.7899574299983,0.3046629999880679,293.23358179999923,293.23358179999923,n,295.34845839999616,295.34845839999616,8,1.392,0.6680282000015723,,,,,sub-063,55,110,700,bloc_loop.csv,2023-10-26_10h45.43.220,PainUncertainty,2022.2.5,142.99584883198509,
aigu,moderee,stimuli/660Hz,stimuli/moderee,bloc_1,prob20hthp_12trials.xlsx,4,48,20,80,0,,,,,0,0,0,0,1,6,18,6,,,,,,,,3.1,295.34845839999616,298.44989219999115,298.4501711299992,0.30454910000844393,298.8941138999944,298.8941138999944,n,302.62070149999636,302.62070149999636,9,3.004,0.642214999999851,,,,,sub-063,55,110,700,bloc_loop.csv,2023-10-26_10h45.43.220,PainUncertainty,2022.2.5,142.99584883198509,
grave,forte,stimuli/330Hz,stimuli/forte,bloc_1,prob20hthp_12trials.xlsx,4,48,20,80,0,,,,,0,0,0,0,1,7,19,4,,,,,,,,4.6,302.62070149999636,307.22212899998704,307.2220369299932,0.30487409999477677,307.6660028999904,307.6660028999904,m,311.45661649999965,311.45661649999965,39,2.455,1.2615575999952853,,,,,sub-063,55,110,700,bloc_loop.csv,2023-10-26_10h45.43.220,PainUncertainty,2022.2.5,142.99584883198509,
aigu,moderee,stimuli/660Hz,stimuli/moderee,bloc_1,prob20hthp_12trials.xlsx,4,48,20,80,0,,,,,0,0,0,0,1,8,20,9,,,,,,,,4.5,311.45661649999965,315.9589049999922,315.9591967299959,0.3047028000000864,316.4069642999966,316.4069642999966,n,320.62967739999294,320.62967739999294,11,3.538,0.6143414999969536,,,,,sub-063,55,110,700,bloc_loop.csv,2023-10-26_10h45.43.220,PainUncertainty,2022.2.5,142.99584883198509,
grave,forte,stimuli/330Hz,stimuli/forte,bloc_1,prob20hthp_12trials.xlsx,4,48,20,80,0,,,,,0,0,0,0,1,9,21,0,,,,,,,,4.6,320.62967739999294,325.23124709998956,325.2319624299882,0.29960310000751633,325.67562129998987,325.67562129998987,m,330.15184949999093,330.15184949999093,45,2.47,1.9502515000058338,,,,,sub-063,55,110,700,bloc_loop.csv,2023-10-26_10h45.43.220,PainUncertainty,2022.2.5,142.99584883198509,
aigu,forte,stimuli/660Hz,stimuli/forte,bloc_1,prob20hthp_12trials.xlsx,4,48,20,80,0,,,,,0,0,0,0,1,10,22,11,,,,,,,,4.6,330.15184949999093,334.7528474999999,334.75295672999636,0.3054317999922205,335.2011010999995,335.2011010999995,m,337.90367899999546,337.90367899999546,46,1.278,1.3233174000051804,,,,,sub-063,55,110,700,bloc_loop.csv,2023-10-26_10h45.43.220,PainUncertainty,2022.2.5,142.99584883198509,
grave,forte,stimuli/330Hz,stimuli/forte,bloc_1,prob20hthp_12trials.xlsx,4,48,20,80,0,,,,,0,0,0,0,1,11,23,1,,,,,,,,3.5,337.90367899999546,341.40678169998864,341.4070773299929,0.30484250000154134,341.853017299989,341.853017299989,m,344.3116233999899,344.3116233999899,48,1.593,0.803901199993561,,,,,sub-063,55,110,700,bloc_loop.csv,2023-10-26_10h45.43.220,PainUncertainty,2022.2.5,142.99584883198509,
grave,forte,stimuli/330Hz,stimuli/forte,bloc_1,prob20hthp_12trials.xlsx,4,48,20,80,0,,,,,0,0,0,0,2,0,24,4,,,,,,,,4.7,344.3116233999899,349.0115122999996,349.0115928299958,0.30504939999082126,349.4557375999866,349.4557375999866,m,353.0217987999931,353.0217987999931,46,2.254,1.2370975999947404,,,,,sub-063,55,110,700,bloc_loop.csv,2023-10-26_10h45.43.220,PainUncertainty,2022.2.5,142.99584883198509,
aigu,moderee,stimuli/660Hz,stimuli/moderee,bloc_1,prob20hthp_12trials.xlsx,4,48,20,80,0,,,,,0,0,0,0,2,1,25,9,,,,,,,,3,353.0217987999931,356.01981889999297,356.0215760299936,0.29996780000510626,356.4648398999998,356.4648398999998,n,358.98100619998877,358.98100619998877,11,1.241,1.2001361000002362,,,,,sub-063,55,110,700,bloc_loop.csv,2023-10-26_10h45.43.220,PainUncertainty,2022.2.5,142.99584883198509,
grave,forte,stimuli/330Hz,stimuli/forte,bloc_1,prob20hthp_12trials.xlsx,4,48,20,80,0,,,,,0,0,0,0,2,2,26,0,,,,,,,,3.2,358.98100619998877,362.1868231999979,362.18677922999194,0.3053102999983821,362.6309182999976,362.6309182999976,m,364.98965379998845,364.98965379998845,42,1.587,0.692791399997077,,,,,sub-063,55,110,700,bloc_loop.csv,2023-10-26_10h45.43.220,PainUncertainty,2022.2.5,142.99584883198509,
aigu,moderee,stimuli/660Hz,stimuli/moderee,bloc_1,prob20hthp_12trials.xlsx,4,48,20,80,0,,,,,0,0,0,0,2,3,27,10,,,,,,,,4.8,364.98965379998845,369.79198879998876,369.79201092999136,0.3048717000056058,370.2381960999919,370.2381960999919,n,373.7774042999954,373.7774042999954,8,2.9,0.5766145999950822,,,,,sub-063,55,110,700,bloc_loop.csv,2023-10-26_10h45.43.220,PainUncertainty,2022.2.5,142.99584883198509,
aigu,moderee,stimuli/660Hz,stimuli/moderee,bloc_1,prob20hthp_12trials.xlsx,4,48,20,80,0,,,,,0,0,0,0,2,4,28,7,,,,,,,,4.6,373.7774042999954,378.3765687999985,378.3791909299936,0.30260870000347495,378.8228672999976,378.8228672999976,n,380.20128899998963,380.20128899998963,10,0.65,0.6625239999993937,,,,,sub-063,55,110,700,bloc_loop.csv,2023-10-26_10h45.43.220,PainUncertainty,2022.2.5,142.99584883198509,
grave,forte,stimuli/330Hz,stimuli/forte,bloc_1,prob20hthp_12trials.xlsx,4,48,20,80,0,,,,,0,0,0,0,2,5,29,3,,,,,,,,4.1,380.20128899998963,384.3005884999875,384.3006617299863,0.30515440000453964,384.74480049998965,384.74480049998965,m,388.60775929999363,388.60775929999363,43,3.086,0.696052300001611,,,,,sub-063,55,110,700,bloc_loop.csv,2023-10-26_10h45.43.220,PainUncertainty,2022.2.5,142.99584883198509,
aigu,moderee,stimuli/660Hz,stimuli/moderee,bloc_1,prob20hthp_12trials.xlsx,4,48,20,80,0,,,,,0,0,0,0,2,6,30,6,,,,,,,,4.5,388.60775929999363,393.1078567999939,393.10976563,0.3032152999949176,393.5553044999979,393.5553044999979,n,396.5328230999876,396.5328230999876,14,2.277,0.6490895000024466,,,,,sub-063,55,110,700,bloc_loop.csv,2023-10-26_10h45.43.220,PainUncertainty,2022.2.5,142.99584883198509,
aigu,moderee,stimuli/660Hz,stimuli/moderee,bloc_1,prob20hthp_12trials.xlsx,4,48,20,80,0,,,,,0,0,0,0,2,7,31,8,,,,,,,,4.5,396.5328230999876,401.0317854999885,401.0320598299906,0.30498980000265874,401.4760879999958,401.4760879999958,n,403.5803113000002,403.5803113000002,12,1.392,0.6287286000006134,,,,,sub-063,55,110,700,bloc_loop.csv,2023-10-26_10h45.43.220,PainUncertainty,2022.2.5,142.99584883198509,
grave,forte,stimuli/330Hz,stimuli/forte,bloc_1,prob20hthp_12trials.xlsx,4,48,20,80,0,,,,,0,0,0,0,2,8,32,1,,,,,,,,4.5,403.5803113000002,408.0812884999905,408.0813823300006,0.30537099999492057,408.52768479999213,408.52768479999213,m,411.88804209999216,411.88804209999216,45,2.608,0.6988258000055794,,,,,sub-063,55,110,700,bloc_loop.csv,2023-10-26_10h45.43.220,PainUncertainty,2022.2.5,142.99584883198509,
aigu,forte,stimuli/660Hz,stimuli/forte,bloc_1,prob20hthp_12trials.xlsx,4,48,20,80,0,,,,,0,0,0,0,2,9,33,11,,,,,,,,3.9,411.88804209999216,415.79060349999054,415.7906232299894,0.3049874999996973,416.23482389999845,416.23482389999845,m,419.24146479999763,419.24146479999763,46,1.774,1.1679751000046963,,,,,sub-063,55,110,700,bloc_loop.csv,2023-10-26_10h45.43.220,PainUncertainty,2022.2.5,142.99584883198509,
grave,forte,stimuli/330Hz,stimuli/forte,bloc_1,prob20hthp_12trials.xlsx,4,48,20,80,0,,,,,0,0,0,0,2,10,34,2,,,,,,,,3.6,419.24146479999763,422.8469932000007,422.847086329991,0.30506420000165235,423.291355999987,423.291355999987,m,424.83421609998913,424.83421609998913,50,0.823,0.637176799995359,,,,,sub-063,55,110,700,bloc_loop.csv,2023-10-26_10h45.43.220,PainUncertainty,2022.2.5,142.99584883198509,
grave,moderee,stimuli/330Hz,stimuli/moderee,bloc_1,prob20hthp_12trials.xlsx,4,48,20,80,0,,,,,0,0,0,0,2,11,35,5,,,,,,,,4.1,424.83421609998913,428.9381169999979,428.93807402999954,0.30516209999041166,429.38221519999206,429.38221519999206,n,431.73735069998656,431.73735069998656,10,1.664,0.609658400004264,,,,,sub-063,55,110,700,bloc_loop.csv,2023-10-26_10h45.43.220,PainUncertainty,2022.2.5,142.99584883198509,
grave,forte,stimuli/330Hz,stimuli/forte,bloc_1,prob20hthp_12trials.xlsx,4,48,20,80,0,,,,,0,0,0,0,3,0,36,4,,,,,,,,4.1,431.73735069998656,435.84165129999747,435.8416553299932,0.304981699999189,436.28583849999995,436.28583849999995,m,438.288721799996,438.288721799996,45,1.257,0.6872580999915954,,,,,sub-063,55,110,700,bloc_loop.csv,2023-10-26_10h45.43.220,PainUncertainty,2022.2.5,142.99584883198509,
grave,forte,stimuli/330Hz,stimuli/forte,bloc_1,prob20hthp_12trials.xlsx,4,48,20,80,0,,,,,0,0,0,0,3,1,37,3,,,,,,,,4.9,438.288721799996,443.18981829998665,443.1899285299907,0.30183520000719,443.6351607999968,443.6351607999968,m,447.01338679999753,447.01338679999753,45,2.657,0.6609922000061488,,,,,sub-063,55,110,700,bloc_loop.csv,2023-10-26_10h45.43.220,PainUncertainty,2022.2.5,142.99584883198509,
grave,forte,stimuli/330Hz,stimuli/forte,bloc_1,prob20hthp_12trials.xlsx,4,48,20,80,0,,,,,0,0,0,0,3,2,38,2,,,,,,,,4.4,447.01338679999753,451.41299009999784,451.412955829993,0.30501969999750145,451.85722149998765,451.85722149998765,m,454.8135389999952,454.8135389999952,46,2.208,0.6662470000010217,,,,,sub-063,55,110,700,bloc_loop.csv,2023-10-26_10h45.43.220,PainUncertainty,2022.2.5,142.99584883198509,
grave,moderee,stimuli/330Hz,stimuli/moderee,bloc_1,prob20hthp_12trials.xlsx,4,48,20,80,0,,,,,0,0,0,0,3,3,39,5,,,,,,,,4.2,454.8135389999952,459.01846969999315,459.01833112999446,0.30511260000639595,459.46219179999025,459.46219179999025,n,461.8103252000001,461.8103252000001,12,1.664,0.6313821999938227,,,,,sub-063,55,110,700,bloc_loop.csv,2023-10-26_10h45.43.220,PainUncertainty,2022.2.5,142.99584883198509,
aigu,moderee,stimuli/660Hz,stimuli/moderee,bloc_1,prob20hthp_12trials.xlsx,4,48,20,80,0,,,,,0,0,0,0,3,4,40,10,,,,,,,,4.2,461.8103252000001,466.0122823999991,466.0122671299934,0.2996440999995684,466.4549565999914,466.4549565999914,n,468.5399039999902,468.5399039999902,13,1.267,0.7322146000078646,,,,,sub-063,55,110,700,bloc_loop.csv,2023-10-26_10h45.43.220,PainUncertainty,2022.2.5,142.99584883198509,
grave,forte,stimuli/330Hz,stimuli/forte,bloc_1,prob20hthp_12trials.xlsx,4,48,20,80,0,,,,,0,0,0,0,3,5,41,0,,,,,,,,4.9,468.5399039999902,473.443357799988,473.4435320299992,0.3048084000038216,473.88763669999025,473.88763669999025,m,475.5051742999931,475.5051742999931,40,0.789,0.7626485999935539,,,,,sub-063,55,110,700,bloc_loop.csv,2023-10-26_10h45.43.220,PainUncertainty,2022.2.5,142.99584883198509,
aigu,moderee,stimuli/660Hz,stimuli/moderee,bloc_1,prob20hthp_12trials.xlsx,4,48,20,80,0,,,,,0,0,0,0,3,6,42,7,,,,,,,,3.6,475.5051742999931,479.1107859999902,479.11076972999143,0.3050777000025846,479.55492889999005,479.55492889999005,n,480.8267780999886,480.8267780999886,10,0.725,0.49339219999092165,,,,,sub-063,55,110,700,bloc_loop.csv,2023-10-26_10h45.43.220,PainUncertainty,2022.2.5,142.99584883198509,
aigu,moderee,stimuli/660Hz,stimuli/moderee,bloc_1,prob20hthp_12trials.xlsx,4,48,20,80,0,,,,,0,0,0,0,3,7,43,8,,,,,,,,4,480.8267780999886,484.8269447999919,484.82686772999585,0.3050282999902265,485.27104939999117,485.27104939999117,None,491.4693108999927,491.4693108999927,11,3.679,,487.73834630000056,487.73834630000056,,,sub-063,55,110,700,bloc_loop.csv,2023-10-26_10h45.43.220,PainUncertainty,2022.2.5,142.99584883198509,
grave,forte,stimuli/330Hz,stimuli/forte,bloc_1,prob20hthp_12trials.xlsx,4,48,20,80,0,,,,,0,0,0,0,3,8,44,1,,,,,,,,3.4,491.4693108999927,494.869690099993,494.8698830299865,0.30465320000075735,495.3139641999878,495.3139641999878,m,497.2688205999875,497.2688205999875,47,1.179,0.7172121000039624,,,,,sub-063,55,110,700,bloc_loop.csv,2023-10-26_10h45.43.220,PainUncertainty,2022.2.5,142.99584883198509,
aigu,forte,stimuli/660Hz,stimuli/forte,bloc_1,prob20hthp_12trials.xlsx,4,48,20,80,0,,,,,0,0,0,0,3,9,45,11,,,,,,,,3.5,497.2688205999875,500.7732127999916,500.7732330299943,0.3049870999966515,501.21749629999977,501.21749629999977,m,503.6303465999954,503.6303465999954,46,1.637,0.7008701000013389,,,,,sub-063,55,110,700,bloc_loop.csv,2023-10-26_10h45.43.220,PainUncertainty,2022.2.5,142.99584883198509,
aigu,moderee,stimuli/660Hz,stimuli/moderee,bloc_1,prob20hthp_12trials.xlsx,4,48,20,80,0,,,,,0,0,0,0,3,10,46,6,,,,,,,,3.9,503.6303465999954,507.53082059998997,507.5308516299876,0.305607800008147,507.97944889999053,507.97944889999053,n,509.92437809999683,509.92437809999683,11,1.211,0.677940800000215,,,,,sub-063,55,110,700,bloc_loop.csv,2023-10-26_10h45.43.220,PainUncertainty,2022.2.5,142.99584883198509,
aigu,moderee,stimuli/660Hz,stimuli/moderee,bloc_1,prob20hthp_12trials.xlsx,4,48,20,80,0,,,,,0,0,0,0,3,11,47,9,,,,,,,,3.8,509.92437809999683,513.7261932999972,513.7262643299939,0.3050038999936078,514.1704690999904,514.1704690999904,n,517.1654224999947,517.1654224999947,12,2.218,0.6978148000052897,,,,,sub-063,55,110,700,bloc_loop.csv,2023-10-26_10h45.43.220,PainUncertainty,2022.2.5,142.99584883198509,
aigu,forte,stimuli/660Hz,stimuli/forte,bloc_2,prob50_50_4trials.xlsx,2,8,50,50,1,,,,,0,1,1,1,0,0,0,3,,,,,,,,3.9,517.1654224999947,521.0679564999882,521.0679261299986,0.3046812999964459,521.5114770999935,521.5114770999935,m,525.121436299989,525.121436299989,43,2.886,0.653910499997437,,,,,sub-063,55,110,700,bloc_loop.csv,2023-10-26_10h45.43.220,PainUncertainty,2022.2.5,142.99584883198509,
aigu,moderee,stimuli/660Hz,stimuli/moderee,bloc_2,prob50_50_4trials.xlsx,2,8,50,50,1,,,,,0,1,1,1,0,1,1,2,,,,,,,,4.3,525.121436299989,529.4226060999936,529.4225504300005,0.3050211999943713,529.8666282999911,529.8666282999911,n,532.6651171999983,532.6651171999983,12,2.148,0.5703491000022041,,,,,sub-063,55,110,700,bloc_loop.csv,2023-10-26_10h45.43.220,PainUncertainty,2022.2.5,142.99584883198509,
grave,forte,stimuli/330Hz,stimuli/forte,bloc_2,prob50_50_4trials.xlsx,2,8,50,50,1,,,,,0,1,1,1,0,2,2,1,,,,,,,,4,532.6651171999983,536.6669887999888,536.6668265299988,0.30503189998853486,537.110771599997,537.110771599997,m,541.612968699992,541.612968699992,44,3.802,0.6263327000051504,,,,,sub-063,55,110,700,bloc_loop.csv,2023-10-26_10h45.43.220,PainUncertainty,2022.2.5,142.99584883198509,
grave,moderee,stimuli/330Hz,stimuli/moderee,bloc_2,prob50_50_4trials.xlsx,2,8,50,50,1,,,,,0,1,1,1,0,3,3,0,,,,,,,,4.2,541.612968699992,545.813339100001,545.8133827299928,0.3050762999919243,546.2576635999867,546.2576635999867,n,550.418076899994,550.418076899994,13,3.554,0.5399663999996847,,,,,sub-063,55,110,700,bloc_loop.csv,2023-10-26_10h45.43.220,PainUncertainty,2022.2.5,142.99584883198509,
grave,forte,stimuli/330Hz,stimuli/forte,bloc_2,prob50_50_4trials.xlsx,2,8,50,50,1,,,,,0,1,1,1,1,0,4,1,,,,,,,,4.6,550.418076899994,555.022799399987,555.0227628299938,0.305188399986946,555.4669577999884,555.4669577999884,m,560.9185013999959,560.9185013999959,47,3.936,1.4341251000005286,,,,,sub-063,55,110,700,bloc_loop.csv,2023-10-26_10h45.43.220,PainUncertainty,2022.2.5,142.99584883198509,
aigu,moderee,stimuli/660Hz,stimuli/moderee,bloc_2,prob50_50_4trials.xlsx,2,8,50,50,1,,,,,0,1,1,1,1,1,5,2,,,,,,,,3,560.9185013999959,563.9201676999946,563.920195529997,0.2991306999902008,564.361004099992,564.361004099992,n,566.4620295999921,566.4620295999921,13,1.47,0.570915000003879,,,,,sub-063,55,110,700,bloc_loop.csv,2023-10-26_10h45.43.220,PainUncertainty,2022.2.5,142.99584883198509,
grave,moderee,stimuli/330Hz,stimuli/moderee,bloc_2,prob50_50_4trials.xlsx,2,8,50,50,1,,,,,0,1,1,1,1,2,6,0,,,,,,,,4.7,566.4620295999921,571.1640241999994,571.1640275299899,0.3062495000049239,571.6131514000008,571.6131514000008,n,575.4610811999883,575.4610811999883,13,2.961,0.805074699994293,,,,,sub-063,55,110,700,bloc_loop.csv,2023-10-26_10h45.43.220,PainUncertainty,2022.2.5,142.99584883198509,
aigu,forte,stimuli/660Hz,stimuli/forte,bloc_2,prob50_50_4trials.xlsx,2,8,50,50,1,,,,,0,1,1,1,1,3,7,3,,,,,,,,3.1,575.4610811999883,578.5604401999881,578.5603949299868,0.3050613999948837,579.0046217999916,579.0046217999916,m,583.7528830999945,583.7528830999945,44,1.601,1.1120774000009988,,,,,sub-063,55,110,700,bloc_loop.csv,2023-10-26_10h45.43.220,PainUncertainty,2022.2.5,142.99584883198509,
,,,,bloc_2,prob50_50_4trials.xlsx,2,8,50,50,1,,,,,0,1,1,1,,,,,0,0,0,0,,,,,,,,,,,,,,,,,,,583.7528830999945,626.1910492999887,sub-063,55,110,700,bloc_loop.csv,2023-10-26_10h45.43.220,PainUncertainty,2022.2.5,142.99584883198509,
aigu,forte,stimuli/660Hz,stimuli/forte,bloc_3,prob80hthp_12trials.xlsx,2,24,80,20,0,,,,,0,2,2,2,0,0,0,8,,,,,,,,3,627.1549960999982,630.1572958999895,630.15712603,0.29971970000769943,630.5953864999901,630.5953864999901,n,635.864560099988,635.864560099988,15,3.149,2.0395764999993844,,,,,sub-063,55,110,700,bloc_loop.csv,2023-10-26_10h45.43.220,PainUncertainty,2022.2.5,142.99584883198509,
grave,moderee,stimuli/330Hz,stimuli/moderee,bloc_3,prob80hthp_12trials.xlsx,2,24,80,20,0,,,,,0,2,2,2,0,1,1,1,,,,,,,,4.5,635.864560099988,640.3666304999933,640.3683815299912,0.30381330000818707,640.815058799999,640.815058799999,n,643.0044706999906,643.0044706999906,13,1.294,0.8420260999992024,,,,,sub-063,55,110,700,bloc_loop.csv,2023-10-26_10h45.43.220,PainUncertainty,2022.2.5,142.99584883198509,
grave,moderee,stimuli/330Hz,stimuli/moderee,bloc_3,prob80hthp_12trials.xlsx,2,24,80,20,0,,,,,0,2,2,2,0,2,2,0,,,,,,,,3,643.0044706999906,646.0059806999925,646.0061608299904,0.3050929000019096,646.4548469000001,646.4548469000001,n,650.2126215999888,650.2126215999888,11,2.858,0.840299600007711,,,,,sub-063,55,110,700,bloc_loop.csv,2023-10-26_10h45.43.220,PainUncertainty,2022.2.5,142.99584883198509,
aigu,moderee,stimuli/660Hz,stimuli/moderee,bloc_3,prob80hthp_12trials.xlsx,2,24,80,20,0,,,,,0,2,2,2,0,3,3,11,,,,,,,,4.4,650.2126215999888,654.6118391999917,654.6119150299958,0.3000767000048654,655.055952499999,655.055952499999,n,658.7476356999978,658.7476356999978,13,2.83,0.7827870000037365,,,,,sub-063,55,110,700,bloc_loop.csv,2023-10-26_10h45.43.220,PainUncertainty,2022.2.5,142.99584883198509,
aigu,forte,stimuli/660Hz,stimuli/forte,bloc_3,prob80hthp_12trials.xlsx,2,24,80,20,0,,,,,0,2,2,2,0,4,4,6,,,,,,,,4.4,658.7476356999978,663.1468784999888,663.1469192299876,0.3050687999930233,663.5913954999996,663.5913954999996,m,666.3031315999979,666.3031315999979,48,1.954,0.679151099990122,,,,,sub-063,55,110,700,bloc_loop.csv,2023-10-26_10h45.43.220,PainUncertainty,2022.2.5,142.99584883198509,
grave,moderee,stimuli/330Hz,stimuli/moderee,bloc_3,prob80hthp_12trials.xlsx,2,24,80,20,0,,,,,0,2,2,2,0,5,5,4,,,,,,,,3,666.3031315999979,669.3072937999968,669.3074652299867,0.30492799999774434,669.7515522999893,669.7515522999893,n,672.3275757999945,672.3275757999945,15,1.26,1.2506099000020185,,,,,sub-063,55,110,700,bloc_loop.csv,2023-10-26_10h45.43.220,PainUncertainty,2022.2.5,142.99584883198509,
aigu,forte,stimuli/660Hz,stimuli/forte,bloc_3,prob80hthp_12trials.xlsx,2,24,80,20,0,,,,,0,2,2,2,0,6,6,10,,,,,,,,4.5,672.3275757999945,676.8294594999898,676.8294977299986,0.3025240999995731,677.274520299994,677.274520299994,m,679.4562191000005,679.4562191000005,50,0.73,1.3751021999923978,,,,,sub-063,55,110,700,bloc_loop.csv,2023-10-26_10h45.43.220,PainUncertainty,2022.2.5,142.99584883198509,
grave,moderee,stimuli/330Hz,stimuli/moderee,bloc_3,prob80hthp_12trials.xlsx,2,24,80,20,0,,,,,0,2,2,2,0,7,7,2,,,,,,,,4.3,679.4562191000005,683.7609948999889,683.7608835299936,0.30484579999756534,684.2045852999872,684.2045852999872,n,686.2616311999882,686.2616311999882,12,1.385,0.6165680999984033,,,,,sub-063,55,110,700,bloc_loop.csv,2023-10-26_10h45.43.220,PainUncertainty,2022.2.5,142.99584883198509,
grave,moderee,stimuli/330Hz,stimuli/moderee,bloc_3,prob80hthp_12trials.xlsx,2,24,80,20,0,,,,,0,2,2,2,0,8,8,3,,,,,,,,3.5,686.2616311999882,689.7612785999954,689.7611843299994,0.3069149000075413,690.2130677999958,690.2130677999958,n,695.6610355999874,695.6610355999874,13,3.654,1.709104000008665,,,,,sub-063,55,110,700,bloc_loop.csv,2023-10-26_10h45.43.220,PainUncertainty,2022.2.5,142.99584883198509,
aigu,forte,stimuli/660Hz,stimuli/forte,bloc_3,prob80hthp_12trials.xlsx,2,24,80,20,0,,,,,0,2,2,2,0,9,9,7,,,,,,,,3.3,695.6610355999874,698.9640150999912,698.9640105299943,0.30513670000073034,699.410544399987,699.410544399987,m,700.8840376000007,700.8840376000007,50,0.795,0.622396499995375,,,,,sub-063,55,110,700,bloc_loop.csv,2023-10-26_10h45.43.220,PainUncertainty,2022.2.5,142.99584883198509,
aigu,forte,stimuli/660Hz,stimuli/forte,bloc_3,prob80hthp_12trials.xlsx,2,24,80,20,0,,,,,0,2,2,2,0,10,10,9,,,,,,,,4.6,700.8840376000007,705.4853613999876,705.4852945299965,0.3051011999923503,705.929427799987,705.929427799987,m,708.0742459999892,708.0742459999892,45,1.474,0.5748046999942744,,,,,sub-063,55,110,700,bloc_loop.csv,2023-10-26_10h45.43.220,PainUncertainty,2022.2.5,142.99584883198509,
grave,forte,stimuli/330Hz,stimuli/forte,bloc_3,prob80hthp_12trials.xlsx,2,24,80,20,0,,,,,0,2,2,2,0,11,11,5,,,,,,,,4.5,708.0742459999892,712.5767975999916,712.5767284299975,0.3052204999985406,713.0232466999878,713.0232466999878,m,715.1229891999974,715.1229891999974,46,1.323,0.7148241999966558,,,,,sub-063,55,110,700,bloc_loop.csv,2023-10-26_10h45.43.220,PainUncertainty,2022.2.5,142.99584883198509,
aigu,forte,stimuli/660Hz,stimuli/forte,bloc_3,prob80hthp_12trials.xlsx,2,24,80,20,0,,,,,0,2,2,2,1,0,12,9,,,,,,,,3.2,715.1229891999974,718.3205001999886,718.322574929992,0.3032089000043925,718.7679821999918,718.7679821999918,m,721.3869348000007,721.3869348000007,44,1.858,0.7020251999929314,,,,,sub-063,55,110,700,bloc_loop.csv,2023-10-26_10h45.43.220,PainUncertainty,2022.2.5,142.99584883198509,
aigu,forte,stimuli/660Hz,stimuli/forte,bloc_3,prob80hthp_12trials.xlsx,2,24,80,20,0,,,,,0,2,2,2,1,1,13,10,,,,,,,,3.2,721.3869348000007,724.5937751999882,724.592133329995,0.30504669999936596,725.0395018999989,725.0395018999989,m,726.8519825999974,726.8519825999974,47,1.108,0.6270819000055781,,,,,sub-063,55,110,700,bloc_loop.csv,2023-10-26_10h45.43.220,PainUncertainty,2022.2.5,142.99584883198509,
grave,moderee,stimuli/330Hz,stimuli/moderee,bloc_3,prob80hthp_12trials.xlsx,2,24,80,20,0,,,,,0,2,2,2,1,2,14,2,,,,,,,,3.1,726.8519825999974,729.9537457999977,729.9537950299884,0.30503880001197103,730.3979468999896,730.3979468999896,n,733.7395546999905,733.7395546999905,12,2.621,0.6664290000044275,,,,,sub-063,55,110,700,bloc_loop.csv,2023-10-26_10h45.43.220,PainUncertainty,2022.2.5,142.99584883198509,
grave,moderee,stimuli/330Hz,stimuli/moderee,bloc_3,prob80hthp_12trials.xlsx,2,24,80,20,0,,,,,0,2,2,2,1,3,15,0,,,,,,,,4,733.7395546999905,737.7392313999881,737.7391291299894,0.305148300001747,738.1835302999971,738.1835302999971,n,741.2824191999971,741.2824191999971,13,2.399,0.6193891000002623,,,,,sub-063,55,110,700,bloc_loop.csv,2023-10-26_10h45.43.220,PainUncertainty,2022.2.5,142.99584883198509,
aigu,forte,stimuli/660Hz,stimuli/forte,bloc_3,prob80hthp_12trials.xlsx,2,24,80,20,0,,,,,0,2,2,2,1,4,16,6,,,,,,,,4.1,741.2824191999971,745.3874625999888,745.386214329995,0.30517960000725,745.8336440999992,745.8336440999992,m,748.4233489999897,748.4233489999897,44,1.914,0.6224411000002874,,,,,sub-063,55,110,700,bloc_loop.csv,2023-10-26_10h45.43.220,PainUncertainty,2022.2.5,142.99584883198509,
grave,forte,stimuli/330Hz,stimuli/forte,bloc_3,prob80hthp_12trials.xlsx,2,24,80,20,0,,,,,0,2,2,2,1,5,17,5,,,,,,,,3.4,748.4233489999897,751.8240667999926,751.8241027299985,0.30736109999998007,752.2762040999951,752.2762040999951,m,754.5135063999915,754.5135063999915,46,1.587,0.5767194000072777,,,,,sub-063,55,110,700,bloc_loop.csv,2023-10-26_10h45.43.220,PainUncertainty,2022.2.5,142.99584883198509,
grave,moderee,stimuli/330Hz,stimuli/moderee,bloc_3,prob80hthp_12trials.xlsx,2,24,80,20,0,,,,,0,2,2,2,1,6,18,3,,,,,,,,3.3,754.5135063999915,757.8179581000004,757.8180823299947,0.3049976000038441,758.2621450999868,758.2621450999868,n,759.7231686999876,759.7231686999876,16,0.774,0.6152578000037465,,,,,sub-063,55,110,700,bloc_loop.csv,2023-10-26_10h45.43.220,PainUncertainty,2022.2.5,142.99584883198509,
aigu,forte,stimuli/660Hz,stimuli/forte,bloc_3,prob80hthp_12trials.xlsx,2,24,80,20,0,,,,,0,2,2,2,1,7,19,8,,,,,,,,3.2,759.7231686999876,762.9226112999895,762.9226981299901,0.30506149999564514,763.3692225999985,763.3692225999985,m,765.7466186999955,765.7466186999955,46,1.733,0.5648059000086505,,,,,sub-063,55,110,700,bloc_loop.csv,2023-10-26_10h45.43.220,PainUncertainty,2022.2.5,142.99584883198509,
aigu,moderee,stimuli/660Hz,stimuli/moderee,bloc_3,prob80hthp_12trials.xlsx,2,24,80,20,0,,,,,0,2,2,2,1,8,20,11,,,,,,,,3.7,765.7466186999955,769.4512014999927,769.4513101299992,0.30503059999318793,769.8979836999933,769.8979836999933,n,772.8432049999974,772.8432049999974,11,2.22,0.6526270000031218,,,,,sub-063,55,110,700,bloc_loop.csv,2023-10-26_10h45.43.220,PainUncertainty,2022.2.5,142.99584883198509,
aigu,forte,stimuli/660Hz,stimuli/forte,bloc_3,prob80hthp_12trials.xlsx,2,24,80,20,0,,,,,0,2,2,2,1,9,21,7,,,,,,,,3.2,772.8432049999974,776.042700799997,776.0439709300001,0.30358950000663754,776.4866197999945,776.4866197999945,m,780.3043582999962,780.3043582999962,47,3.191,0.5479855000012321,,,,,sub-063,55,110,700,bloc_loop.csv,2023-10-26_10h45.43.220,PainUncertainty,2022.2.5,142.99584883198509,
grave,moderee,stimuli/330Hz,stimuli/moderee,bloc_3,prob80hthp_12trials.xlsx,2,24,80,20,0,,,,,0,2,2,2,1,10,22,4,,,,,,,,4.8,780.3043582999962,785.1058929999999,785.1059818299866,0.30508890000055544,785.5500004999922,785.5500004999922,n,787.7499143999885,787.7499143999885,13,1.504,0.6372911000071326,,,,,sub-063,55,110,700,bloc_loop.csv,2023-10-26_10h45.43.220,PainUncertainty,2022.2.5,142.99584883198509,
grave,moderee,stimuli/330Hz,stimuli/moderee,bloc_3,prob80hthp_12trials.xlsx,2,24,80,20,0,,,,,0,2,2,2,1,11,23,1,,,,,,,,5,787.7499143999885,792.7528629000008,792.7531940299989,0.30484729999443516,793.1967423999886,793.1967423999886,n,797.4814901999925,797.4814901999925,12,3.573,0.6499374999984866,,,,,sub-063,55,110,700,bloc_loop.csv,2023-10-26_10h45.43.220,PainUncertainty,2022.2.5,142.99584883198509,
grave,moderee,stimuli/330Hz,stimuli/moderee,bloc_4,prob50_50_4trials.xlsx,2,8,50,50,1,,,,,0,3,3,3,0,0,0,0,,,,,,,,3.2,797.4814901999925,800.6840238000004,800.6840840299876,0.30509959999471903,801.1283487999899,801.1283487999899,n,802.516692899997,802.516692899997,10,0.775,0.5399099000060232,,,,,sub-063,55,110,700,bloc_loop.csv,2023-10-26_10h45.43.220,PainUncertainty,2022.2.5,142.99584883198509,
grave,forte,stimuli/330Hz,stimuli/forte,bloc_4,prob50_50_4trials.xlsx,2,8,50,50,1,,,,,0,3,3,3,0,1,1,1,,,,,,,,3.9,802.516692899997,806.4209066999902,806.420919429994,0.3051978000003146,806.8690231999935,806.8690231999935,m,809.4978618999885,809.4978618999885,48,1.817,0.7342357000015909,,,,,sub-063,55,110,700,bloc_loop.csv,2023-10-26_10h45.43.220,PainUncertainty,2022.2.5,142.99584883198509,
aigu,moderee,stimuli/660Hz,stimuli/moderee,bloc_4,prob50_50_4trials.xlsx,2,8,50,50,1,,,,,0,3,3,3,0,2,2,2,,,,,,,,3.5,809.4978618999885,812.9980026999983,812.9980455299985,0.30552419999730773,813.4466830999881,813.4466830999881,n,816.8988391999883,816.8988391999883,12,2.831,0.5396924999949988,,,,,sub-063,55,110,700,bloc_loop.csv,2023-10-26_10h45.43.220,PainUncertainty,2022.2.5,142.99584883198509,
aigu,forte,stimuli/660Hz,stimuli/forte,bloc_4,prob50_50_4trials.xlsx,2,8,50,50,1,,,,,0,3,3,3,0,3,3,3,,,,,,,,4.3,816.8988391999883,821.2004528999969,821.2003760299879,0.3006169000000227,821.6463841999939,821.6463841999939,m,825.3339405999868,825.3339405999868,48,1.836,1.795060000004014,,,,,sub-063,55,110,700,bloc_loop.csv,2023-10-26_10h45.43.220,PainUncertainty,2022.2.5,142.99584883198509,
aigu,forte,stimuli/660Hz,stimuli/forte,bloc_4,prob50_50_4trials.xlsx,2,8,50,50,1,,,,,0,3,3,3,1,0,4,3,,,,,,,,4.3,825.3339405999868,829.6392835999868,829.6392089299945,0.30502939999860246,830.083051900001,830.083051900001,m,832.5888186999946,832.5888186999946,46,1.796,0.6414889000006951,,,,,sub-063,55,110,700,bloc_loop.csv,2023-10-26_10h45.43.220,PainUncertainty,2022.2.5,142.99584883198509,
grave,moderee,stimuli/330Hz,stimuli/moderee,bloc_4,prob50_50_4trials.xlsx,2,8,50,50,1,,,,,0,3,3,3,1,1,5,0,,,,,,,,3.5,832.5888186999946,836.0911617999955,836.091096729989,0.30539750000752974,836.5374160999927,836.5374160999927,n,840.4532894000004,840.4532894000004,12,3.393,0.45523279999906663,,,,,sub-063,55,110,700,bloc_loop.csv,2023-10-26_10h45.43.220,PainUncertainty,2022.2.5,142.99584883198509,
grave,forte,stimuli/330Hz,stimuli/forte,bloc_4,prob50_50_4trials.xlsx,2,8,50,50,1,,,,,0,3,3,3,1,2,6,1,,,,,,,,3.9,840.4532894000004,844.3561992999894,844.3562332299946,0.30553719999443274,844.8040103999956,844.8040103999956,m,847.7553353999974,847.7553353999974,45,2.269,0.6031385999958729,,,,,sub-063,55,110,700,bloc_loop.csv,2023-10-26_10h45.43.220,PainUncertainty,2022.2.5,142.99584883198509,
aigu,moderee,stimuli/660Hz,stimuli/moderee,bloc_4,prob50_50_4trials.xlsx,2,8,50,50,1,,,,,0,3,3,3,1,3,7,2,,,,,,,,4,847.7553353999974,851.7599072999874,851.7597152299888,0.30482460001076106,852.2037525999913,852.2037525999913,n,856.62677789999,856.62677789999,12,1.781,0.605825199992978,,,,,sub-063,55,110,700,bloc_loop.csv,2023-10-26_10h45.43.220,PainUncertainty,2022.2.5,142.99584883198509,
,,,,bloc_4,prob50_50_4trials.xlsx,2,8,50,50,1,,,,,0,3,3,3,,,,,0,0,0,0,,,,,,,,,,,,,,,,,,,856.62677789999,904.7589939999889,sub-063,55,110,700,bloc_loop.csv,2023-10-26_10h45.43.220,PainUncertainty,2022.2.5,142.99584883198509,
aigu,moderee,stimuli/660Hz,stimuli/moderee,bloc_5,prob20hthp_12trials.xlsx,2,24,20,80,0,,,,,0,4,4,4,0,0,0,9,,,,,,,,4.7,906.016930599988,910.7182476999878,910.7182675299875,0.30509100000199396,911.1621311999916,911.1621311999916,n,914.9169363999972,914.9169363999972,14,3.072,0.6141137999948114,,,,,sub-063,55,110,700,bloc_loop.csv,2023-10-26_10h45.43.220,PainUncertainty,2022.2.5,142.99584883198509,
grave,moderee,stimuli/330Hz,stimuli/moderee,bloc_5,prob20hthp_12trials.xlsx,2,24,20,80,0,,,,,0,4,4,4,0,1,1,5,,,,,,,,3.2,914.9169363999972,918.1217007999949,918.1217826299865,0.30493440000282135,918.5657783999923,918.5657783999923,n,921.0699584999966,921.0699584999966,13,1.884,0.5377621999941766,,,,,sub-063,55,110,700,bloc_loop.csv,2023-10-26_10h45.43.220,PainUncertainty,2022.2.5,142.99584883198509,
grave,forte,stimuli/330Hz,stimuli/forte,bloc_5,prob20hthp_12trials.xlsx,2,24,20,80,0,,,,,0,4,4,4,0,2,2,2,,,,,,,,3.2,921.0699584999966,924.2752461999917,924.2753137299908,0.30500959999335464,924.7210941999947,924.7210941999947,m,926.1670870999951,926.1670870999951,50,0.781,0.5905487999989418,,,,,sub-063,55,110,700,bloc_loop.csv,2023-10-26_10h45.43.220,PainUncertainty,2022.2.5,142.99584883198509,
aigu,moderee,stimuli/660Hz,stimuli/moderee,bloc_5,prob20hthp_12trials.xlsx,2,24,20,80,0,,,,,0,4,4,4,0,3,3,10,,,,,,,,3.6,926.1670870999951,929.7689645999926,929.7688624299947,0.3053564000001643,930.2156225999934,930.2156225999934,n,932.3826134999981,932.3826134999981,13,1.502,0.6082702999992762,,,,,sub-063,55,110,700,bloc_loop.csv,2023-10-26_10h45.43.220,PainUncertainty,2022.2.5,142.99584883198509,
aigu,moderee,stimuli/660Hz,stimuli/moderee,bloc_5,prob20hthp_12trials.xlsx,2,24,20,80,0,,,,,0,4,4,4,0,4,4,7,,,,,,,,3.4,932.3826134999981,935.7834579999908,935.7834460299957,0.30504500000097323,936.2278160999995,936.2278160999995,n,938.0562687999918,938.0562687999918,10,0.707,1.0540502999938326,,,,,sub-063,55,110,700,bloc_loop.csv,2023-10-26_10h45.43.220,PainUncertainty,2022.2.5,142.99584883198509,
grave,forte,stimuli/330Hz,stimuli/forte,bloc_5,prob20hthp_12trials.xlsx,2,24,20,80,0,,,,,0,4,4,4,0,5,5,3,,,,,,,,4.1,938.0562687999918,942.1591972999886,942.159244629994,0.2991336999984924,942.5975600999955,942.5975600999955,m,944.8961341999966,944.8961341999966,44,1.599,0.6293966999946861,,,,,sub-063,55,110,700,bloc_loop.csv,2023-10-26_10h45.43.220,PainUncertainty,2022.2.5,142.99584883198509,
aigu,moderee,stimuli/660Hz,stimuli/moderee,bloc_5,prob20hthp_12trials.xlsx,2,24,20,80,0,,,,,0,4,4,4,0,6,6,8,,,,,,,,4.2,944.8961341999966,949.0975394999987,949.0975611299975,0.3052307000034489,949.5422290999995,949.5422290999995,n,951.2560232999967,951.2560232999967,10,0.697,0.9399029000051087,,,,,sub-063,55,110,700,bloc_loop.csv,2023-10-26_10h45.43.220,PainUncertainty,2022.2.5,142.99584883198509,
grave,forte,stimuli/330Hz,stimuli/forte,bloc_5,prob20hthp_12trials.xlsx,2,24,20,80,0,,,,,0,4,4,4,0,7,7,1,,,,,,,,4.5,951.2560232999967,955.7580764999875,955.7581743299991,0.3049776000116253,956.2048991999909,956.2048991999909,m,959.0052837999974,959.0052837999974,46,1.781,0.9560453000012785,,,,,sub-063,55,110,700,bloc_loop.csv,2023-10-26_10h45.43.220,PainUncertainty,2022.2.5,142.99584883198509,
aigu,forte,stimuli/660Hz,stimuli/forte,bloc_5,prob20hthp_12trials.xlsx,2,24,20,80,0,,,,,0,4,4,4,0,8,8,11,,,,,,,,3.2,959.0052837999974,962.2101804999984,962.2102106299892,0.30522259999997914,962.6551291999931,962.6551291999931,m,965.7478813999915,965.7478813999915,47,2.412,0.6152422000013757,,,,,sub-063,55,110,700,bloc_loop.csv,2023-10-26_10h45.43.220,PainUncertainty,2022.2.5,142.99584883198509,
grave,forte,stimuli/330Hz,stimuli/forte,bloc_5,prob20hthp_12trials.xlsx,2,24,20,80,0,,,,,0,4,4,4,0,9,9,4,,,,,,,,3.8,965.7478813999915,969.5517909999908,969.551676129998,0.3057794000051217,970.0001300999866,970.0001300999866,m,972.4756093999895,972.4756093999895,47,1.817,0.6058673999941675,,,,,sub-063,55,110,700,bloc_loop.csv,2023-10-26_10h45.43.220,PainUncertainty,2022.2.5,142.99584883198509,
grave,forte,stimuli/330Hz,stimuli/forte,bloc_5,prob20hthp_12trials.xlsx,2,24,20,80,0,,,,,0,4,4,4,0,10,10,0,,,,,,,,3.6,972.4756093999895,976.0799278999912,976.0800630299957,0.30149700000765733,976.5243990999879,976.5243990999879,m,979.173120499996,979.173120499996,45,1.587,0.9878064000076847,,,,,sub-063,55,110,700,bloc_loop.csv,2023-10-26_10h45.43.220,PainUncertainty,2022.2.5,142.99584883198509,
aigu,moderee,stimuli/660Hz,stimuli/moderee,bloc_5,prob20hthp_12trials.xlsx,2,24,20,80,0,,,,,0,4,4,4,0,11,11,6,,,,,,,,3,979.173120499996,982.1783135999867,982.1783834299888,0.3050673999969149,982.6270375999884,982.6270375999884,n,983.7413528999896,983.7413528999896,10,0.65,0.40460609999718145,,,,,sub-063,55,110,700,bloc_loop.csv,2023-10-26_10h45.43.220,PainUncertainty,2022.2.5,142.99584883198509,
grave,moderee,stimuli/330Hz,stimuli/moderee,bloc_5,prob20hthp_12trials.xlsx,2,24,20,80,0,,,,,0,4,4,4,1,0,12,5,,,,,,,,3.5,983.7413528999896,987.2409934999887,987.2409516299988,0.3051777999935439,987.6851274999935,987.6851274999935,n,988.9208721999894,988.9208721999894,10,0.656,0.5140796000050614,,,,,sub-063,55,110,700,bloc_loop.csv,2023-10-26_10h45.43.220,PainUncertainty,2022.2.5,142.99584883198509,
aigu,moderee,stimuli/660Hz,stimuli/moderee,bloc_5,prob20hthp_12trials.xlsx,2,24,20,80,0,,,,,0,4,4,4,1,1,13,9,,,,,,,,3.7,988.9208721999894,992.6237379999948,992.6237813299988,0.30485739999858197,993.0678295999969,993.0678295999969,n,995.5519478999922,995.5519478999922,8,1.322,1.082523899996886,,,,,sub-063,55,110,700,bloc_loop.csv,2023-10-26_10h45.43.220,PainUncertainty,2022.2.5,142.99584883198509,
grave,forte,stimuli/330Hz,stimuli/forte,bloc_5,prob20hthp_12trials.xlsx,2,24,20,80,0,,,,,0,4,4,4,1,2,14,2,,,,,,,,3.2,995.5519478999922,998.7563947999879,998.7564242299879,0.30492450000019744,999.200681199989,999.200681199989,m,1003.3501801999955,1003.3501801999955,46,3.247,0.8203985000000102,,,,,sub-063,55,110,700,bloc_loop.csv,2023-10-26_10h45.43.220,PainUncertainty,2022.2.5,142.99584883198509,
aigu,moderee,stimuli/660Hz,stimuli/moderee,bloc_5,prob20hthp_12trials.xlsx,2,24,20,80,0,,,,,0,4,4,4,1,3,15,6,,,,,,,,3.9,1003.3501801999955,1007.2503142999922,1007.2504415299948,0.3049518000043463,1007.6945990999957,1007.6945990999957,n,1010.4286492999963,1010.4286492999963,13,2.079,0.5900383999978658,,,,,sub-063,55,110,700,bloc_loop.csv,2023-10-26_10h45.43.220,PainUncertainty,2022.2.5,142.99584883198509,
aigu,moderee,stimuli/660Hz,stimuli/moderee,bloc_5,prob20hthp_12trials.xlsx,2,24,20,80,0,,,,,0,4,4,4,1,4,16,7,,,,,,,,4.5,1010.4286492999963,1014.932298899992,1014.9321365299868,0.3049390000087442,1015.3762442000007,1015.3762442000007,n,1016.8689321999991,1016.8689321999991,10,0.702,0.7163469000079203,,,,,sub-063,55,110,700,bloc_loop.csv,2023-10-26_10h45.43.220,PainUncertainty,2022.2.5,142.99584883198509,
grave,forte,stimuli/330Hz,stimuli/forte,bloc_5,prob20hthp_12trials.xlsx,2,24,20,80,0,,,,,0,4,4,4,1,5,17,1,,,,,,,,4.2,1016.8689321999991,1021.0717620999931,1021.0719073299872,0.3002641999919433,1021.516175599987,1021.516175599987,m,1023.3553612999967,1023.3553612999967,45,1.212,0.571394099999452,,,,,sub-063,55,110,700,bloc_loop.csv,2023-10-26_10h45.43.220,PainUncertainty,2022.2.5,142.99584883198509,
grave,forte,stimuli/330Hz,stimuli/forte,bloc_5,prob20hthp_12trials.xlsx,2,24,20,80,0,,,,,0,4,4,4,1,6,18,4,,,,,,,,4.6,1023.3553612999967,1027.9545504999987,1027.9547446299869,0.3047359000047436,1028.3983926999936,1028.3983926999936,m,1030.4184701999911,1030.4184701999911,44,1.368,0.593516200009617,,,,,sub-063,55,110,700,bloc_loop.csv,2023-10-26_10h45.43.220,PainUncertainty,2022.2.5,142.99584883198509,
grave,forte,stimuli/330Hz,stimuli/forte,bloc_5,prob20hthp_12trials.xlsx,2,24,20,80,0,,,,,0,4,4,4,1,7,19,3,,,,,,,,3.3,1030.4184701999911,1033.7187223999936,1033.7187685299898,0.301368000000366,1034.1634264999884,1034.1634264999884,m,1035.7093495000008,1035.7093495000008,46,0.988,0.48331109998980537,,,,,sub-063,55,110,700,bloc_loop.csv,2023-10-26_10h45.43.220,PainUncertainty,2022.2.5,142.99584883198509,
aigu,moderee,stimuli/660Hz,stimuli/moderee,bloc_5,prob20hthp_12trials.xlsx,2,24,20,80,0,,,,,0,4,4,4,1,8,20,10,,,,,,,,4.8,1035.7093495000008,1040.511192799997,1040.5112167299988,0.30513509998854715,1040.9593468999956,1040.9593468999956,n,1044.641796099997,1044.641796099997,12,3.136,0.4709690000017872,,,,,sub-063,55,110,700,bloc_loop.csv,2023-10-26_10h45.43.220,PainUncertainty,2022.2.5,142.99584883198509,
grave,forte,stimuli/330Hz,stimuli/forte,bloc_5,prob20hthp_12trials.xlsx,2,24,20,80,0,,,,,0,4,4,4,1,9,21,0,,,,,,,,3,1044.641796099997,1047.6439941999997,1047.6441023299878,0.3046372000098927,1048.0882031999936,1048.0882031999936,m,1049.964009999996,1049.964009999996,45,1.191,0.6158012999949278,,,,,sub-063,55,110,700,bloc_loop.csv,2023-10-26_10h45.43.220,PainUncertainty,2022.2.5,142.99584883198509,
aigu,moderee,stimuli/660Hz,stimuli/moderee,bloc_5,prob20hthp_12trials.xlsx,2,24,20,80,0,,,,,0,4,4,4,1,10,22,8,,,,,,,,3.8,1049.964009999996,1053.7698338999908,1053.769795329997,0.3014646000083303,1054.2144102999882,1054.2144102999882,n,1055.9720448000007,1055.9720448000007,14,1.17,0.5028232000040589,,,,,sub-063,55,110,700,bloc_loop.csv,2023-10-26_10h45.43.220,PainUncertainty,2022.2.5,142.99584883198509,
aigu,forte,stimuli/660Hz,stimuli/forte,bloc_5,prob20hthp_12trials.xlsx,2,24,20,80,0,,,,,0,4,4,4,1,11,23,11,,,,,,,,4.1,1055.9720448000007,1060.0759508999909,1060.0759888299974,0.3051689999992959,1060.5201308999967,1060.5201308999967,m,1063.4807383999869,1063.4807383999869,46,1.78,1.092663099989295,,,,,sub-063,55,110,700,bloc_loop.csv,2023-10-26_10h45.43.220,PainUncertainty,2022.2.5,142.99584883198509,
aigu,moderee,stimuli/660Hz,stimuli/moderee,bloc_6,prob50_50_4trials.xlsx,2,8,50,50,0,,,,,0,5,5,5,0,0,0,2,,,,,,,,3.5,1063.4807383999869,1066.9865284999978,1066.9865874299896,0.3054011999920476,1067.4312418999907,1067.4312418999907,n,1071.9496037999925,1071.9496037999925,12,3.913,0.5309621000051266,,,,,sub-063,55,110,700,bloc_loop.csv,2023-10-26_10h45.43.220,PainUncertainty,2022.2.5,142.99584883198509,
grave,forte,stimuli/330Hz,stimuli/forte,bloc_6,prob50_50_4trials.xlsx,2,8,50,50,0,,,,,0,5,5,5,0,1,1,1,,,,,,,,4.6,1071.9496037999925,1076.550132599994,1076.550281629988,0.30528899999626447,1076.9944742999942,1076.9944742999942,m,1079.621834199992,1079.621834199992,42,1.533,1.0132796000107192,,,,,sub-063,55,110,700,bloc_loop.csv,2023-10-26_10h45.43.220,PainUncertainty,2022.2.5,142.99584883198509,
grave,moderee,stimuli/330Hz,stimuli/moderee,bloc_6,prob50_50_4trials.xlsx,2,8,50,50,0,,,,,0,5,5,5,0,2,2,0,,,,,,,,3.3,1079.621834199992,1082.9259677999944,1082.925994329987,0.3051370000030147,1083.3700727999967,1083.3700727999967,n,1085.0708526999952,1085.0708526999952,10,0.795,0.8237940999970306,,,,,sub-063,55,110,700,bloc_loop.csv,2023-10-26_10h45.43.220,PainUncertainty,2022.2.5,142.99584883198509,
aigu,forte,stimuli/660Hz,stimuli/forte,bloc_6,prob50_50_4trials.xlsx,2,8,50,50,0,,,,,0,5,5,5,0,3,3,3,,,,,,,,4.2,1085.0708526999952,1089.273989399997,1089.273864029997,0.3052289000042947,1089.7180777999893,1089.7180777999893,n,1096.3028327999928,1096.3028327999928,45,5.941,0.5825070999999298,,,,,sub-063,55,110,700,bloc_loop.csv,2023-10-26_10h45.43.220,PainUncertainty,2022.2.5,142.99584883198509,
aigu,forte,stimuli/660Hz,stimuli/forte,bloc_6,prob50_50_4trials.xlsx,2,8,50,50,0,,,,,0,5,5,5,1,0,4,3,,,,,,,,4.4,1096.3028327999928,1100.7058454999933,1100.7058186299867,0.30519009999989066,1101.1499087999982,1101.1499087999982,m,1104.2306222999905,1104.2306222999905,46,2.28,0.7347292000049492,,,,,sub-063,55,110,700,bloc_loop.csv,2023-10-26_10h45.43.220,PainUncertainty,2022.2.5,142.99584883198509,
grave,forte,stimuli/330Hz,stimuli/forte,bloc_6,prob50_50_4trials.xlsx,2,8,50,50,0,,,,,0,5,5,5,1,1,5,1,,,,,,,,3.1,1104.2306222999905,1107.33166299999,1107.3316776299937,0.3051891000068281,1107.7762015999906,1107.7762015999906,m,1110.2535427999974,1110.2535427999974,46,1.72,0.6463110000040615,,,,,sub-063,55,110,700,bloc_loop.csv,2023-10-26_10h45.43.220,PainUncertainty,2022.2.5,142.99584883198509,
grave,moderee,stimuli/330Hz,stimuli/moderee,bloc_6,prob50_50_4trials.xlsx,2,8,50,50,0,,,,,0,5,5,5,1,2,6,0,,,,,,,,5,1110.2535427999974,1115.2565933999867,1115.2566786299897,0.3049613000039244,1115.7041488999967,1115.7041488999967,n,1116.9962763999938,1116.9962763999938,10,0.678,0.555724600009853,,,,,sub-063,55,110,700,bloc_loop.csv,2023-10-26_10h45.43.220,PainUncertainty,2022.2.5,142.99584883198509,
aigu,moderee,stimuli/660Hz,stimuli/moderee,bloc_6,prob50_50_4trials.xlsx,2,8,50,50,0,,,,,0,5,5,5,1,3,7,2,,,,,,,,4.6,1116.9962763999938,1121.5978914000007,1121.5975820299966,0.3049404999910621,1122.0414143999951,1122.0414143999951,n,1126.666193699988,1126.666193699988,11,2.606,1.9478541999997105,,,,,sub-063,55,110,700,bloc_loop.csv,2023-10-26_10h45.43.220,PainUncertainty,2022.2.5,142.99584883198509,
aigu,moderee,stimuli/660Hz,stimuli/moderee,bloc_7,prob80hthp_12trials.xlsx,2,24,80,20,1,,,,,0,6,6,6,0,0,0,11,,,,,,,,4.6,1126.666193699988,1131.2719915999915,1131.272174629997,0.30472450000524987,1131.7161398999888,1131.7161398999888,None,1136.18884599999,1136.18884599999,13,1.963,,1134.1835256999912,1134.1835256999912,,,sub-063,55,110,700,bloc_loop.csv,2023-10-26_10h45.43.220,PainUncertainty,2022.2.5,142.99584883198509,
aigu,forte,stimuli/660Hz,stimuli/forte,bloc_7,prob80hthp_12trials.xlsx,2,24,80,20,1,,,,,0,6,6,6,0,1,1,6,,,,,,,,3.8,1136.18884599999,1139.98823979999,1139.9882093299996,0.30520550000073854,1140.436804699988,1140.436804699988,m,1142.547905799991,1142.547905799991,48,1.433,0.6252945000014734,,,,,sub-063,55,110,700,bloc_loop.csv,2023-10-26_10h45.43.220,PainUncertainty,2022.2.5,142.99584883198509,
aigu,forte,stimuli/660Hz,stimuli/forte,bloc_7,prob80hthp_12trials.xlsx,2,24,80,20,1,,,,,0,6,6,6,0,2,2,10,,,,,,,,4.9,1142.547905799991,1147.4474808999948,1147.4475491299993,0.30152609999640845,1147.8920821999927,1147.8920821999927,m,1149.932365799992,1149.932365799992,49,1.189,0.7792209000035655,,,,,sub-063,55,110,700,bloc_loop.csv,2023-10-26_10h45.43.220,PainUncertainty,2022.2.5,142.99584883198509,
grave,moderee,stimuli/330Hz,stimuli/moderee,bloc_7,prob80hthp_12trials.xlsx,2,24,80,20,1,,,,,0,6,6,6,0,3,3,1,,,,,,,,3.5,1149.932365799992,1153.434306199997,1153.4342808299873,0.30515179999929387,1153.878435199993,1153.878435199993,n,1155.9091972999886,1155.9091972999886,12,1.226,0.726106100002653,,,,,sub-063,55,110,700,bloc_loop.csv,2023-10-26_10h45.43.220,PainUncertainty,2022.2.5,142.99584883198509,
aigu,forte,stimuli/660Hz,stimuli/forte,bloc_7,prob80hthp_12trials.xlsx,2,24,80,20,1,,,,,0,6,6,6,0,4,4,9,,,,,,,,4.7,1155.9091972999886,1160.6087485999888,1160.6087529299868,0.3053439000068465,1161.052879099996,1161.052879099996,m,1163.8828424999956,1163.8828424999956,47,2.011,0.7474728999950457,,,,,sub-063,55,110,700,bloc_loop.csv,2023-10-26_10h45.43.220,PainUncertainty,2022.2.5,142.99584883198509,
grave,moderee,stimuli/330Hz,stimuli/moderee,bloc_7,prob80hthp_12trials.xlsx,2,24,80,20,1,,,,,0,6,6,6,0,5,5,3,,,,,,,,4.3,1163.8828424999956,1168.186092799995,1168.1860462299985,0.3050948000018252,1168.6301855999918,1168.6301855999918,n,1172.4323750999902,1172.4323750999902,12,2.925,0.7936250000057044,,,,,sub-063,55,110,700,bloc_loop.csv,2023-10-26_10h45.43.220,PainUncertainty,2022.2.5,142.99584883198509,
aigu,forte,stimuli/660Hz,stimuli/forte,bloc_7,prob80hthp_12trials.xlsx,2,24,80,20,1,,,,,0,6,6,6,0,6,6,7,,,,,,,,5,1172.4323750999902,1177.4373339999875,1177.4371462299925,0.3050433000025805,1177.8814507999923,1177.8814507999923,m,1181.7468346999958,1181.7468346999958,48,2.782,1.0219855000032112,,,,,sub-063,55,110,700,bloc_loop.csv,2023-10-26_10h45.43.220,PainUncertainty,2022.2.5,142.99584883198509,
aigu,forte,stimuli/660Hz,stimuli/forte,bloc_7,prob80hthp_12trials.xlsx,2,24,80,20,1,,,,,0,6,6,6,0,7,7,8,,,,,,,,4.6,1181.7468346999958,1186.3482312999986,1186.3485226299993,0.2996444000018528,1186.792364199995,1186.792364199995,m,1189.5943775999913,1189.5943775999913,48,1.526,1.1998377999989316,,,,,sub-063,55,110,700,bloc_loop.csv,2023-10-26_10h45.43.220,PainUncertainty,2022.2.5,142.99584883198509,
grave,moderee,stimuli/330Hz,stimuli/moderee,bloc_7,prob80hthp_12trials.xlsx,2,24,80,20,1,,,,,0,6,6,6,0,8,8,0,,,,,,,,3.2,1189.5943775999913,1192.793552499992,1192.7935128299898,0.30530210000870284,1193.2411992999987,1193.2411992999987,n,1195.39497329999,1195.39497329999,11,1.553,0.5197833999991417,,,,,sub-063,55,110,700,bloc_loop.csv,2023-10-26_10h45.43.220,PainUncertainty,2022.2.5,142.99584883198509,
grave,forte,stimuli/330Hz,stimuli/forte,bloc_7,prob80hthp_12trials.xlsx,2,24,80,20,1,,,,,0,6,6,6,0,9,9,5,,,,,,,,3.2,1195.39497329999,1198.5994009999995,1198.5993886299868,0.30507639999268577,1199.0434995999967,1199.0434995999967,m,1201.7389796999923,1201.7389796999923,46,1.586,1.0393096000043442,,,,,sub-063,55,110,700,bloc_loop.csv,2023-10-26_10h45.43.220,PainUncertainty,2022.2.5,142.99584883198509,
grave,moderee,stimuli/330Hz,stimuli/moderee,bloc_7,prob80hthp_12trials.xlsx,2,24,80,20,1,,,,,0,6,6,6,0,10,10,4,,,,,,,,3.3,1201.7389796999923,1205.0445291999931,1205.0446902299911,0.30481879999570083,1205.4910990999924,1205.4910990999924,n,1210.5753020999982,1210.5753020999982,10,3.169,1.8567182999977376,,,,,sub-063,55,110,700,bloc_loop.csv,2023-10-26_10h45.43.220,PainUncertainty,2022.2.5,142.99584883198509,
grave,moderee,stimuli/330Hz,stimuli/moderee,bloc_7,prob80hthp_12trials.xlsx,2,24,80,20,1,,,,,0,6,6,6,0,11,11,2,,,,,,,,4.1,1210.5753020999982,1214.677621099996,1214.6777308299963,0.3049991999869235,1215.1220341000007,1215.1220341000007,n,1216.9663922999898,1216.9663922999898,8,1.107,0.6790682999999262,,,,,sub-063,55,110,700,bloc_loop.csv,2023-10-26_10h45.43.220,PainUncertainty,2022.2.5,142.99584883198509,
aigu,moderee,stimuli/660Hz,stimuli/moderee,bloc_7,prob80hthp_12trials.xlsx,2,24,80,20,1,,,,,0,6,6,6,1,0,12,11,,,,,,,,4,1216.9663922999898,1220.9701088000002,1220.970157529987,0.3050939000095241,1221.4179199999926,1221.4179199999926,n,1224.2073500999977,1224.2073500999977,9,1.426,1.2953462000004947,,,,,sub-063,55,110,700,bloc_loop.csv,2023-10-26_10h45.43.220,PainUncertainty,2022.2.5,142.99584883198509,
aigu,forte,stimuli/660Hz,stimuli/forte,bloc_7,prob80hthp_12trials.xlsx,2,24,80,20,1,,,,,0,6,6,6,1,1,13,6,,,,,,,,4.5,1224.2073500999977,1228.7076783999946,1228.7075090299943,0.30515259999083355,1229.1552722999913,1229.1552722999913,m,1231.0763450999948,1231.0763450999948,47,1.233,0.6093748999992386,,,,,sub-063,55,110,700,bloc_loop.csv,2023-10-26_10h45.43.220,PainUncertainty,2022.2.5,142.99584883198509,
grave,moderee,stimuli/330Hz,stimuli/moderee,bloc_7,prob80hthp_12trials.xlsx,2,24,80,20,1,,,,,0,6,6,6,1,2,14,0,,,,,,,,4.4,1231.0763450999948,1235.4792977999896,1235.4793698299939,0.3047032000031322,1235.9232365999924,1235.9232365999924,n,1240.0421816999879,1240.0421816999879,11,3.594,0.470473099994706,,,,,sub-063,55,110,700,bloc_loop.csv,2023-10-26_10h45.43.220,PainUncertainty,2022.2.5,142.99584883198509,
grave,moderee,stimuli/330Hz,stimuli/moderee,bloc_7,prob80hthp_12trials.xlsx,2,24,80,20,1,,,,,0,6,6,6,1,3,15,3,,,,,,,,4.8,1240.0421816999879,1244.8413115000003,1244.8414919300005,0.3045048000058159,1245.2852853999939,1245.2852853999939,n,1246.6244679999945,1246.6244679999945,10,0.745,0.5361287999985507,,,,,sub-063,55,110,700,bloc_loop.csv,2023-10-26_10h45.43.220,PainUncertainty,2022.2.5,142.99584883198509,
grave,moderee,stimuli/330Hz,stimuli/moderee,bloc_7,prob80hthp_12trials.xlsx,2,24,80,20,1,,,,,0,6,6,6,1,4,16,4,,,,,,,,3,1246.6244679999945,1249.6264152999938,1249.6264105299954,0.3048791000037454,1250.0704146999924,1250.0704146999924,n,1254.0406252999965,1254.0406252999965,8,3.407,0.514541199998348,,,,,sub-063,55,110,700,bloc_loop.csv,2023-10-26_10h45.43.220,PainUncertainty,2022.2.5,142.99584883198509,
grave,moderee,stimuli/330Hz,stimuli/moderee,bloc_7,prob80hthp_12trials.xlsx,2,24,80,20,1,,,,,0,6,6,6,1,5,17,2,,,,,,,,3.5,1254.0406252999965,1257.5443705999933,1257.5446110299993,0.30021130001114216,1257.9880712999875,1257.9880712999875,n,1260.7843479000003,1260.7843479000003,9,2.184,0.533942099995329,,,,,sub-063,55,110,700,bloc_loop.csv,2023-10-26_10h45.43.220,PainUncertainty,2022.2.5,142.99584883198509,
aigu,forte,stimuli/660Hz,stimuli/forte,bloc_7,prob80hthp_12trials.xlsx,2,24,80,20,1,,,,,0,6,6,6,1,6,18,9,,,,,,,,3.4,1260.7843479000003,1264.184140799989,1264.1839503299882,0.3048369000025559,1264.6278373999958,1264.6278373999958,m,1267.6714432000008,1267.6714432000008,50,1.727,1.2639167000015732,,,,,sub-063,55,110,700,bloc_loop.csv,2023-10-26_10h45.43.220,PainUncertainty,2022.2.5,142.99584883198509,
grave,forte,stimuli/330Hz,stimuli/forte,bloc_7,prob80hthp_12trials.xlsx,2,24,80,20,1,,,,,0,6,6,6,1,7,19,5,,,,,,,,3.7,1267.6714432000008,1271.3732140999928,1271.3722830299987,0.30490540000027977,1271.8161999999866,1271.8161999999866,m,1274.765435399997,1274.765435399997,45,2.058,0.8389334999956191,,,,,sub-063,55,110,700,bloc_loop.csv,2023-10-26_10h45.43.220,PainUncertainty,2022.2.5,142.99584883198509,
aigu,forte,stimuli/660Hz,stimuli/forte,bloc_7,prob80hthp_12trials.xlsx,2,24,80,20,1,,,,,0,6,6,6,1,8,20,10,,,,,,,,3,1274.765435399997,1277.7684611000004,1277.7684187299922,0.3052542000077665,1278.2127062999934,1278.2127062999934,m,1281.0132395999972,1281.0132395999972,47,2.135,0.611219099999289,,,,,sub-063,55,110,700,bloc_loop.csv,2023-10-26_10h45.43.220,PainUncertainty,2022.2.5,142.99584883198509,
aigu,forte,stimuli/660Hz,stimuli/forte,bloc_7,prob80hthp_12trials.xlsx,2,24,80,20,1,,,,,0,6,6,6,1,9,21,8,,,,,,,,4.5,1281.0132395999972,1285.512893399995,1285.5128892299865,0.30541999998968095,1285.9604980999866,1285.9604980999866,m,1288.0124458999926,1288.0124458999926,49,1.517,0.4677564000012353,,,,,sub-063,55,110,700,bloc_loop.csv,2023-10-26_10h45.43.220,PainUncertainty,2022.2.5,142.99584883198509,
grave,moderee,stimuli/330Hz,stimuli/moderee,bloc_7,prob80hthp_12trials.xlsx,2,24,80,20,1,,,,,0,6,6,6,1,10,22,1,,,,,,,,4.4,1288.0124458999926,1292.4160883000004,1292.4161250299978,0.3054363000119338,1292.8629471999884,1292.8629471999884,n,1297.5858413999958,1297.5858413999958,9,4.059,0.5871188000019174,,,,,sub-063,55,110,700,bloc_loop.csv,2023-10-26_10h45.43.220,PainUncertainty,2022.2.5,142.99584883198509,
aigu,forte,stimuli/660Hz,stimuli/forte,bloc_7,prob80hthp_12trials.xlsx,2,24,80,20,1,,,,,0,6,6,6,1,11,23,7,,,,,,,,4.7,1297.5858413999958,1302.2852236999897,1302.2853131299955,0.30516249999345746,1302.7294085999893,1302.7294085999893,m,1307.6288570999895,1307.6288570999895,46,2.213,0.65397220000159,,,,,sub-063,55,110,700,bloc_loop.csv,2023-10-26_10h45.43.220,PainUncertainty,2022.2.5,142.99584883198509,
,,,,bloc_7,prob80hthp_12trials.xlsx,2,24,80,20,1,,,,,0,6,6,6,,,,,0,0,0,0,,,,,,,,,,,,,,,,,,,1307.6288570999895,1400.9566147000005,sub-063,55,110,700,bloc_loop.csv,2023-10-26_10h45.43.220,PainUncertainty,2022.2.5,142.99584883198509,
grave,moderee,stimuli/330Hz,stimuli/moderee,bloc_8,prob50_50_4trials.xlsx,3,12,50,50,0,,,,,0,7,7,7,0,0,0,0,,,,,,,,5,1402.6384891999915,1407.6380236999976,1407.63827762999,0.3047772999998415,1408.0821519999881,1408.0821519999881,n,1410.9290571999882,1410.9290571999882,11,2.157,0.6315310000063619,,,,,sub-063,55,110,700,bloc_loop.csv,2023-10-26_10h45.43.220,PainUncertainty,2022.2.5,142.99584883198509,
aigu,moderee,stimuli/660Hz,stimuli/moderee,bloc_8,prob50_50_4trials.xlsx,3,12,50,50,0,,,,,0,7,7,7,0,1,1,2,,,,,,,,4.7,1410.9290571999882,1415.631957199992,1415.6319804299885,0.30521170000429265,1416.0761653999944,1416.0761653999944,n,1419.335899400001,1419.335899400001,9,2.635,0.5452765000081854,,,,,sub-063,55,110,700,bloc_loop.csv,2023-10-26_10h45.43.220,PainUncertainty,2022.2.5,142.99584883198509,
grave,forte,stimuli/330Hz,stimuli/forte,bloc_8,prob50_50_4trials.xlsx,3,12,50,50,0,,,,,0,7,7,7,0,2,2,1,,,,,,,,3.9,1419.335899400001,1423.2375344999891,1423.2375441299985,0.3051021999999648,1423.6850446999888,1423.6850446999888,m,1425.7900950999901,1425.7900950999901,50,1.579,0.46492960001342,,,,,sub-063,55,110,700,bloc_loop.csv,2023-10-26_10h45.43.220,PainUncertainty,2022.2.5,142.99584883198509,
aigu,forte,stimuli/660Hz,stimuli/forte,bloc_8,prob50_50_4trials.xlsx,3,12,50,50,0,,,,,0,7,7,7,0,3,3,3,,,,,,,,4.7,1425.7900950999901,1430.4953665999928,1430.495444929987,0.3047301000042353,1430.9394634999917,1430.9394634999917,m,1434.2930286999908,1434.2930286999908,47,2.059,1.224536800000351,,,,,sub-063,55,110,700,bloc_loop.csv,2023-10-26_10h45.43.220,PainUncertainty,2022.2.5,142.99584883198509,
grave,forte,stimuli/330Hz,stimuli/forte,bloc_8,prob50_50_4trials.xlsx,3,12,50,50,0,,,,,0,7,7,7,1,0,4,1,,,,,,,,3.7,1434.2930286999908,1437.9960515999992,1437.9960094299925,0.30491920000349637,1438.4437064999947,1438.4437064999947,m,1439.7566449999867,1439.7566449999867,50,0.692,0.5710124999895925,,,,,sub-063,55,110,700,bloc_loop.csv,2023-10-26_10h45.43.220,PainUncertainty,2022.2.5,142.99584883198509,
aigu,forte,stimuli/660Hz,stimuli/forte,bloc_8,prob50_50_4trials.xlsx,3,12,50,50,0,,,,,0,7,7,7,1,1,5,3,,,,,,,,4.1,1439.7566449999867,1443.8576025999937,1443.8576289299992,0.30507100000977516,1444.3018617999915,1444.3018617999915,m,1447.4585197999986,1447.4585197999986,47,1.99,1.0958150000078604,,,,,sub-063,55,110,700,bloc_loop.csv,2023-10-26_10h45.43.220,PainUncertainty,2022.2.5,142.99584883198509,
grave,moderee,stimuli/330Hz,stimuli/moderee,bloc_8,prob50_50_4trials.xlsx,3,12,50,50,0,,,,,0,7,7,7,1,2,6,0,,,,,,,,4.2,1447.4585197999986,1451.6640673999937,1451.664158429997,0.30499049999343697,1452.108239299996,1452.108239299996,n,1455.5769569999975,1455.5769569999975,11,2.879,0.5381905999965966,,,,,sub-063,55,110,700,bloc_loop.csv,2023-10-26_10h45.43.220,PainUncertainty,2022.2.5,142.99584883198509,
aigu,moderee,stimuli/660Hz,stimuli/moderee,bloc_8,prob50_50_4trials.xlsx,3,12,50,50,0,,,,,0,7,7,7,1,3,7,2,,,,,,,,4.1,1455.5769569999975,1459.6788706999941,1459.6789478299936,0.30535779999627266,1460.126751399992,1460.126751399992,n,1462.0965403999871,1462.0965403999871,8,1.393,0.5164040999952704,,,,,sub-063,55,110,700,bloc_loop.csv,2023-10-26_10h45.43.220,PainUncertainty,2022.2.5,142.99584883198509,
aigu,moderee,stimuli/660Hz,stimuli/moderee,bloc_8,prob50_50_4trials.xlsx,3,12,50,50,0,,,,,0,7,7,7,2,0,8,2,,,,,,,,3.8,1462.0965403999871,1465.9020366999903,1465.9020231299976,0.29927450000832323,1466.3427152999939,1466.3427152999939,n,1468.7278770999983,1468.7278770999983,10,1.859,0.4708404000120936,,,,,sub-063,55,110,700,bloc_loop.csv,2023-10-26_10h45.43.220,PainUncertainty,2022.2.5,142.99584883198509,
grave,moderee,stimuli/330Hz,stimuli/moderee,bloc_8,prob50_50_4trials.xlsx,3,12,50,50,0,,,,,0,7,7,7,2,1,9,0,,,,,,,,4.2,1468.7278770999983,1472.9308147999982,1472.9308326299972,0.30130940000526607,1473.375183199998,1473.375183199998,n,1477.1203968999907,1477.1203968999907,9,3.164,0.49739709999994375,,,,,sub-063,55,110,700,bloc_loop.csv,2023-10-26_10h45.43.220,PainUncertainty,2022.2.5,142.99584883198509,
aigu,forte,stimuli/660Hz,stimuli/forte,bloc_8,prob50_50_4trials.xlsx,3,12,50,50,0,,,,,0,7,7,7,2,2,10,3,,,,,,,,3.6,1477.1203968999907,1480.7232872999884,1480.72333412999,0.299119300005259,1481.16585759999,1481.16585759999,m,1483.303046999994,1483.303046999994,44,1.573,0.5021842999994988,,,,,sub-063,55,110,700,bloc_loop.csv,2023-10-26_10h45.43.220,PainUncertainty,2022.2.5,142.99584883198509,
grave,forte,stimuli/330Hz,stimuli/forte,bloc_8,prob50_50_4trials.xlsx,3,12,50,50,0,,,,,0,7,7,7,2,3,11,1,,,,,,,,3.1,1483.303046999994,1486.4043061999982,1486.404315829993,0.3051409000036074,1486.8484888999956,1486.8484888999956,m,1489.1198337999958,1489.1198337999958,46,1.725,0.4720110000052955,,,,,sub-063,55,110,700,bloc_loop.csv,2023-10-26_10h45.43.220,PainUncertainty,2022.2.5,142.99584883198509,
aigu,moderee,stimuli/660Hz,stimuli/moderee,bloc_9,prob20hthp_12trials.xlsx,3,36,80,20,0,,,,,0,8,8,8,0,0,0,8,,,,,,,,4.6,1489.1198337999958,1493.7251025000005,1493.7253245299974,0.3042367000016384,1494.1689890999987,1494.1689890999987,n,1495.3029364999966,1495.3029364999966,10,0.642,0.4219367999903625,,,,,sub-063,55,110,700,bloc_loop.csv,2023-10-26_10h45.43.220,PainUncertainty,2022.2.5,142.99584883198509,
aigu,forte,stimuli/660Hz,stimuli/forte,bloc_9,prob20hthp_12trials.xlsx,3,36,80,20,0,,,,,0,8,8,8,0,1,1,11,,,,,,,,4.2,1495.3029364999966,1499.5034656999924,1499.504943929994,0.3035861999960616,1499.9474027999968,1499.9474027999968,m,1501.582267699996,1501.582267699996,48,1.018,0.5655082000012044,,,,,sub-063,55,110,700,bloc_loop.csv,2023-10-26_10h45.43.220,PainUncertainty,2022.2.5,142.99584883198509,
grave,forte,stimuli/330Hz,stimuli/forte,bloc_9,prob20hthp_12trials.xlsx,3,36,80,20,0,,,,,0,8,8,8,0,2,2,1,,,,,,,,4.3,1501.582267699996,1505.8862191999942,1505.8864571299957,0.3048112999967998,1506.3337840999884,1506.3337840999884,m,1509.0142909999995,1509.0142909999995,46,2.027,0.5913233000028413,,,,,sub-063,55,110,700,bloc_loop.csv,2023-10-26_10h45.43.220,PainUncertainty,2022.2.5,142.99584883198509,
grave,forte,stimuli/330Hz,stimuli/forte,bloc_9,prob20hthp_12trials.xlsx,3,36,80,20,0,,,,,0,8,8,8,0,3,3,4,,,,,,,,4,1509.0142909999995,1513.0186260999908,1513.018724729994,0.30490519999875687,1513.4627915999881,1513.4627915999881,m,1514.8481421999895,1514.8481421999895,50,0.844,0.4671011000027647,,,,,sub-063,55,110,700,bloc_loop.csv,2023-10-26_10h45.43.220,PainUncertainty,2022.2.5,142.99584883198509,
aigu,moderee,stimuli/660Hz,stimuli/moderee,bloc_9,prob20hthp_12trials.xlsx,3,36,80,20,0,,,,,0,8,8,8,0,4,4,7,,,,,,,,3.5,1514.8481421999895,1518.3525533999928,1518.352539029994,0.30502590000105556,1518.8012770999921,1518.8012770999921,n,1520.2781793999893,1520.2781793999893,8,1.012,0.4179522999911569,,,,,sub-063,55,110,700,bloc_loop.csv,2023-10-26_10h45.43.220,PainUncertainty,2022.2.5,142.99584883198509,
grave,moderee,stimuli/330Hz,stimuli/moderee,bloc_9,prob20hthp_12trials.xlsx,3,36,80,20,0,,,,,0,8,8,8,0,5,5,5,,,,,,,,4,1520.2781793999893,1524.2837767999881,1524.2838200299914,0.30507899999793153,1524.7279839999974,1524.7279839999974,n,1528.3662848999957,1528.3662848999957,10,1.879,1.6743732000031741,,,,,sub-063,55,110,700,bloc_loop.csv,2023-10-26_10h45.43.220,PainUncertainty,2022.2.5,142.99584883198509,
grave,forte,stimuli/330Hz,stimuli/forte,bloc_9,prob20hthp_12trials.xlsx,3,36,80,20,0,,,,,0,8,8,8,0,6,6,0,,,,,,,,5,1528.3662848999957,1533.3682026999886,1533.3682749299944,0.3052231000037864,1533.8125269999873,1533.8125269999873,m,1535.2382295999996,1535.2382295999996,50,0.789,0.5612715000024764,,,,,sub-063,55,110,700,bloc_loop.csv,2023-10-26_10h45.43.220,PainUncertainty,2022.2.5,142.99584883198509,
aigu,moderee,stimuli/660Hz,stimuli/moderee,bloc_9,prob20hthp_12trials.xlsx,3,36,80,20,0,,,,,0,8,8,8,0,7,7,9,,,,,,,,4.9,1535.2382295999996,1540.139803099999,1540.1399755299965,0.30496340000536293,1540.5841608999908,1540.5841608999908,n,1543.5626865999948,1543.5626865999948,10,2.442,0.4618977999925846,,,,,sub-063,55,110,700,bloc_loop.csv,2023-10-26_10h45.43.220,PainUncertainty,2022.2.5,142.99584883198509,
grave,forte,stimuli/330Hz,stimuli/forte,bloc_9,prob20hthp_12trials.xlsx,3,36,80,20,0,,,,,0,8,8,8,0,8,8,3,,,,,,,,3.9,1543.5626865999948,1547.4671832999884,1547.4672785299947,0.3049425999925006,1547.9117587999935,1547.9117587999935,m,1550.0814238999883,1550.0814238999883,47,1.56,0.5304740999999922,,,,,sub-063,55,110,700,bloc_loop.csv,2023-10-26_10h45.43.220,PainUncertainty,2022.2.5,142.99584883198509,
aigu,moderee,stimuli/660Hz,stimuli/moderee,bloc_9,prob20hthp_12trials.xlsx,3,36,80,20,0,,,,,0,8,8,8,0,9,9,10,,,,,,,,3.8,1550.0814238999883,1553.8848911999958,1553.8848989299906,0.3053026999987196,1554.3323784999957,1554.3323784999957,n,1557.0985496999929,1557.0985496999929,11,2.179,0.5052190000133123,,,,,sub-063,55,110,700,bloc_loop.csv,2023-10-26_10h45.43.220,PainUncertainty,2022.2.5,142.99584883198509,
grave,forte,stimuli/330Hz,stimuli/forte,bloc_9,prob20hthp_12trials.xlsx,3,36,80,20,0,,,,,0,8,8,8,0,10,10,2,,,,,,,,4,1557.0985496999929,1561.1011035999982,1561.1011976299953,0.3002208999969298,1561.54547669999,1561.54547669999,m,1564.5603783999977,1564.5603783999977,45,2.37,0.5594052999949781,,,,,sub-063,55,110,700,bloc_loop.csv,2023-10-26_10h45.43.220,PainUncertainty,2022.2.5,142.99584883198509,
aigu,moderee,stimuli/660Hz,stimuli/moderee,bloc_9,prob20hthp_12trials.xlsx,3,36,80,20,0,,,,,0,8,8,8,0,11,11,6,,,,,,,,4.9,1564.5603783999977,1569.4626501999883,1569.4628273299925,0.30479639999975916,1569.9069067999953,1569.9069067999953,n,1572.3406736999896,1572.3406736999896,12,1.843,0.5322458000009647,,,,,sub-063,55,110,700,bloc_loop.csv,2023-10-26_10h45.43.220,PainUncertainty,2022.2.5,142.99584883198509,
aigu,moderee,stimuli/660Hz,stimuli/moderee,bloc_9,prob20hthp_12trials.xlsx,3,36,80,20,0,,,,,0,8,8,8,1,0,12,9,,,,,,,,4,1572.3406736999896,1576.3455163999897,1576.3455079299922,0.3056044999975711,1576.7933892,1576.7933892,n,1580.793733300001,1580.793733300001,9,3.538,0.385883199996897,,,,,sub-063,55,110,700,bloc_loop.csv,2023-10-26_10h45.43.220,PainUncertainty,2022.2.5,142.99584883198509,
grave,forte,stimuli/330Hz,stimuli/forte,bloc_9,prob20hthp_12trials.xlsx,3,36,80,20,0,,,,,0,8,8,8,1,1,13,2,,,,,,,,4.5,1580.793733300001,1585.2983795999899,1585.2983301300003,0.30526609999651555,1585.7456347999978,1585.7456347999978,m,1588.865477299987,1588.865477299987,46,1.954,1.081540799990762,,,,,sub-063,55,110,700,bloc_loop.csv,2023-10-26_10h45.43.220,PainUncertainty,2022.2.5,142.99584883198509,
aigu,moderee,stimuli/660Hz,stimuli/moderee,bloc_9,prob20hthp_12trials.xlsx,3,36,80,20,0,,,,,0,8,8,8,1,2,14,7,,,,,,,,4,1588.865477299987,1592.8685574999981,1592.8685356300005,0.3064262999978382,1593.3204658999894,1593.3204658999894,n,1596.5510909000004,1596.5510909000004,14,2.721,0.45505979999143165,,,,,sub-063,55,110,700,bloc_loop.csv,2023-10-26_10h45.43.220,PainUncertainty,2022.2.5,142.99584883198509,
aigu,moderee,stimuli/660Hz,stimuli/moderee,bloc_9,prob20hthp_12trials.xlsx,3,36,80,20,0,,,,,0,8,8,8,1,3,15,10,,,,,,,,3.7,1596.5510909000004,1600.2515805000003,1600.2521419299912,0.3043092000007164,1600.695317699996,1600.695317699996,n,1602.47996289999,1602.47996289999,12,1.231,0.49415540001064073,,,,,sub-063,55,110,700,bloc_loop.csv,2023-10-26_10h45.43.220,PainUncertainty,2022.2.5,142.99584883198509,
aigu,moderee,stimuli/660Hz,stimuli/moderee,bloc_9,prob20hthp_12trials.xlsx,3,36,80,20,0,,,,,0,8,8,8,1,4,16,8,,,,,,,,3,1602.47996289999,1605.4816409999912,1605.4813351299993,0.30112809999263845,1605.925788099994,1605.925788099994,n,1609.111427699987,1609.111427699987,11,2.713,0.39927899999020156,,,,,sub-063,55,110,700,bloc_loop.csv,2023-10-26_10h45.43.220,PainUncertainty,2022.2.5,142.99584883198509,
grave,forte,stimuli/330Hz,stimuli/forte,bloc_9,prob20hthp_12trials.xlsx,3,36,80,20,0,,,,,0,8,8,8,1,5,17,0,,,,,,,,5,1609.111427699987,1614.1139525999897,1614.114187329996,0.30465610000828747,1614.5580775999988,1614.5580775999988,m,1616.2211020999966,1616.2211020999966,45,1.035,0.5217562000034377,,,,,sub-063,55,110,700,bloc_loop.csv,2023-10-26_10h45.43.220,PainUncertainty,2022.2.5,142.99584883198509,
aigu,forte,stimuli/660Hz,stimuli/forte,bloc_9,prob20hthp_12trials.xlsx,3,36,80,20,0,,,,,0,8,8,8,1,6,18,11,,,,,,,,4.8,1616.2211020999966,1621.024347300001,1621.024488429993,0.30527759999677073,1621.4686441999947,1621.4686441999947,m,1624.3229473999963,1624.3229473999963,47,1.906,0.8901249000045937,,,,,sub-063,55,110,700,bloc_loop.csv,2023-10-26_10h45.43.220,PainUncertainty,2022.2.5,142.99584883198509,
grave,forte,stimuli/330Hz,stimuli/forte,bloc_9,prob20hthp_12trials.xlsx,3,36,80,20,0,,,,,0,8,8,8,1,7,19,4,,,,,,,,3,1624.3229473999963,1627.3238134999992,1627.323832429992,0.30523440000251867,1627.7724490999972,1627.7724490999972,m,1629.2305809999962,1629.2305809999962,49,0.901,0.4889053000079002,,,,,sub-063,55,110,700,bloc_loop.csv,2023-10-26_10h45.43.220,PainUncertainty,2022.2.5,142.99584883198509,
grave,moderee,stimuli/330Hz,stimuli/moderee,bloc_9,prob20hthp_12trials.xlsx,3,36,80,20,0,,,,,0,8,8,8,1,8,20,5,,,,,,,,4.8,1629.2305809999962,1634.0328770999913,1634.032927629992,0.3052266000013333,1634.4818742999923,1634.4818742999923,n,1636.9156791999994,1636.9156791999994,10,1.705,0.6512134999939008,,,,,sub-063,55,110,700,bloc_loop.csv,2023-10-26_10h45.43.220,PainUncertainty,2022.2.5,142.99584883198509,
grave,forte,stimuli/330Hz,stimuli/forte,bloc_9,prob20hthp_12trials.xlsx,3,36,80,20,0,,,,,0,8,8,8,1,9,21,1,,,,,,,,4.2,1636.9156791999994,1641.117153299987,1641.1171195300005,0.30091510000056587,1641.5620291999949,1641.5620291999949,m,1645.481684399987,1645.481684399987,45,3.407,0.4549970999942161,,,,,sub-063,55,110,700,bloc_loop.csv,2023-10-26_10h45.43.220,PainUncertainty,2022.2.5,142.99584883198509,
grave,forte,stimuli/330Hz,stimuli/forte,bloc_9,prob20hthp_12trials.xlsx,3,36,80,20,0,,,,,0,8,8,8,1,10,22,3,,,,,,,,4.1,1645.481684399987,1649.583743700001,1649.5838625299978,0.30524879999575205,1650.0319045999931,1650.0319045999931,m,1652.4652241000003,1652.4652241000003,46,1.789,0.5711953999998514,,,,,sub-063,55,110,700,bloc_loop.csv,2023-10-26_10h45.43.220,PainUncertainty,2022.2.5,142.99584883198509,
aigu,moderee,stimuli/660Hz,stimuli/moderee,bloc_9,prob20hthp_12trials.xlsx,3,36,80,20,0,,,,,0,8,8,8,1,11,23,6,,,,,,,,3.5,1652.4652241000003,1655.9660325999866,1655.9663717299875,0.3046816999994917,1656.4106972000009,1656.4106972000009,n,1659.2559749999928,1659.2559749999928,11,2.373,0.41811280000547413,,,,,sub-063,55,110,700,bloc_loop.csv,2023-10-26_10h45.43.220,PainUncertainty,2022.2.5,142.99584883198509,
aigu,moderee,stimuli/660Hz,stimuli/moderee,bloc_9,prob20hthp_12trials.xlsx,3,36,80,20,0,,,,,0,8,8,8,2,0,24,6,,,,,,,,3.4,1659.2559749999928,1662.6627303999994,1662.6617987300008,0.3000248000025749,1663.1061378999875,1663.1061378999875,n,1665.1057191,1665.1057191,15,1.496,0.4190892000042368,,,,,sub-063,55,110,700,bloc_loop.csv,2023-10-26_10h45.43.220,PainUncertainty,2022.2.5,142.99584883198509,
grave,forte,stimuli/330Hz,stimuli/forte,bloc_9,prob20hthp_12trials.xlsx,3,36,80,20,0,,,,,0,8,8,8,2,1,25,0,,,,,,,,4.4,1665.1057191,1669.509761999987,1669.5097542299948,0.30534190000616945,1669.9576713999995,1669.9576713999995,m,1672.7130329999927,1672.7130329999927,44,2.137,0.5407677000039257,,,,,sub-063,55,110,700,bloc_loop.csv,2023-10-26_10h45.43.220,PainUncertainty,2022.2.5,142.99584883198509,
grave,moderee,stimuli/330Hz,stimuli/moderee,bloc_9,prob20hthp_12trials.xlsx,3,36,80,20,0,,,,,0,8,8,8,2,2,26,5,,,,,,,,4,1672.7130329999927,1676.7189299999882,1676.7188577299996,0.3072588000068208,1677.1701993999886,1677.1701993999886,n,1679.1671532999899,1679.1671532999899,10,0.753,1.1872367000032682,,,,,sub-063,55,110,700,bloc_loop.csv,2023-10-26_10h45.43.220,PainUncertainty,2022.2.5,142.99584883198509,
aigu,moderee,stimuli/660Hz,stimuli/moderee,bloc_9,prob20hthp_12trials.xlsx,3,36,80,20,0,,,,,0,8,8,8,2,3,27,8,,,,,,,,4.1,1679.1671532999899,1683.267982999998,1683.2680951299874,0.3049277000100119,1683.7121664999868,1683.7121664999868,n,1686.1988161999907,1686.1988161999907,14,1.671,0.7308806000073673,,,,,sub-063,55,110,700,bloc_loop.csv,2023-10-26_10h45.43.220,PainUncertainty,2022.2.5,142.99584883198509,
grave,forte,stimuli/330Hz,stimuli/forte,bloc_9,prob20hthp_12trials.xlsx,3,36,80,20,0,,,,,0,8,8,8,2,4,28,1,,,,,,,,4,1686.1988161999907,1690.1993478999939,1690.1994575299934,0.30471070000203326,1690.6435144999996,1690.6435144999996,m,1693.0064547999937,1693.0064547999937,47,1.33,0.9507468999945559,,,,,sub-063,55,110,700,bloc_loop.csv,2023-10-26_10h45.43.220,PainUncertainty,2022.2.5,142.99584883198509,
aigu,moderee,stimuli/660Hz,stimuli/moderee,bloc_9,prob20hthp_12trials.xlsx,3,36,80,20,0,,,,,0,8,8,8,2,5,29,10,,,,,,,,3.5,1693.0064547999937,1696.505542599989,1696.5057813299966,0.30493810000189114,1696.953933599987,1696.953933599987,n,1700.00646579999,1700.00646579999,12,2.199,0.7810848999943119,,,,,sub-063,55,110,700,bloc_loop.csv,2023-10-26_10h45.43.220,PainUncertainty,2022.2.5,142.99584883198509,
grave,forte,stimuli/330Hz,stimuli/forte,bloc_9,prob20hthp_12trials.xlsx,3,36,80,20,0,,,,,0,8,8,8,2,6,30,3,,,,,,,,4.8,1700.00646579999,1704.8121862999978,1704.8124847299944,0.3047450000012759,1705.2563575999957,1705.2563575999957,m,1706.9255908999912,1706.9255908999912,46,1.108,0.47654200000397395,,,,,sub-063,55,110,700,bloc_loop.csv,2023-10-26_10h45.43.220,PainUncertainty,2022.2.5,142.99584883198509,
aigu,moderee,stimuli/660Hz,stimuli/moderee,bloc_9,prob20hthp_12trials.xlsx,3,36,80,20,0,,,,,0,8,8,8,2,7,31,9,,,,,,,,3.4,1706.9255908999912,1710.3267802999908,1710.3267109299952,0.30501950001053046,1710.774793699995,1710.774793699995,n,1712.1175547999883,1712.1175547999883,9,0.906,0.3595580999972299,,,,,sub-063,55,110,700,bloc_loop.csv,2023-10-26_10h45.43.220,PainUncertainty,2022.2.5,142.99584883198509,
grave,forte,stimuli/330Hz,stimuli/forte,bloc_9,prob20hthp_12trials.xlsx,3,36,80,20,0,,,,,0,8,8,8,2,8,32,2,,,,,,,,3.9,1712.1175547999883,1716.0218886999937,1716.0220081299951,0.3048251000000164,1716.466299599997,1716.466299599997,m,1718.0633947999886,1718.0633947999886,44,1.018,0.49776790000032634,,,,,sub-063,55,110,700,bloc_loop.csv,2023-10-26_10h45.43.220,PainUncertainty,2022.2.5,142.99584883198509,
aigu,moderee,stimuli/660Hz,stimuli/moderee,bloc_9,prob20hthp_12trials.xlsx,3,36,80,20,0,,,,,0,8,8,8,2,9,33,7,,,,,,,,4.6,1718.0633947999886,1722.668684499993,1722.6687392299966,0.3020676000014646,1723.113998099987,1723.113998099987,n,1725.6069568999956,1725.6069568999956,10,2.038,0.3719256000040332,,,,,sub-063,55,110,700,bloc_loop.csv,2023-10-26_10h45.43.220,PainUncertainty,2022.2.5,142.99584883198509,
grave,forte,stimuli/330Hz,stimuli/forte,bloc_9,prob20hthp_12trials.xlsx,3,36,80,20,0,,,,,0,8,8,8,2,10,34,4,,,,,,,,4.8,1725.6069568999956,1730.4125799999892,1730.4126135299914,0.30480089999036863,1730.8566324999993,1730.8566324999993,m,1732.651935499991,1732.651935499991,50,0.674,1.0649135999992723,,,,,sub-063,55,110,700,bloc_loop.csv,2023-10-26_10h45.43.220,PainUncertainty,2022.2.5,142.99584883198509,
aigu,forte,stimuli/660Hz,stimuli/forte,bloc_9,prob20hthp_12trials.xlsx,3,36,80,20,0,,,,,0,8,8,8,2,11,35,11,,,,,,,,4.3,1732.651935499991,1736.9552216999873,1736.9567524299957,0.3038070000038715,1737.4015156999958,1737.4015156999958,m,1740.1018275999959,1740.1018275999959,46,2.053,0.6175303000054555,,,,,sub-063,55,110,700,bloc_loop.csv,2023-10-26_10h45.43.220,PainUncertainty,2022.2.5,142.99584883198509,
