cue_,stimulus_,cue_fichier,stimulus_fichier,block_name,block_trials_file,block_n_reps,block_ntrials,block_prob_highP_highT,block_prob_highP_lowT,block_pause_after,Bloc_essai.thisRepN,Bloc_essai.thisTrialN,Bloc_essai.thisN,Bloc_essai.thisIndex,blocks.thisRepN,blocks.thisTrialN,blocks.thisN,blocks.thisIndex,trials.thisRepN,trials.thisTrialN,trials.thisN,trials.thisIndex,pause_loop.thisRepN,pause_loop.thisTrialN,pause_loop.thisN,pause_loop.thisIndex,key_resp_5.started,start_calib.started,key_resp_2.started,ISI_duration,pause.started,pause.stopped,cue.started,ISI.started,choice_pain.started,Choice.started,choice_pain.keys,choice_pain.rt,main_text.started,confirm_text.started,ratingScale.response,ratingScale.rt,key_resp_3.started,key_resp_6.started,participant,low_ma,high_ma,failsafe_ma,block_file,date,expName,psychopyVersion,frameRate,
grave,forte,stimuli/330Hz,stimuli/forte,,,,,,,,0,0,0,1,,,,,,,,,,,,,28.186556200002087,30.32928379999794,34.29530320000049,4.5,38.53238969999802,43.03369509999902,43.032420560005264,0.30242290000023786,43.47813860000315,43.47813860000315,m,0.8436816000030376,46.97853240000404,46.97853240000404,69,2.583,,,sub-024,30,80,700,bloc_loop.csv,2023-06-14_10h24.38.537,PainUncertainty,2022.2.5,143.89441602000426,
aigu,forte,stimuli/660Hz,stimuli/forte,,,,,,,,0,1,1,3,,,,,,,,,,,,,,,,5,46.97853240000404,51.97807440000179,51.97797346000225,0.3050890999948024,52.4222391000003,52.4222391000003,m,0.7680440000040107,57.12405650000437,57.12405650000437,71,3.878,,,sub-024,30,80,700,bloc_loop.csv,2023-06-14_10h24.38.537,PainUncertainty,2022.2.5,143.89441602000426,
aigu,moderee,stimuli/660Hz,stimuli/moderee,,,,,,,,0,2,2,2,,,,,,,,,,,,,,,,3.4,57.12405650000437,60.5280797000014,60.52801026000161,0.3047191000005114,60.97192780000478,60.97192780000478,n,1.0975165999989258,65.54722860000038,65.54722860000038,29,3.412,,,sub-024,30,80,700,bloc_loop.csv,2023-06-14_10h24.38.537,PainUncertainty,2022.2.5,143.89441602000426,
grave,moderee,stimuli/330Hz,stimuli/moderee,,,,,,,,0,3,3,0,,,,,,,,,,,,,,,,5,65.54722860000038,70.54965530000482,70.54972056000479,0.30502980000164825,70.99428160000389,70.99428160000389,n,0.9417250999977114,75.90261579999788,75.90261579999788,24,3.942,,,sub-024,30,80,700,bloc_loop.csv,2023-06-14_10h24.38.537,PainUncertainty,2022.2.5,143.89441602000426,
aigu,moderee,stimuli/660Hz,stimuli/moderee,bloc_1,prob20hthp_12trials.xlsx,4,48,20,80,0,,,,,0,0,0,0,0,0,0,6,,,,,,,,3.3,90.31633000000147,93.61541460000444,93.61540446000508,0.30532210000092164,94.06399870000314,94.06399870000314,n,0.9239611000011791,98.12961570000334,98.12961570000334,16,3.072,,,sub-024,30,80,700,bloc_loop.csv,2023-06-14_10h24.38.537,PainUncertainty,2022.2.5,143.89441602000426,
grave,forte,stimuli/330Hz,stimuli/forte,bloc_1,prob20hthp_12trials.xlsx,4,48,20,80,0,,,,,0,0,0,0,0,1,1,0,,,,,,,,3.7,98.12961570000334,101.8317132000011,101.83171466000276,0.30499699999927543,102.28311380000378,102.28311380000378,m,0.6672955000030925,106.74121770000056,106.74121770000056,75,3.734,,,sub-024,30,80,700,bloc_loop.csv,2023-06-14_10h24.38.537,PainUncertainty,2022.2.5,143.89441602000426,
aigu,moderee,stimuli/660Hz,stimuli/moderee,bloc_1,prob20hthp_12trials.xlsx,4,48,20,80,0,,,,,0,0,0,0,0,2,2,7,,,,,,,,4.4,106.74121770000056,111.14503540000442,111.14495796000192,0.30505849999462953,111.5964546000032,111.5964546000032,n,0.6344077999965521,114.97390779999841,114.97390779999841,21,2.678,,,sub-024,30,80,700,bloc_loop.csv,2023-06-14_10h24.38.537,PainUncertainty,2022.2.5,143.89441602000426,
grave,forte,stimuli/330Hz,stimuli/forte,bloc_1,prob20hthp_12trials.xlsx,4,48,20,80,0,,,,,0,0,0,0,0,3,3,1,,,,,,,,4.3,114.97390779999841,119.27819470000395,119.27834986000452,0.30474690000119153,119.72243719999824,119.72243719999824,m,0.6891832000037539,123.31266690000484,123.31266690000484,73,2.844,,,sub-024,30,80,700,bloc_loop.csv,2023-06-14_10h24.38.537,PainUncertainty,2022.2.5,143.89441602000426,
grave,forte,stimuli/330Hz,stimuli/forte,bloc_1,prob20hthp_12trials.xlsx,4,48,20,80,0,,,,,0,0,0,0,0,4,4,3,,,,,,,,5,123.31266690000484,128.31371580000268,128.31370836000207,0.3052488999965135,128.757981499999,128.757981499999,m,0.6021731000000727,133.3192459999991,133.3192459999991,69,3.88,,,sub-024,30,80,700,bloc_loop.csv,2023-06-14_10h24.38.537,PainUncertainty,2022.2.5,143.89441602000426,
aigu,moderee,stimuli/660Hz,stimuli/moderee,bloc_1,prob20hthp_12trials.xlsx,4,48,20,80,0,,,,,0,0,0,0,0,5,5,8,,,,,,,,4.4,133.3192459999991,137.72453870000027,137.72460976000076,0.30495329999394016,138.16872570000123,138.16872570000123,n,0.512754399998812,140.61970020000444,140.61970020000444,27,1.886,,,sub-024,30,80,700,bloc_loop.csv,2023-06-14_10h24.38.537,PainUncertainty,2022.2.5,143.89441602000426,
grave,forte,stimuli/330Hz,stimuli/forte,bloc_1,prob20hthp_12trials.xlsx,4,48,20,80,0,,,,,0,0,0,0,0,6,6,2,,,,,,,,5,140.61970020000444,145.6213448999988,145.6213592600041,0.3050284000055399,146.0655040999991,146.0655040999991,m,0.5307453000059468,151.03768200000195,151.03768200000195,73,4.379,,,sub-024,30,80,700,bloc_loop.csv,2023-06-14_10h24.38.537,PainUncertainty,2022.2.5,143.89441602000426,
aigu,moderee,stimuli/660Hz,stimuli/moderee,bloc_1,prob20hthp_12trials.xlsx,4,48,20,80,0,,,,,0,0,0,0,0,7,7,9,,,,,,,,4.2,151.03768200000195,155.24058119999972,155.2405576600002,0.3050520999968285,155.68494389999978,155.68494389999978,n,0.5812398999987636,159.3475000000035,159.3475000000035,15,3.025,,,sub-024,30,80,700,bloc_loop.csv,2023-06-14_10h24.38.537,PainUncertainty,2022.2.5,143.89441602000426,
aigu,forte,stimuli/660Hz,stimuli/forte,bloc_1,prob20hthp_12trials.xlsx,4,48,20,80,0,,,,,0,0,0,0,0,8,8,11,,,,,,,,4.2,159.3475000000035,163.54744229999778,163.54744426000326,0.3010917999999947,163.9913979000048,163.9913979000048,m,0.8077218999969773,169.79726500000106,169.79726500000106,76,4.936,,,sub-024,30,80,700,bloc_loop.csv,2023-06-14_10h24.38.537,PainUncertainty,2022.2.5,143.89441602000426,
grave,moderee,stimuli/330Hz,stimuli/moderee,bloc_1,prob20hthp_12trials.xlsx,4,48,20,80,0,,,,,0,0,0,0,0,9,9,5,,,,,,,,5,169.79726500000106,174.79862619999767,174.79859235999976,0.3009022999976878,175.24303540000255,175.24303540000255,n,0.7426956999988761,179.19341130000248,179.19341130000248,27,3.157,,,sub-024,30,80,700,bloc_loop.csv,2023-06-14_10h24.38.537,PainUncertainty,2022.2.5,143.89441602000426,
grave,forte,stimuli/330Hz,stimuli/forte,bloc_1,prob20hthp_12trials.xlsx,4,48,20,80,0,,,,,0,0,0,0,0,10,10,4,,,,,,,,5,179.19341130000248,184.1956640999997,184.1956213599995,0.3050141999992775,184.64025879999826,184.64025879999826,m,0.6822494000007282,188.74999229999958,188.74999229999958,71,3.366,,,sub-024,30,80,700,bloc_loop.csv,2023-06-14_10h24.38.537,PainUncertainty,2022.2.5,143.89441602000426,
aigu,moderee,stimuli/660Hz,stimuli/moderee,bloc_1,prob20hthp_12trials.xlsx,4,48,20,80,0,,,,,0,0,0,0,0,11,11,10,,,,,,,,4,188.74999229999958,192.75272250000125,192.7528811599994,0.30047259999992093,193.19682900000043,193.19682900000043,n,0.6251983999973163,197.2189029000001,197.2189029000001,21,3.344,,,sub-024,30,80,700,bloc_loop.csv,2023-06-14_10h24.38.537,PainUncertainty,2022.2.5,143.89441602000426,
grave,forte,stimuli/330Hz,stimuli/forte,bloc_1,prob20hthp_12trials.xlsx,4,48,20,80,0,,,,,0,0,0,0,1,0,12,3,,,,,,,,4,197.2189029000001,201.2184133000046,201.21847366000367,0.3050331000049482,201.66322729999956,201.66322729999956,m,1.2110823999973945,206.91810570000234,206.91810570000234,74,3.989,,,sub-024,30,80,700,bloc_loop.csv,2023-06-14_10h24.38.537,PainUncertainty,2022.2.5,143.89441602000426,
aigu,moderee,stimuli/660Hz,stimuli/moderee,bloc_1,prob20hthp_12trials.xlsx,4,48,20,80,0,,,,,0,0,0,0,1,1,13,9,,,,,,,,4.3,206.91810570000234,211.21961510000256,211.2195700599994,0.3051102999961586,211.66397320000397,211.66397320000397,n,0.5189687999954913,215.34228150000126,215.34228150000126,23,3.094,,,sub-024,30,80,700,bloc_loop.csv,2023-06-14_10h24.38.537,PainUncertainty,2022.2.5,143.89441602000426,
aigu,moderee,stimuli/660Hz,stimuli/moderee,bloc_1,prob20hthp_12trials.xlsx,4,48,20,80,0,,,,,0,0,0,0,1,2,14,8,,,,,,,,3.5,215.34228150000126,218.845510799998,218.84548216000331,0.3054441999993287,219.28998500000307,219.28998500000307,n,0.6964473000043654,223.90467720000015,223.90467720000015,20,3.865,,,sub-024,30,80,700,bloc_loop.csv,2023-06-14_10h24.38.537,PainUncertainty,2022.2.5,143.89441602000426,
grave,forte,stimuli/330Hz,stimuli/forte,bloc_1,prob20hthp_12trials.xlsx,4,48,20,80,0,,,,,0,0,0,0,1,3,15,1,,,,,,,,4,223.90467720000015,227.90915659999882,227.90907275999854,0.3001712999976007,228.35427530000015,228.35427530000015,m,0.6252505000011297,233.89358170000196,233.89358170000196,74,4.845,,,sub-024,30,80,700,bloc_loop.csv,2023-06-14_10h24.38.537,PainUncertainty,2022.2.5,143.89441602000426,
grave,forte,stimuli/330Hz,stimuli/forte,bloc_1,prob20hthp_12trials.xlsx,4,48,20,80,0,,,,,0,0,0,0,1,4,16,0,,,,,,,,3.1,233.89358170000196,236.9939441000024,236.9939205600029,0.3050431000010576,237.4379354000048,237.4379354000048,m,0.9460066000028746,241.88195919999998,241.88195919999998,75,3.434,,,sub-024,30,80,700,bloc_loop.csv,2023-06-14_10h24.38.537,PainUncertainty,2022.2.5,143.89441602000426,
grave,forte,stimuli/330Hz,stimuli/forte,bloc_1,prob20hthp_12trials.xlsx,4,48,20,80,0,,,,,0,0,0,0,1,5,17,2,,,,,,,,3.2,241.88195919999998,245.0849948000032,245.08502656000275,0.304961199995887,245.5289974000043,245.5289974000043,m,0.5654667999988305,248.77065940000466,248.77065940000466,75,2.576,,,sub-024,30,80,700,bloc_loop.csv,2023-06-14_10h24.38.537,PainUncertainty,2022.2.5,143.89441602000426,
aigu,moderee,stimuli/660Hz,stimuli/moderee,bloc_1,prob20hthp_12trials.xlsx,4,48,20,80,0,,,,,0,0,0,0,1,6,18,10,,,,,,,,3.1,248.77065940000466,251.87098610000248,251.87083305999914,0.3048216000024695,252.3150969999988,252.3150969999988,n,0.5768699999971432,255.3063831000036,255.3063831000036,25,2.344,,,sub-024,30,80,700,bloc_loop.csv,2023-06-14_10h24.38.537,PainUncertainty,2022.2.5,143.89441602000426,
aigu,forte,stimuli/660Hz,stimuli/forte,bloc_1,prob20hthp_12trials.xlsx,4,48,20,80,0,,,,,0,0,0,0,1,7,19,11,,,,,,,,3.9,255.3063831000036,259.2116260000039,259.21163886000505,0.3050530000036815,259.6565639000037,259.6565639000037,m,0.652499000003445,262.9435452000034,262.9435452000034,77,2.574,,,sub-024,30,80,700,bloc_loop.csv,2023-06-14_10h24.38.537,PainUncertainty,2022.2.5,143.89441602000426,
grave,forte,stimuli/330Hz,stimuli/forte,bloc_1,prob20hthp_12trials.xlsx,4,48,20,80,0,,,,,0,0,0,0,1,8,20,4,,,,,,,,4.5,262.9435452000034,267.4490466999996,267.4495628599987,0.30453639999905135,267.89291930000036,267.89291930000036,m,0.7172990999970352,272.2594706000018,272.2594706000018,77,3.593,,,sub-024,30,80,700,bloc_loop.csv,2023-06-14_10h24.38.537,PainUncertainty,2022.2.5,143.89441602000426,
grave,moderee,stimuli/330Hz,stimuli/moderee,bloc_1,prob20hthp_12trials.xlsx,4,48,20,80,0,,,,,0,0,0,0,1,9,21,5,,,,,,,,4.5,272.2594706000018,276.7624894000037,276.76236886000044,0.3051162999981898,277.21012039999914,277.21012039999914,n,0.7106019999991986,281.7040391000046,281.7040391000046,20,3.717,,,sub-024,30,80,700,bloc_loop.csv,2023-06-14_10h24.38.537,PainUncertainty,2022.2.5,143.89441602000426,
aigu,moderee,stimuli/660Hz,stimuli/moderee,bloc_1,prob20hthp_12trials.xlsx,4,48,20,80,0,,,,,0,0,0,0,1,10,22,6,,,,,,,,4.3,281.7040391000046,286.0065089999989,286.0066207600037,0.3011482000001706,286.4511315999989,286.4511315999989,n,0.6692295999964699,293.24160790000315,293.24160790000315,20,6.052,,,sub-024,30,80,700,bloc_loop.csv,2023-06-14_10h24.38.537,PainUncertainty,2022.2.5,143.89441602000426,
aigu,moderee,stimuli/660Hz,stimuli/moderee,bloc_1,prob20hthp_12trials.xlsx,4,48,20,80,0,,,,,0,0,0,0,1,11,23,7,,,,,,,,3.3,293.24160790000315,296.543247900001,296.5432340600026,0.30534089999855496,296.9873446999991,296.9873446999991,n,0.497388999996474,302.2869654000024,302.2869654000024,16,4.747,,,sub-024,30,80,700,bloc_loop.csv,2023-06-14_10h24.38.537,PainUncertainty,2022.2.5,143.89441602000426,
grave,forte,stimuli/330Hz,stimuli/forte,bloc_1,prob20hthp_12trials.xlsx,4,48,20,80,0,,,,,0,0,0,0,2,0,24,0,,,,,,,,3.5,302.2869654000024,305.7871707000013,305.78728686000323,0.30030919999990147,306.23099560000264,306.23099560000264,m,0.6524133999992046,311.0433592000045,311.0433592000045,71,4.099,,,sub-024,30,80,700,bloc_loop.csv,2023-06-14_10h24.38.537,PainUncertainty,2022.2.5,143.89441602000426,
aigu,moderee,stimuli/660Hz,stimuli/moderee,bloc_1,prob20hthp_12trials.xlsx,4,48,20,80,0,,,,,0,0,0,0,2,1,25,6,,,,,,,,3.6,311.0433592000045,314.6490111000021,314.64895046000385,0.30498480000096606,315.09356580000167,315.09356580000167,n,0.843585599999642,318.7293454000028,318.7293454000028,18,2.733,,,sub-024,30,80,700,bloc_loop.csv,2023-06-14_10h24.38.537,PainUncertainty,2022.2.5,143.89441602000426,
grave,forte,stimuli/330Hz,stimuli/forte,bloc_1,prob20hthp_12trials.xlsx,4,48,20,80,0,,,,,0,0,0,0,2,2,26,4,,,,,,,,3.4,318.7293454000028,322.12932880000153,322.13146416000455,0.30295050000131596,322.5734508000023,322.5734508000023,m,0.5481196999971871,325.9673965000038,325.9673965000038,76,2.796,,,sub-024,30,80,700,bloc_loop.csv,2023-06-14_10h24.38.537,PainUncertainty,2022.2.5,143.89441602000426,
grave,forte,stimuli/330Hz,stimuli/forte,bloc_1,prob20hthp_12trials.xlsx,4,48,20,80,0,,,,,0,0,0,0,2,3,27,3,,,,,,,,4.7,325.9673965000038,330.6716835999978,330.67176796000496,0.305144999998447,331.1160983000009,331.1160983000009,m,0.7592242999962764,336.3862941999978,336.3862941999978,80,4.447,,,sub-024,30,80,700,bloc_loop.csv,2023-06-14_10h24.38.537,PainUncertainty,2022.2.5,143.89441602000426,
aigu,moderee,stimuli/660Hz,stimuli/moderee,bloc_1,prob20hthp_12trials.xlsx,4,48,20,80,0,,,,,0,0,0,0,2,4,28,8,,,,,,,,3.2,336.3862941999978,339.58984410000267,339.58985806000493,0.305281399996602,340.0360518000016,340.0360518000016,n,0.3929661000001943,342.8902539000046,342.8902539000046,19,2.405,,,sub-024,30,80,700,bloc_loop.csv,2023-06-14_10h24.38.537,PainUncertainty,2022.2.5,143.89441602000426,
grave,forte,stimuli/330Hz,stimuli/forte,bloc_1,prob20hthp_12trials.xlsx,4,48,20,80,0,,,,,0,0,0,0,2,5,29,1,,,,,,,,4.2,342.8902539000046,347.0905187000026,347.0905161600029,0.3054578000010224,347.5373811000027,347.5373811000027,m,0.4881643999979133,351.40764099999797,351.40764099999797,74,3.317,,,sub-024,30,80,700,bloc_loop.csv,2023-06-14_10h24.38.537,PainUncertainty,2022.2.5,143.89441602000426,
aigu,moderee,stimuli/660Hz,stimuli/moderee,bloc_1,prob20hthp_12trials.xlsx,4,48,20,80,0,,,,,0,0,0,0,2,6,30,10,,,,,,,,3.1,351.40764099999797,354.50836320000235,354.50821316,0.2996802999987267,354.95079380000243,354.95079380000243,n,0.5405481999987387,359.8290014000013,359.8290014000013,16,4.274,,,sub-024,30,80,700,bloc_loop.csv,2023-06-14_10h24.38.537,PainUncertainty,2022.2.5,143.89441602000426,
aigu,moderee,stimuli/660Hz,stimuli/moderee,bloc_1,prob20hthp_12trials.xlsx,4,48,20,80,0,,,,,0,0,0,0,2,7,31,7,,,,,,,,3.3,359.8290014000013,363.13401819999854,363.134068760003,0.3050929999953951,363.57825279999815,363.57825279999815,n,0.465348300000187,368.9535890000043,368.9535890000043,16,4.851,,,sub-024,30,80,700,bloc_loop.csv,2023-06-14_10h24.38.537,PainUncertainty,2022.2.5,143.89441602000426,
grave,forte,stimuli/330Hz,stimuli/forte,bloc_1,prob20hthp_12trials.xlsx,4,48,20,80,0,,,,,0,0,0,0,2,8,32,2,,,,,,,,4.8,368.9535890000043,373.7538483000026,373.75493376000014,0.2999052000013762,374.19806640000024,374.19806640000024,m,0.456079999996291,378.1728413000019,378.1728413000019,77,3.455,,,sub-024,30,80,700,bloc_loop.csv,2023-06-14_10h24.38.537,PainUncertainty,2022.2.5,143.89441602000426,
grave,moderee,stimuli/330Hz,stimuli/moderee,bloc_1,prob20hthp_12trials.xlsx,4,48,20,80,0,,,,,0,0,0,0,2,9,33,5,,,,,,,,3.1,378.1728413000019,381.2751588000028,381.27521086000417,0.30507410000427626,381.71932930000185,381.71932930000185,n,0.5202559000026667,387.1551374000046,387.1551374000046,15,4.858,,,sub-024,30,80,700,bloc_loop.csv,2023-06-14_10h24.38.537,PainUncertainty,2022.2.5,143.89441602000426,
aigu,forte,stimuli/660Hz,stimuli/forte,bloc_1,prob20hthp_12trials.xlsx,4,48,20,80,0,,,,,0,0,0,0,2,10,34,11,,,,,,,,3.5,387.1551374000046,390.6582681,390.6584459599988,0.3052514000009978,391.1054504999993,391.1054504999993,m,0.6569563999946695,397.76499409999815,397.76499409999815,82,5.942,,,sub-024,30,80,700,bloc_loop.csv,2023-06-14_10h24.38.537,PainUncertainty,2022.2.5,143.89441602000426,
aigu,moderee,stimuli/660Hz,stimuli/moderee,bloc_1,prob20hthp_12trials.xlsx,4,48,20,80,0,,,,,0,0,0,0,2,11,35,9,,,,,,,,4,397.76499409999815,401.76424170000246,401.76619185999954,0.30300849999912316,402.20851830000174,402.20851830000174,n,0.8271173000030103,407.3373109000022,407.3373109000022,21,4.233,,,sub-024,30,80,700,bloc_loop.csv,2023-06-14_10h24.38.537,PainUncertainty,2022.2.5,143.89441602000426,
aigu,moderee,stimuli/660Hz,stimuli/moderee,bloc_1,prob20hthp_12trials.xlsx,4,48,20,80,0,,,,,0,0,0,0,3,0,36,9,,,,,,,,3.9,407.3373109000022,411.23888140000054,411.2378338600036,0.30117880000034347,411.6826203000019,411.6826203000019,n,0.5866299999979674,416.3171906999996,416.3171906999996,13,3.992,,,sub-024,30,80,700,bloc_loop.csv,2023-06-14_10h24.38.537,PainUncertainty,2022.2.5,143.89441602000426,
aigu,moderee,stimuli/660Hz,stimuli/moderee,bloc_1,prob20hthp_12trials.xlsx,4,48,20,80,0,,,,,0,0,0,0,3,1,37,7,,,,,,,,3.9,416.3171906999996,420.2180655999982,420.21792056000487,0.3042723000035039,420.66159020000487,420.66159020000487,n,0.3571816999974544,422.7729296000034,422.7729296000034,14,1.691,,,sub-024,30,80,700,bloc_loop.csv,2023-06-14_10h24.38.537,PainUncertainty,2022.2.5,143.89441602000426,
aigu,forte,stimuli/660Hz,stimuli/forte,bloc_1,prob20hthp_12trials.xlsx,4,48,20,80,0,,,,,0,0,0,0,3,2,38,11,,,,,,,,3.4,422.7729296000034,426.17654539999785,426.17654616000146,0.2993854000014835,426.6149263000043,426.6149263000043,m,0.7683287999971071,432.72976370000106,432.72976370000106,78,5.284,,,sub-024,30,80,700,bloc_loop.csv,2023-06-14_10h24.38.537,PainUncertainty,2022.2.5,143.89441602000426,
grave,forte,stimuli/330Hz,stimuli/forte,bloc_1,prob20hthp_12trials.xlsx,4,48,20,80,0,,,,,0,0,0,0,3,3,39,0,,,,,,,,4.8,432.72976370000106,437.53214980000485,437.5321407599993,0.3050657999992836,437.9762789000015,437.9762789000015,m,0.5219511000032071,442.69957940000313,442.69957940000313,78,4.143,,,sub-024,30,80,700,bloc_loop.csv,2023-06-14_10h24.38.537,PainUncertainty,2022.2.5,143.89441602000426,
aigu,moderee,stimuli/660Hz,stimuli/moderee,bloc_1,prob20hthp_12trials.xlsx,4,48,20,80,0,,,,,0,0,0,0,3,4,40,6,,,,,,,,3.9,442.69957940000313,446.60257080000156,446.6026244600005,0.30502659999910975,447.0472222000026,447.0472222000026,n,0.5439862999992329,452.33660000000236,452.33660000000236,15,4.682,,,sub-024,30,80,700,bloc_loop.csv,2023-06-14_10h24.38.537,PainUncertainty,2022.2.5,143.89441602000426,
grave,forte,stimuli/330Hz,stimuli/forte,bloc_1,prob20hthp_12trials.xlsx,4,48,20,80,0,,,,,0,0,0,0,3,5,41,4,,,,,,,,3.3,452.33660000000236,455.63894540000183,455.63885156000543,0.30468090000067605,456.08297400000447,456.08297400000447,m,0.4438072999982978,458.87251670000114,458.87251670000114,75,2.28,,,sub-024,30,80,700,bloc_loop.csv,2023-06-14_10h24.38.537,PainUncertainty,2022.2.5,143.89441602000426,
aigu,moderee,stimuli/660Hz,stimuli/moderee,bloc_1,prob20hthp_12trials.xlsx,4,48,20,80,0,,,,,0,0,0,0,3,6,42,10,,,,,,,,3,458.87251670000114,461.87535500000376,461.8752964599997,0.30524639999930514,462.32170380000025,462.32170380000025,n,0.39201900000625756,465.52001290000044,465.52001290000044,15,2.742,,,sub-024,30,80,700,bloc_loop.csv,2023-06-14_10h24.38.537,PainUncertainty,2022.2.5,143.89441602000426,
grave,moderee,stimuli/330Hz,stimuli/moderee,bloc_1,prob20hthp_12trials.xlsx,4,48,20,80,0,,,,,0,0,0,0,3,7,43,5,,,,,,,,4.2,465.52001290000044,469.7235182000004,469.7235156600007,0.305189300001075,470.16804940000293,470.16804940000293,n,0.553540000000794,473.57503480000014,473.57503480000014,14,2.788,,,sub-024,30,80,700,bloc_loop.csv,2023-06-14_10h24.38.537,PainUncertainty,2022.2.5,143.89441602000426,
grave,forte,stimuli/330Hz,stimuli/forte,bloc_1,prob20hthp_12trials.xlsx,4,48,20,80,0,,,,,0,0,0,0,3,8,44,3,,,,,,,,4.5,473.57503480000014,478.07874869999796,478.07875446000327,0.3048235999958706,478.52288789999875,478.52288789999875,m,0.5743751999980304,481.77041360000294,481.77041360000294,70,2.622,,,sub-024,30,80,700,bloc_loop.csv,2023-06-14_10h24.38.537,PainUncertainty,2022.2.5,143.89441602000426,
aigu,moderee,stimuli/660Hz,stimuli/moderee,bloc_1,prob20hthp_12trials.xlsx,4,48,20,80,0,,,,,0,0,0,0,3,9,45,8,,,,,,,,4.7,481.77041360000294,486.47558720000234,486.47559575999986,0.30530170000565704,486.9200992999977,486.9200992999977,n,0.5009983999989345,490.60991659999854,490.60991659999854,19,3.109,,,sub-024,30,80,700,bloc_loop.csv,2023-06-14_10h24.38.537,PainUncertainty,2022.2.5,143.89441602000426,
grave,forte,stimuli/330Hz,stimuli/forte,bloc_1,prob20hthp_12trials.xlsx,4,48,20,80,0,,,,,0,0,0,0,3,10,46,1,,,,,,,,3.6,490.60991659999854,494.2129669999995,494.213155860002,0.3047472000034759,494.66040500000236,494.66040500000236,m,0.4587230999968597,500.1330109000046,500.1330109000046,79,4.956,,,sub-024,30,80,700,bloc_loop.csv,2023-06-14_10h24.38.537,PainUncertainty,2022.2.5,143.89441602000426,
grave,forte,stimuli/330Hz,stimuli/forte,bloc_1,prob20hthp_12trials.xlsx,4,48,20,80,0,,,,,0,0,0,0,3,11,47,2,,,,,,,,3.4,500.1330109000046,503.53351349999866,503.53346246000075,0.30473799999890616,503.97760030000063,503.97760030000063,m,0.48515160000533797,509.1465926000019,509.1465926000019,82,4.63,,,sub-024,30,80,700,bloc_loop.csv,2023-06-14_10h24.38.537,PainUncertainty,2022.2.5,143.89441602000426,
grave,moderee,stimuli/330Hz,stimuli/moderee,bloc_2,prob50_50_4trials.xlsx,2,8,50,50,1,,,,,0,1,1,1,0,0,0,0,,,,,,,,4.7,509.1465926000019,513.8474541000032,513.8472327600036,0.30149420000088867,514.2920092999993,514.2920092999993,n,0.7037074999971082,517.7267487999998,517.7267487999998,13,2.664,,,sub-024,30,80,700,bloc_loop.csv,2023-06-14_10h24.38.537,PainUncertainty,2022.2.5,143.89441602000426,
aigu,moderee,stimuli/660Hz,stimuli/moderee,bloc_2,prob50_50_4trials.xlsx,2,8,50,50,1,,,,,0,1,1,1,0,1,1,2,,,,,,,,3.4,517.7267487999998,521.1325811999995,521.1325907600046,0.30500020000181394,521.5769833000013,521.5769833000013,n,0.6206288999965182,525.0302900000024,525.0302900000024,12,2.763,,,sub-024,30,80,700,bloc_loop.csv,2023-06-14_10h24.38.537,PainUncertainty,2022.2.5,143.89441602000426,
aigu,forte,stimuli/660Hz,stimuli/forte,bloc_2,prob50_50_4trials.xlsx,2,8,50,50,1,,,,,0,1,1,1,0,2,2,3,,,,,,,,4,525.0302900000024,529.0301685000013,529.0299029599998,0.30485809999663616,529.4782875000019,529.4782875000019,m,0.5255056000023615,534.2186170999994,534.2186170999994,73,4.15,,,sub-024,30,80,700,bloc_loop.csv,2023-06-14_10h24.38.537,PainUncertainty,2022.2.5,143.89441602000426,
grave,forte,stimuli/330Hz,stimuli/forte,bloc_2,prob50_50_4trials.xlsx,2,8,50,50,1,,,,,0,1,1,1,0,3,3,1,,,,,,,,4.4,534.2186170999994,538.6208335000047,538.6208952599998,0.30513649999920744,539.0653873999981,539.0653873999981,m,0.5530960999967647,544.9560946999991,544.9560946999991,79,5.275,,,sub-024,30,80,700,bloc_loop.csv,2023-06-14_10h24.38.537,PainUncertainty,2022.2.5,143.89441602000426,
grave,moderee,stimuli/330Hz,stimuli/moderee,bloc_2,prob50_50_4trials.xlsx,2,8,50,50,1,,,,,0,1,1,1,1,0,4,0,,,,,,,,3.3,544.9560946999991,548.2608671999988,548.2610922600004,0.30487990000256104,548.7053463000047,548.7053463000047,n,0.5975812000033329,551.044000599999,551.044000599999,15,1.685,,,sub-024,30,80,700,bloc_loop.csv,2023-06-14_10h24.38.537,PainUncertainty,2022.2.5,143.89441602000426,
grave,forte,stimuli/330Hz,stimuli/forte,bloc_2,prob50_50_4trials.xlsx,2,8,50,50,1,,,,,0,1,1,1,1,1,5,1,,,,,,,,4.4,551.044000599999,555.4495183000035,555.4493541600029,0.30509990000427933,555.8938718999998,555.8938718999998,m,0.4562666999991052,561.3202108000041,561.3202108000041,78,4.916,,,sub-024,30,80,700,bloc_loop.csv,2023-06-14_10h24.38.537,PainUncertainty,2022.2.5,143.89441602000426,
aigu,moderee,stimuli/660Hz,stimuli/moderee,bloc_2,prob50_50_4trials.xlsx,2,8,50,50,1,,,,,0,1,1,1,1,2,6,2,,,,,,,,5,561.3202108000041,566.3254989999987,566.3254086599998,0.3055383999962942,566.770197400001,566.770197400001,n,0.49529720000282396,569.8856422000026,569.8856422000026,11,2.567,,,sub-024,30,80,700,bloc_loop.csv,2023-06-14_10h24.38.537,PainUncertainty,2022.2.5,143.89441602000426,
aigu,forte,stimuli/660Hz,stimuli/forte,bloc_2,prob50_50_4trials.xlsx,2,8,50,50,1,,,,,0,1,1,1,1,3,7,3,,,,,,,,4.5,569.8856422000026,574.3890347999986,574.3889548599989,0.30501509999885457,574.8334701999993,574.8334701999993,m,0.6604173000014271,583.4698940000017,583.4698940000017,77,5.941,,,sub-024,30,80,700,bloc_loop.csv,2023-06-14_10h24.38.537,PainUncertainty,2022.2.5,143.89441602000426,
,,,,bloc_2,prob50_50_4trials.xlsx,2,8,50,50,1,,,,,0,1,1,1,,,,,0,0,0,0,,,,,,,,,,,,,,,,,583.4698940000017,604.6425998999985,sub-024,30,80,700,bloc_loop.csv,2023-06-14_10h24.38.537,PainUncertainty,2022.2.5,143.89441602000426,
aigu,forte,stimuli/660Hz,stimuli/forte,bloc_3,prob80hthp_12trials.xlsx,2,24,80,20,0,,,,,0,2,2,2,0,0,0,7,,,,,,,,4.2,605.4898275000014,609.6922753000035,609.6924387600018,0.306127199997718,610.1419771000001,610.1419771000001,m,0.5961132000011276,613.0631509000013,613.0631509000013,77,2.26,,,sub-024,30,80,700,bloc_loop.csv,2023-06-14_10h24.38.537,PainUncertainty,2022.2.5,143.89441602000426,
grave,moderee,stimuli/330Hz,stimuli/moderee,bloc_3,prob80hthp_12trials.xlsx,2,24,80,20,0,,,,,0,2,2,2,0,1,1,4,,,,,,,,3.6,613.0631509000013,616.6652753000017,616.6653259599996,0.30514489999768557,617.113357000002,617.113357000002,n,0.4972630999982357,620.5716419000019,620.5716419000019,12,2.907,,,sub-024,30,80,700,bloc_loop.csv,2023-06-14_10h24.38.537,PainUncertainty,2022.2.5,143.89441602000426,
grave,moderee,stimuli/330Hz,stimuli/moderee,bloc_3,prob80hthp_12trials.xlsx,2,24,80,20,0,,,,,0,2,2,2,0,2,2,1,,,,,,,,4.9,620.5716419000019,625.4715909000006,625.471604359999,0.3049109000057797,625.9158801000012,625.9158801000012,n,0.612327800001367,627.6834789999994,627.6834789999994,13,1.094,,,sub-024,30,80,700,bloc_loop.csv,2023-06-14_10h24.38.537,PainUncertainty,2022.2.5,143.89441602000426,
grave,moderee,stimuli/330Hz,stimuli/moderee,bloc_3,prob80hthp_12trials.xlsx,2,24,80,20,0,,,,,0,2,2,2,0,3,3,3,,,,,,,,3.8,627.6834789999994,631.4862274999978,631.4861742600049,0.30516329999954905,631.9303823000009,631.9303823000009,n,0.7223012999966159,635.0814795999977,635.0814795999977,17,2.379,,,sub-024,30,80,700,bloc_loop.csv,2023-06-14_10h24.38.537,PainUncertainty,2022.2.5,143.89441602000426,
aigu,forte,stimuli/660Hz,stimuli/forte,bloc_3,prob80hthp_12trials.xlsx,2,24,80,20,0,,,,,0,2,2,2,0,4,4,10,,,,,,,,4.6,635.0814795999977,639.6820244999981,639.6821688600037,0.305890299998282,640.1332953000019,640.1332953000019,m,0.6175210000074003,643.6808376999979,643.6808376999979,74,2.865,,,sub-024,30,80,700,bloc_loop.csv,2023-06-14_10h24.38.537,PainUncertainty,2022.2.5,143.89441602000426,
aigu,forte,stimuli/660Hz,stimuli/forte,bloc_3,prob80hthp_12trials.xlsx,2,24,80,20,0,,,,,0,2,2,2,0,5,5,8,,,,,,,,4.4,643.6808376999979,648.0859897000046,648.0862192600041,0.30483510000340175,648.5345331999997,648.5345331999997,m,0.6049549000017578,651.2694683000009,651.2694683000009,77,2.079,,,sub-024,30,80,700,bloc_loop.csv,2023-06-14_10h24.38.537,PainUncertainty,2022.2.5,143.89441602000426,
aigu,moderee,stimuli/660Hz,stimuli/moderee,bloc_3,prob80hthp_12trials.xlsx,2,24,80,20,0,,,,,0,2,2,2,0,6,6,11,,,,,,,,4.9,651.2694683000009,656.1703885000024,656.1703298600048,0.3051188999961596,656.6188149000009,656.6188149000009,n,0.7092013000074076,661.1783798000033,661.1783798000033,15,3.795,,,sub-024,30,80,700,bloc_loop.csv,2023-06-14_10h24.38.537,PainUncertainty,2022.2.5,143.89441602000426,
aigu,forte,stimuli/660Hz,stimuli/forte,bloc_3,prob80hthp_12trials.xlsx,2,24,80,20,0,,,,,0,2,2,2,0,7,7,6,,,,,,,,3.6,661.1783798000033,664.7822960000049,664.7822376600022,0.3052453000054811,665.2308871999994,665.2308871999994,m,0.40663459999632323,668.1617680999989,668.1617680999989,71,2.463,,,sub-024,30,80,700,bloc_loop.csv,2023-06-14_10h24.38.537,PainUncertainty,2022.2.5,143.89441602000426,
grave,moderee,stimuli/330Hz,stimuli/moderee,bloc_3,prob80hthp_12trials.xlsx,2,24,80,20,0,,,,,0,2,2,2,0,8,8,0,,,,,,,,3.5,668.1617680999989,671.6647176000042,671.6648024600006,0.30540120000659954,672.1117434000043,672.1117434000043,n,0.4392523000060464,676.4394157999996,676.4394157999996,12,3.823,,,sub-024,30,80,700,bloc_loop.csv,2023-06-14_10h24.38.537,PainUncertainty,2022.2.5,143.89441602000426,
grave,moderee,stimuli/330Hz,stimuli/moderee,bloc_3,prob80hthp_12trials.xlsx,2,24,80,20,0,,,,,0,2,2,2,0,9,9,2,,,,,,,,3.7,676.4394157999996,680.1447545000046,680.1447790600002,0.3050766000014846,680.5891094000035,680.5891094000035,n,0.6944457999998122,685.1954681999996,685.1954681999996,18,3.857,,,sub-024,30,80,700,bloc_loop.csv,2023-06-14_10h24.38.537,PainUncertainty,2022.2.5,143.89441602000426,
aigu,forte,stimuli/660Hz,stimuli/forte,bloc_3,prob80hthp_12trials.xlsx,2,24,80,20,0,,,,,0,2,2,2,0,10,10,9,,,,,,,,3.8,685.1954681999996,689.0005080999981,689.0002643600026,0.304980599998089,689.4441472000035,689.4441472000035,m,0.540912099997513,692.596444499999,692.596444499999,73,2.544,,,sub-024,30,80,700,bloc_loop.csv,2023-06-14_10h24.38.537,PainUncertainty,2022.2.5,143.89441602000426,
grave,forte,stimuli/330Hz,stimuli/forte,bloc_3,prob80hthp_12trials.xlsx,2,24,80,20,0,,,,,0,2,2,2,0,11,11,5,,,,,,,,4.8,692.596444499999,697.3968180000011,697.3968403600018,0.3051138000009814,697.8412069999977,697.8412069999977,m,0.5578642999971635,701.6077188999989,701.6077188999989,76,3.151,,,sub-024,30,80,700,bloc_loop.csv,2023-06-14_10h24.38.537,PainUncertainty,2022.2.5,143.89441602000426,
grave,forte,stimuli/330Hz,stimuli/forte,bloc_3,prob80hthp_12trials.xlsx,2,24,80,20,0,,,,,0,2,2,2,1,0,12,5,,,,,,,,3.7,701.6077188999989,705.3075123000017,705.3074810600017,0.3050930999961565,705.7516453999997,705.7516453999997,m,0.9546687999973074,708.7032067000036,708.7032067000036,77,1.935,,,sub-024,30,80,700,bloc_loop.csv,2023-06-14_10h24.38.537,PainUncertainty,2022.2.5,143.89441602000426,
grave,moderee,stimuli/330Hz,stimuli/moderee,bloc_3,prob80hthp_12trials.xlsx,2,24,80,20,0,,,,,0,2,2,2,1,1,13,2,,,,,,,,4,708.7032067000036,712.7043202999994,712.7041976600019,0.3051927999986219,713.1488651000036,713.1488651000036,n,0.4838215999989188,715.5255045000013,715.5255045000013,16,1.836,,,sub-024,30,80,700,bloc_loop.csv,2023-06-14_10h24.38.537,PainUncertainty,2022.2.5,143.89441602000426,
aigu,moderee,stimuli/660Hz,stimuli/moderee,bloc_3,prob80hthp_12trials.xlsx,2,24,80,20,0,,,,,0,2,2,2,1,2,14,11,,,,,,,,4.4,715.5255045000013,719.9274623000019,719.9273317600025,0.3051171999977669,720.3715894999987,720.3715894999987,n,0.7276611999986926,724.9710724000033,724.9710724000033,13,3.808,,,sub-024,30,80,700,bloc_loop.csv,2023-06-14_10h24.38.537,PainUncertainty,2022.2.5,143.89441602000426,
grave,moderee,stimuli/330Hz,stimuli/moderee,bloc_3,prob80hthp_12trials.xlsx,2,24,80,20,0,,,,,0,2,2,2,1,3,15,1,,,,,,,,4.7,724.9710724000033,729.6716305000009,729.6716096600001,0.3062091999963741,730.119520100001,730.119520100001,n,0.5428978000054485,734.2872300000017,734.2872300000017,12,3.566,,,sub-024,30,80,700,bloc_loop.csv,2023-06-14_10h24.38.537,PainUncertainty,2022.2.5,143.89441602000426,
aigu,forte,stimuli/660Hz,stimuli/forte,bloc_3,prob80hthp_12trials.xlsx,2,24,80,20,0,,,,,0,2,2,2,1,4,16,7,,,,,,,,3.5,734.2872300000017,737.7910669999983,737.7909656600029,0.3051724000033573,738.2372623999981,738.2372623999981,m,0.4303026999987196,743.3003513000003,743.3003513000003,78,4.571,,,sub-024,30,80,700,bloc_loop.csv,2023-06-14_10h24.38.537,PainUncertainty,2022.2.5,143.89441602000426,
aigu,forte,stimuli/660Hz,stimuli/forte,bloc_3,prob80hthp_12trials.xlsx,2,24,80,20,0,,,,,0,2,2,2,1,5,17,9,,,,,,,,4.9,743.3003513000003,748.2015238000022,748.2014496600029,0.30530739999812795,748.6457678000006,748.6457678000006,m,0.7662182999993092,753.6847660999993,753.6847660999993,72,4.22,,,sub-024,30,80,700,bloc_loop.csv,2023-06-14_10h24.38.537,PainUncertainty,2022.2.5,143.89441602000426,
aigu,forte,stimuli/660Hz,stimuli/forte,bloc_3,prob80hthp_12trials.xlsx,2,24,80,20,0,,,,,0,2,2,2,1,6,18,10,,,,,,,,3.6,753.6847660999993,757.2862985000029,757.2864941599989,0.3047096000009333,757.730075600004,757.730075600004,m,0.5075579000040307,760.3003566999978,760.3003566999978,73,2.008,,,sub-024,30,80,700,bloc_loop.csv,2023-06-14_10h24.38.537,PainUncertainty,2022.2.5,143.89441602000426,
grave,moderee,stimuli/330Hz,stimuli/moderee,bloc_3,prob80hthp_12trials.xlsx,2,24,80,20,0,,,,,0,2,2,2,1,7,19,4,,,,,,,,3.2,760.3003566999978,763.5025803000026,763.5025558600034,0.3047579000049154,763.9467733999991,763.9467733999991,n,0.9080169999942882,767.922922400001,767.922922400001,17,3.004,,,sub-024,30,80,700,bloc_loop.csv,2023-06-14_10h24.38.537,PainUncertainty,2022.2.5,143.89441602000426,
aigu,forte,stimuli/660Hz,stimuli/forte,bloc_3,prob80hthp_12trials.xlsx,2,24,80,20,0,,,,,0,2,2,2,1,8,20,6,,,,,,,,4.5,767.922922400001,772.4266772999981,772.4267678600015,0.30507159999979194,772.8710941000027,772.8710941000027,m,0.5359008000014001,776.3600985000012,776.3600985000012,76,2.893,,,sub-024,30,80,700,bloc_loop.csv,2023-06-14_10h24.38.537,PainUncertainty,2022.2.5,143.89441602000426,
grave,moderee,stimuli/330Hz,stimuli/moderee,bloc_3,prob80hthp_12trials.xlsx,2,24,80,20,0,,,,,0,2,2,2,1,9,21,3,,,,,,,,4.8,776.3600985000012,781.1637562000033,781.1638235600046,0.30508820000250125,781.6080226999984,781.6080226999984,n,0.5016132000018843,783.9200264000028,783.9200264000028,11,1.747,,,sub-024,30,80,700,bloc_loop.csv,2023-06-14_10h24.38.537,PainUncertainty,2022.2.5,143.89441602000426,
aigu,forte,stimuli/660Hz,stimuli/forte,bloc_3,prob80hthp_12trials.xlsx,2,24,80,20,0,,,,,0,2,2,2,1,10,22,8,,,,,,,,3.4,783.9200264000028,787.3245277000024,787.3247208600012,0.3047130999984802,787.7688075999977,787.7688075999977,m,0.3665294000020367,793.3315253000037,793.3315253000037,73,5.135,,,sub-024,30,80,700,bloc_loop.csv,2023-06-14_10h24.38.537,PainUncertainty,2022.2.5,143.89441602000426,
grave,moderee,stimuli/330Hz,stimuli/moderee,bloc_3,prob80hthp_12trials.xlsx,2,24,80,20,0,,,,,0,2,2,2,1,11,23,0,,,,,,,,3.9,793.3315253000037,797.2352892999988,797.2352967600025,0.30497660000401083,797.6801362999977,797.6801362999977,n,0.5469242000035592,801.7853496000025,801.7853496000025,12,3.49,,,sub-024,30,80,700,bloc_loop.csv,2023-06-14_10h24.38.537,PainUncertainty,2022.2.5,143.89441602000426,
aigu,forte,stimuli/660Hz,stimuli/forte,bloc_4,prob50_50_4trials.xlsx,2,8,50,50,1,,,,,0,3,3,3,0,0,0,3,,,,,,,,4.4,801.7853496000025,806.1878138000029,806.1877846600044,0.30460820000007516,806.632157,806.632157,m,0.32670599999983096,810.6851548999985,810.6851548999985,75,3.628,,,sub-024,30,80,700,bloc_loop.csv,2023-06-14_10h24.38.537,PainUncertainty,2022.2.5,143.89441602000426,
grave,forte,stimuli/330Hz,stimuli/forte,bloc_4,prob50_50_4trials.xlsx,2,8,50,50,1,,,,,0,3,3,3,0,1,1,1,,,,,,,,3.9,810.6851548999985,814.5845241999996,814.5844414600003,0.29974209999636514,815.0279892000035,815.0279892000035,m,0.5705842000024859,817.2207322000031,817.2207322000031,77,1.568,,,sub-024,30,80,700,bloc_loop.csv,2023-06-14_10h24.38.537,PainUncertainty,2022.2.5,143.89441602000426,
grave,moderee,stimuli/330Hz,stimuli/moderee,bloc_4,prob50_50_4trials.xlsx,2,8,50,50,1,,,,,0,3,3,3,0,2,2,0,,,,,,,,4.7,817.2207322000031,821.9259562000007,821.9259162599999,0.3049327999979141,822.3698202000014,822.3698202000014,n,0.5658271000065724,826.1532433000029,826.1532433000029,14,3.163,,,sub-024,30,80,700,bloc_loop.csv,2023-06-14_10h24.38.537,PainUncertainty,2022.2.5,143.89441602000426,
aigu,moderee,stimuli/660Hz,stimuli/moderee,bloc_4,prob50_50_4trials.xlsx,2,8,50,50,1,,,,,0,3,3,3,0,3,3,2,,,,,,,,4.4,826.1532433000029,830.5586060999995,830.558695860004,0.30493530000239844,831.0028443000047,831.0028443000047,n,0.6983338000063668,835.118693700002,835.118693700002,15,3.364,,,sub-024,30,80,700,bloc_loop.csv,2023-06-14_10h24.38.537,PainUncertainty,2022.2.5,143.89441602000426,
grave,forte,stimuli/330Hz,stimuli/forte,bloc_4,prob50_50_4trials.xlsx,2,8,50,50,1,,,,,0,3,3,3,1,0,4,1,,,,,,,,4.1,835.118693700002,839.2197077000019,839.219654360001,0.3048341999965487,839.6635817999995,839.6635817999995,m,0.5027350999953342,843.3002458000046,843.3002458000046,73,3.08,,,sub-024,30,80,700,bloc_loop.csv,2023-06-14_10h24.38.537,PainUncertainty,2022.2.5,143.89441602000426,
aigu,forte,stimuli/660Hz,stimuli/forte,bloc_4,prob50_50_4trials.xlsx,2,8,50,50,1,,,,,0,3,3,3,1,1,5,3,,,,,,,,3.5,843.3002458000046,846.803986400002,846.8041001600002,0.30531739999423735,847.2506761000041,847.2506761000041,m,0.46584620000066934,852.8885172000009,852.8885172000009,73,5.113,,,sub-024,30,80,700,bloc_loop.csv,2023-06-14_10h24.38.537,PainUncertainty,2022.2.5,143.89441602000426,
aigu,moderee,stimuli/660Hz,stimuli/moderee,bloc_4,prob50_50_4trials.xlsx,2,8,50,50,1,,,,,0,3,3,3,1,2,6,2,,,,,,,,3.8,852.8885172000009,856.6936535999994,856.693705960003,0.3053626000037184,857.1408434000041,857.1408434000041,n,1.0625016999983927,860.6716967000029,860.6716967000029,15,2.413,,,sub-024,30,80,700,bloc_loop.csv,2023-06-14_10h24.38.537,PainUncertainty,2022.2.5,143.89441602000426,
grave,moderee,stimuli/330Hz,stimuli/moderee,bloc_4,prob50_50_4trials.xlsx,2,8,50,50,1,,,,,0,3,3,3,1,3,7,0,,,,,,,,3.3,860.6716967000029,863.9724694000033,863.9723700600014,0.30555610000010347,864.4208575000011,864.4208575000011,n,0.5146715000009863,871.5731599999999,871.5731599999999,14,4.61,,,sub-024,30,80,700,bloc_loop.csv,2023-06-14_10h24.38.537,PainUncertainty,2022.2.5,143.89441602000426,
,,,,bloc_4,prob50_50_4trials.xlsx,2,8,50,50,1,,,,,0,3,3,3,,,,,0,0,0,0,,,,,,,,,,,,,,,,,871.5731599999999,892.7681110000049,sub-024,30,80,700,bloc_loop.csv,2023-06-14_10h24.38.537,PainUncertainty,2022.2.5,143.89441602000426,
grave,forte,stimuli/330Hz,stimuli/forte,bloc_5,prob20hthp_12trials.xlsx,2,24,20,80,0,,,,,0,4,4,4,0,0,0,2,,,,,,,,3.3,893.8306223000036,897.1296756000011,897.1296708599991,0.2997730999995838,897.5739619000014,897.5739619000014,m,0.5717948999954388,902.4897675000029,902.4897675000029,69,4.29,,,sub-024,30,80,700,bloc_loop.csv,2023-06-14_10h24.38.537,PainUncertainty,2022.2.5,143.89441602000426,
grave,moderee,stimuli/330Hz,stimuli/moderee,bloc_5,prob20hthp_12trials.xlsx,2,24,20,80,0,,,,,0,4,4,4,0,1,1,5,,,,,,,,4.3,902.4897675000029,906.7900607000047,906.7902789599982,0.3053810999990674,907.2393429000003,907.2393429000003,n,0.46478170000045793,910.8314929000044,910.8314929000044,13,3.067,,,sub-024,30,80,700,bloc_loop.csv,2023-06-14_10h24.38.537,PainUncertainty,2022.2.5,143.89441602000426,
aigu,moderee,stimuli/660Hz,stimuli/moderee,bloc_5,prob20hthp_12trials.xlsx,2,24,20,80,0,,,,,0,4,4,4,0,2,2,6,,,,,,,,4.9,910.8314929000044,915.7361309000044,915.736979959999,0.3037205999935395,916.1801560000022,916.1801560000022,n,0.5322652999966522,920.9784293999983,920.9784293999983,12,4.213,,,sub-024,30,80,700,bloc_loop.csv,2023-06-14_10h24.38.537,PainUncertainty,2022.2.5,143.89441602000426,
grave,forte,stimuli/330Hz,stimuli/forte,bloc_5,prob20hthp_12trials.xlsx,2,24,20,80,0,,,,,0,4,4,4,0,3,3,3,,,,,,,,3.9,920.9784293999983,924.8824995000032,924.8823141600012,0.30521710000175517,925.3266180999999,925.3266180999999,m,0.49597100000391947,930.4086681999979,930.4086681999979,74,4.519,,,sub-024,30,80,700,bloc_loop.csv,2023-06-14_10h24.38.537,PainUncertainty,2022.2.5,143.89441602000426,
grave,forte,stimuli/330Hz,stimuli/forte,bloc_5,prob20hthp_12trials.xlsx,2,24,20,80,0,,,,,0,4,4,4,0,4,4,1,,,,,,,,3.7,930.4086681999979,934.1131010000026,934.1129914600031,0.30472229999577394,934.5568830999982,934.5568830999982,m,0.49192040000343695,939.0992651999986,939.0992651999986,79,3.995,,,sub-024,30,80,700,bloc_loop.csv,2023-06-14_10h24.38.537,PainUncertainty,2022.2.5,143.89441602000426,
aigu,moderee,stimuli/660Hz,stimuli/moderee,bloc_5,prob20hthp_12trials.xlsx,2,24,20,80,0,,,,,0,4,4,4,0,5,5,8,,,,,,,,3.3,939.0992651999986,942.3983292999983,942.3983731600026,0.30499260000215145,942.8424270000032,942.8424270000032,n,0.4192325999974855,945.4766406999988,945.4766406999988,15,2.158,,,sub-024,30,80,700,bloc_loop.csv,2023-06-14_10h24.38.537,PainUncertainty,2022.2.5,143.89441602000426,
aigu,moderee,stimuli/660Hz,stimuli/moderee,bloc_5,prob20hthp_12trials.xlsx,2,24,20,80,0,,,,,0,4,4,4,0,6,6,7,,,,,,,,4.4,945.4766406999988,949.8784846999988,949.8785546600054,0.30483950000052573,950.3227531000011,950.3227531000011,n,0.8894660000005388,953.3860983999984,953.3860983999984,13,2.108,,,sub-024,30,80,700,bloc_loop.csv,2023-06-14_10h24.38.537,PainUncertainty,2022.2.5,143.89441602000426,
grave,forte,stimuli/330Hz,stimuli/forte,bloc_5,prob20hthp_12trials.xlsx,2,24,20,80,0,,,,,0,4,4,4,0,7,7,4,,,,,,,,3.5,953.3860983999984,956.8861775000041,956.8861143600013,0.3053081000034581,957.3308659000031,957.3308659000031,m,0.5580059999992955,961.8889542000034,961.8889542000034,73,3.935,,,sub-024,30,80,700,bloc_loop.csv,2023-06-14_10h24.38.537,PainUncertainty,2022.2.5,143.89441602000426,
aigu,moderee,stimuli/660Hz,stimuli/moderee,bloc_5,prob20hthp_12trials.xlsx,2,24,20,80,0,,,,,0,4,4,4,0,8,8,9,,,,,,,,4.1,961.8889542000034,965.9914303999976,965.9914106600052,0.30521410000073956,966.4356800000023,966.4356800000023,n,0.5743296000000555,971.1715066000033,971.1715066000033,19,4.109,,,sub-024,30,80,700,bloc_loop.csv,2023-06-14_10h24.38.537,PainUncertainty,2022.2.5,143.89441602000426,
grave,forte,stimuli/330Hz,stimuli/forte,bloc_5,prob20hthp_12trials.xlsx,2,24,20,80,0,,,,,0,4,4,4,0,9,9,0,,,,,,,,3.4,971.1715066000033,974.5762299999988,974.5780561600047,0.3031319000001531,975.0206653999994,975.0206653999994,m,0.40171320000081323,980.2483321000036,980.2483321000036,78,4.775,,,sub-024,30,80,700,bloc_loop.csv,2023-06-14_10h24.38.537,PainUncertainty,2022.2.5,143.89441602000426,
aigu,moderee,stimuli/660Hz,stimuli/moderee,bloc_5,prob20hthp_12trials.xlsx,2,24,20,80,0,,,,,0,4,4,4,0,10,10,10,,,,,,,,3.3,980.2483321000036,983.5494636000003,983.5495050600009,0.3048770000023069,983.9936746000021,983.9936746000021,n,0.36552739999751793,987.8558000999983,987.8558000999983,16,3.441,,,sub-024,30,80,700,bloc_loop.csv,2023-06-14_10h24.38.537,PainUncertainty,2022.2.5,143.89441602000426,
aigu,forte,stimuli/660Hz,stimuli/forte,bloc_5,prob20hthp_12trials.xlsx,2,24,20,80,0,,,,,0,4,4,4,0,11,11,11,,,,,,,,4,987.8558000999983,991.8559576999978,991.8559238599998,0.305169899998873,992.3041081999982,992.3041081999982,m,0.4476844999953755,996.3724445999978,996.3724445999978,78,3.559,,,sub-024,30,80,700,bloc_loop.csv,2023-06-14_10h24.38.537,PainUncertainty,2022.2.5,143.89441602000426,
grave,forte,stimuli/330Hz,stimuli/forte,bloc_5,prob20hthp_12trials.xlsx,2,24,20,80,0,,,,,0,4,4,4,1,0,12,3,,,,,,,,3.4,996.3724445999978,999.7737011999998,999.773700260005,0.30485439999756636,1000.2180202000018,1000.2180202000018,m,0.45962370000052033,1005.2727884999986,1005.2727884999986,71,4.538,,,sub-024,30,80,700,bloc_loop.csv,2023-06-14_10h24.38.537,PainUncertainty,2022.2.5,143.89441602000426,
aigu,moderee,stimuli/660Hz,stimuli/moderee,bloc_5,prob20hthp_12trials.xlsx,2,24,20,80,0,,,,,0,4,4,4,1,1,13,8,,,,,,,,3.4,1005.2727884999986,1008.6797655999981,1008.6778481599983,0.304632399995171,1009.1286078000048,1009.1286078000048,n,0.5833086999991792,1011.553027300004,1011.553027300004,14,1.781,,,sub-024,30,80,700,bloc_loop.csv,2023-06-14_10h24.38.537,PainUncertainty,2022.2.5,143.89441602000426,
grave,moderee,stimuli/330Hz,stimuli/moderee,bloc_5,prob20hthp_12trials.xlsx,2,24,20,80,0,,,,,0,4,4,4,1,2,14,5,,,,,,,,3.3,1011.553027300004,1014.8585538000043,1014.8586300600007,0.3050074999991921,1015.3027239000003,1015.3027239000003,n,0.4604609000016353,1018.3938552000036,1018.3938552000036,14,2.572,,,sub-024,30,80,700,bloc_loop.csv,2023-06-14_10h24.38.537,PainUncertainty,2022.2.5,143.89441602000426,
aigu,moderee,stimuli/660Hz,stimuli/moderee,bloc_5,prob20hthp_12trials.xlsx,2,24,20,80,0,,,,,0,4,4,4,1,3,15,7,,,,,,,,3.8,1018.3938552000036,1022.200050600004,1022.200005160005,0.2996885000029579,1022.6444394999999,1022.6444394999999,n,0.5196015000037733,1025.9354669000022,1025.9354669000022,15,2.72,,,sub-024,30,80,700,bloc_loop.csv,2023-06-14_10h24.38.537,PainUncertainty,2022.2.5,143.89441602000426,
grave,forte,stimuli/330Hz,stimuli/forte,bloc_5,prob20hthp_12trials.xlsx,2,24,20,80,0,,,,,0,4,4,4,1,4,16,1,,,,,,,,3.6,1025.9354669000022,1029.540696199998,1029.5406793599984,0.3051313999967533,1029.984889899999,1029.984889899999,m,0.39368280000053346,1032.9669977000012,1032.9669977000012,69,2.525,,,sub-024,30,80,700,bloc_loop.csv,2023-06-14_10h24.38.537,PainUncertainty,2022.2.5,143.89441602000426,
aigu,forte,stimuli/660Hz,stimuli/forte,bloc_5,prob20hthp_12trials.xlsx,2,24,20,80,0,,,,,0,4,4,4,1,5,17,11,,,,,,,,3.9,1032.9669977000012,1036.8703381000014,1036.8686095599994,0.30465410000033444,1037.3129707000044,1037.3129707000044,m,0.5660218000048189,1041.7239478999982,1041.7239478999982,75,3.781,,,sub-024,30,80,700,bloc_loop.csv,2023-06-14_10h24.38.537,PainUncertainty,2022.2.5,143.89441602000426,
grave,forte,stimuli/330Hz,stimuli/forte,bloc_5,prob20hthp_12trials.xlsx,2,24,20,80,0,,,,,0,4,4,4,1,6,18,4,,,,,,,,3.5,1041.7239478999982,1045.223559500002,1045.2236223599982,0.3046853999985615,1045.668093799999,1045.668093799999,m,0.5041290000008303,1049.776631300003,1049.776631300003,72,3.552,,,sub-024,30,80,700,bloc_loop.csv,2023-06-14_10h24.38.537,PainUncertainty,2022.2.5,143.89441602000426,
grave,forte,stimuli/330Hz,stimuli/forte,bloc_5,prob20hthp_12trials.xlsx,2,24,20,80,0,,,,,0,4,4,4,1,7,19,2,,,,,,,,4.1,1049.776631300003,1053.8769805999982,1053.8770475600038,0.30160130000149366,1054.3216466000013,1054.3216466000013,m,0.35310829999798443,1057.8941342000035,1057.8941342000035,75,3.172,,,sub-024,30,80,700,bloc_loop.csv,2023-06-14_10h24.38.537,PainUncertainty,2022.2.5,143.89441602000426,
aigu,moderee,stimuli/660Hz,stimuli/moderee,bloc_5,prob20hthp_12trials.xlsx,2,24,20,80,0,,,,,0,4,4,4,1,8,20,6,,,,,,,,4.9,1057.8941342000035,1062.7946808999986,1062.7946722600034,0.29992720000154804,1063.2392015000005,1063.2392015000005,n,0.5312559000012698,1067.5143915000008,1067.5143915000008,14,3.691,,,sub-024,30,80,700,bloc_loop.csv,2023-06-14_10h24.38.537,PainUncertainty,2022.2.5,143.89441602000426,
aigu,moderee,stimuli/660Hz,stimuli/moderee,bloc_5,prob20hthp_12trials.xlsx,2,24,20,80,0,,,,,0,4,4,4,1,9,21,9,,,,,,,,3.6,1067.5143915000008,1071.1151802000022,1071.1150766600047,0.3056797000026563,1071.5645403000017,1071.5645403000017,n,0.4218304000023636,1073.8742502000023,1073.8742502000023,13,1.829,,,sub-024,30,80,700,bloc_loop.csv,2023-06-14_10h24.38.537,PainUncertainty,2022.2.5,143.89441602000426,
grave,forte,stimuli/330Hz,stimuli/forte,bloc_5,prob20hthp_12trials.xlsx,2,24,20,80,0,,,,,0,4,4,4,1,10,22,0,,,,,,,,4.7,1073.8742502000023,1078.5765642000042,1078.5747182600032,0.304960100002063,1079.0230119999978,1079.0230119999978,m,0.4154216000024462,1083.3348553000033,1083.3348553000033,75,3.845,,,sub-024,30,80,700,bloc_loop.csv,2023-06-14_10h24.38.537,PainUncertainty,2022.2.5,143.89441602000426,
aigu,moderee,stimuli/660Hz,stimuli/moderee,bloc_5,prob20hthp_12trials.xlsx,2,24,20,80,0,,,,,0,4,4,4,1,11,23,10,,,,,,,,4.4,1083.3348553000033,1087.7352143000026,1087.7351297600042,0.3056464999972377,1088.1850262000007,1088.1850262000007,n,0.7282111000022269,1093.0041848000037,1093.0041848000037,14,4.031,,,sub-024,30,80,700,bloc_loop.csv,2023-06-14_10h24.38.537,PainUncertainty,2022.2.5,143.89441602000426,
grave,moderee,stimuli/330Hz,stimuli/moderee,bloc_6,prob50_50_4trials.xlsx,2,8,50,50,0,,,,,0,5,5,5,0,0,0,0,,,,,,,,3,1093.0041848000037,1096.007392899999,1096.0076139599994,0.30117210000025807,1096.4521190000014,1096.4521190000014,n,0.7186874000035459,1100.960665700004,1100.960665700004,10,3.732,,,sub-024,30,80,700,bloc_loop.csv,2023-06-14_10h24.38.537,PainUncertainty,2022.2.5,143.89441602000426,
aigu,forte,stimuli/660Hz,stimuli/forte,bloc_6,prob50_50_4trials.xlsx,2,8,50,50,0,,,,,0,5,5,5,0,1,1,3,,,,,,,,4.7,1100.960665700004,1105.6608945000044,1105.6609630600003,0.3049821999957203,1106.1097249000013,1106.1097249000013,m,0.5308069000020623,1112.2105207999994,1112.2105207999994,72,5.518,,,sub-024,30,80,700,bloc_loop.csv,2023-06-14_10h24.38.537,PainUncertainty,2022.2.5,143.89441602000426,
grave,forte,stimuli/330Hz,stimuli/forte,bloc_6,prob50_50_4trials.xlsx,2,8,50,50,0,,,,,0,5,5,5,0,2,2,1,,,,,,,,4.4,1112.2105207999994,1116.6135576000015,1116.6135485600032,0.30563520000578137,1117.0617906000043,1117.0617906000043,m,0.43843110000307206,1121.272686700002,1121.272686700002,76,3.719,,,sub-024,30,80,700,bloc_loop.csv,2023-06-14_10h24.38.537,PainUncertainty,2022.2.5,143.89441602000426,
aigu,moderee,stimuli/660Hz,stimuli/moderee,bloc_6,prob50_50_4trials.xlsx,2,8,50,50,0,,,,,0,5,5,5,0,3,3,2,,,,,,,,3.4,1121.272686700002,1124.677027400001,1124.6769919600054,0.30510420000064187,1125.1218380999999,1125.1218380999999,n,0.5246796999999788,1127.936353099998,1127.936353099998,13,2.227,,,sub-024,30,80,700,bloc_loop.csv,2023-06-14_10h24.38.537,PainUncertainty,2022.2.5,143.89441602000426,
grave,forte,stimuli/330Hz,stimuli/forte,bloc_6,prob50_50_4trials.xlsx,2,8,50,50,0,,,,,0,5,5,5,1,0,4,1,,,,,,,,3.5,1127.936353099998,1131.442071999998,1131.4418513600037,0.3048368000017945,1131.8859022000033,1131.8859022000033,m,0.5817053000064334,1135.3030548000024,1135.3030548000024,75,2.775,,,sub-024,30,80,700,bloc_loop.csv,2023-06-14_10h24.38.537,PainUncertainty,2022.2.5,143.89441602000426,
grave,moderee,stimuli/330Hz,stimuli/moderee,bloc_6,prob50_50_4trials.xlsx,2,8,50,50,0,,,,,0,5,5,5,1,1,5,0,,,,,,,,3.8,1135.3030548000024,1139.102829000003,1139.103583060002,0.30457740000565536,1139.5513197000037,1139.5513197000037,n,0.5090449999988778,1144.651027400003,1144.651027400003,14,4.532,,,sub-024,30,80,700,bloc_loop.csv,2023-06-14_10h24.38.537,PainUncertainty,2022.2.5,143.89441602000426,
aigu,moderee,stimuli/660Hz,stimuli/moderee,bloc_6,prob50_50_4trials.xlsx,2,8,50,50,0,,,,,0,5,5,5,1,2,6,2,,,,,,,,3.3,1144.651027400003,1147.9507243999979,1147.9507047599989,0.30510119999962626,1148.395027999999,1148.395027999999,n,0.4436636000027647,1150.4672397000031,1150.4672397000031,12,1.568,,,sub-024,30,80,700,bloc_loop.csv,2023-06-14_10h24.38.537,PainUncertainty,2022.2.5,143.89441602000426,
aigu,forte,stimuli/660Hz,stimuli/forte,bloc_6,prob50_50_4trials.xlsx,2,8,50,50,0,,,,,0,5,5,5,1,3,7,3,,,,,,,,4.5,1150.4672397000031,1154.9728287000034,1154.9727177600005,0.3049763000017265,1155.4165844000017,1155.4165844000017,m,0.7186345000009169,1159.2878711000012,1159.2878711000012,77,3.094,,,sub-024,30,80,700,bloc_loop.csv,2023-06-14_10h24.38.537,PainUncertainty,2022.2.5,143.89441602000426,
grave,forte,stimuli/330Hz,stimuli/forte,bloc_7,prob80hthp_12trials.xlsx,2,24,80,20,1,,,,,0,6,6,6,0,0,0,5,,,,,,,,4.4,1159.2878711000012,1163.6886849000002,1163.6887301600007,0.3049068999971496,1164.1331475999978,1164.1331475999978,m,0.5774794000026304,1168.8613862999991,1168.8613862999991,77,4.086,,,sub-024,30,80,700,bloc_loop.csv,2023-06-14_10h24.38.537,PainUncertainty,2022.2.5,143.89441602000426,
grave,moderee,stimuli/330Hz,stimuli/moderee,bloc_7,prob80hthp_12trials.xlsx,2,24,80,20,1,,,,,0,6,6,6,0,1,1,3,,,,,,,,3.5,1168.8613862999991,1172.363356599999,1172.3633070600051,0.30544299999746727,1172.8116072999983,1172.8116072999983,n,0.4646035000041593,1175.4456430999999,1175.4456430999999,11,2.102,,,sub-024,30,80,700,bloc_loop.csv,2023-06-14_10h24.38.537,PainUncertainty,2022.2.5,143.89441602000426,
aigu,forte,stimuli/660Hz,stimuli/forte,bloc_7,prob80hthp_12trials.xlsx,2,24,80,20,1,,,,,0,6,6,6,0,2,2,7,,,,,,,,4.2,1175.4456430999999,1179.6489675999983,1179.6490293600007,0.3002319000006537,1180.0938367999988,1180.0938367999988,m,0.4457555000044522,1185.2734257000047,1185.2734257000047,75,4.664,,,sub-024,30,80,700,bloc_loop.csv,2023-06-14_10h24.38.537,PainUncertainty,2022.2.5,143.89441602000426,
grave,moderee,stimuli/330Hz,stimuli/moderee,bloc_7,prob80hthp_12trials.xlsx,2,24,80,20,1,,,,,0,6,6,6,0,3,3,4,,,,,,,,3.8,1185.2734257000047,1189.0736646000005,1189.0736055599998,0.30510250000224914,1189.5182681000006,1189.5182681000006,n,0.5097287000025972,1191.7126059000002,1191.7126059000002,13,1.622,,,sub-024,30,80,700,bloc_loop.csv,2023-06-14_10h24.38.537,PainUncertainty,2022.2.5,143.89441602000426,
aigu,forte,stimuli/660Hz,stimuli/forte,bloc_7,prob80hthp_12trials.xlsx,2,24,80,20,1,,,,,0,6,6,6,0,4,4,8,,,,,,,,4.4,1191.7126059000002,1196.116161500002,1196.1160289600018,0.30522080000082497,1196.5603181000042,1196.5603181000042,m,0.826128399996378,1201.4607688000033,1201.4607688000033,76,4.011,,,sub-024,30,80,700,bloc_loop.csv,2023-06-14_10h24.38.537,PainUncertainty,2022.2.5,143.89441602000426,
aigu,forte,stimuli/660Hz,stimuli/forte,bloc_7,prob80hthp_12trials.xlsx,2,24,80,20,1,,,,,0,6,6,6,0,5,5,9,,,,,,,,3.1,1201.4607688000033,1204.5616104,1204.5615887600004,0.30510990000038873,1205.0077899000025,1205.0077899000025,m,0.557348299997102,1209.3073846000043,1209.3073846000043,79,3.678,,,sub-024,30,80,700,bloc_loop.csv,2023-06-14_10h24.38.537,PainUncertainty,2022.2.5,143.89441602000426,
grave,moderee,stimuli/330Hz,stimuli/moderee,bloc_7,prob80hthp_12trials.xlsx,2,24,80,20,1,,,,,0,6,6,6,0,6,6,2,,,,,,,,3.2,1209.3073846000043,1212.5073109000004,1212.5073803600033,0.30467510000016773,1212.9514191999988,1212.9514191999988,n,0.3765572999982396,1215.8277757000033,1215.8277757000033,12,2.441,,,sub-024,30,80,700,bloc_loop.csv,2023-06-14_10h24.38.537,PainUncertainty,2022.2.5,143.89441602000426,
aigu,moderee,stimuli/660Hz,stimuli/moderee,bloc_7,prob80hthp_12trials.xlsx,2,24,80,20,1,,,,,0,6,6,6,0,7,7,11,,,,,,,,3.5,1215.8277757000033,1219.327227200003,1219.3273684599997,0.3048770999957924,1219.7722319000022,1219.7722319000022,n,0.6485334000026342,1223.5445117999989,1223.5445117999989,11,3.06,,,sub-024,30,80,700,bloc_loop.csv,2023-06-14_10h24.38.537,PainUncertainty,2022.2.5,143.89441602000426,
aigu,forte,stimuli/660Hz,stimuli/forte,bloc_7,prob80hthp_12trials.xlsx,2,24,80,20,1,,,,,0,6,6,6,0,8,8,10,,,,,,,,4.7,1223.5445117999989,1228.2449371000039,1228.2448920600007,0.3051804999995511,1228.689167000004,1228.689167000004,m,0.428579899999022,1232.6844711000012,1232.6844711000012,78,3.51,,,sub-024,30,80,700,bloc_loop.csv,2023-06-14_10h24.38.537,PainUncertainty,2022.2.5,143.89441602000426,
grave,moderee,stimuli/330Hz,stimuli/moderee,bloc_7,prob80hthp_12trials.xlsx,2,24,80,20,1,,,,,0,6,6,6,0,9,9,1,,,,,,,,4.7,1232.6844711000012,1237.3856252999976,1237.3853514599984,0.3055316000027233,1237.8339444000012,1237.8339444000012,n,0.5102874000003794,1239.6680553999977,1239.6680553999977,14,1.268,,,sub-024,30,80,700,bloc_loop.csv,2023-06-14_10h24.38.537,PainUncertainty,2022.2.5,143.89441602000426,
grave,moderee,stimuli/330Hz,stimuli/moderee,bloc_7,prob80hthp_12trials.xlsx,2,24,80,20,1,,,,,0,6,6,6,0,10,10,0,,,,,,,,4,1239.6680553999977,1243.6708196000036,1243.670937360003,0.3050149000046076,1244.1184465999977,1244.1184465999977,n,0.7563039000015124,1246.9891000999996,1246.9891000999996,13,2.046,,,sub-024,30,80,700,bloc_loop.csv,2023-06-14_10h24.38.537,PainUncertainty,2022.2.5,143.89441602000426,
aigu,forte,stimuli/660Hz,stimuli/forte,bloc_7,prob80hthp_12trials.xlsx,2,24,80,20,1,,,,,0,6,6,6,0,11,11,6,,,,,,,,3.7,1246.9891000999996,1250.692151000003,1250.6921463600017,0.305081100006646,1251.1364841000031,1251.1364841000031,m,0.41380900000513066,1253.6358141000019,1253.6358141000019,76,2.031,,,sub-024,30,80,700,bloc_loop.csv,2023-06-14_10h24.38.537,PainUncertainty,2022.2.5,143.89441602000426,
aigu,forte,stimuli/660Hz,stimuli/forte,bloc_7,prob80hthp_12trials.xlsx,2,24,80,20,1,,,,,0,6,6,6,1,0,12,8,,,,,,,,3.9,1253.6358141000019,1257.540157299998,1257.540193059999,0.3050922000038554,1257.9842941000024,1257.9842941000024,m,0.4002928999980213,1260.9697247000004,1260.9697247000004,77,2.525,,,sub-024,30,80,700,bloc_loop.csv,2023-06-14_10h24.38.537,PainUncertainty,2022.2.5,143.89441602000426,
grave,moderee,stimuli/330Hz,stimuli/moderee,bloc_7,prob80hthp_12trials.xlsx,2,24,80,20,1,,,,,0,6,6,6,1,1,13,0,,,,,,,,3.5,1260.9697247000004,1264.4721101000032,1264.472110360003,0.30441780000546714,1264.9159937000004,1264.9159937000004,n,0.6346583000049577,1267.9699259000045,1267.9699259000045,14,2.358,,,sub-024,30,80,700,bloc_loop.csv,2023-06-14_10h24.38.537,PainUncertainty,2022.2.5,143.89441602000426,
grave,forte,stimuli/330Hz,stimuli/forte,bloc_7,prob80hthp_12trials.xlsx,2,24,80,20,1,,,,,0,6,6,6,1,2,14,5,,,,,,,,4,1267.9699259000045,1271.9724723000036,1271.972471560003,0.30751259999669855,1272.4240451000005,1272.4240451000005,m,0.5356949999986682,1278.1341987999986,1278.1341987999986,75,5.109,,,sub-024,30,80,700,bloc_loop.csv,2023-06-14_10h24.38.537,PainUncertainty,2022.2.5,143.89441602000426,
aigu,forte,stimuli/660Hz,stimuli/forte,bloc_7,prob80hthp_12trials.xlsx,2,24,80,20,1,,,,,0,6,6,6,1,3,15,6,,,,,,,,3,1278.1341987999986,1281.1400976000004,1281.140097260003,0.3051839000036125,1281.5844257999997,1281.5844257999997,m,0.54091850000259,1284.3495592000036,1284.3495592000036,72,2.17,,,sub-024,30,80,700,bloc_loop.csv,2023-06-14_10h24.38.537,PainUncertainty,2022.2.5,143.89441602000426,
grave,moderee,stimuli/330Hz,stimuli/moderee,bloc_7,prob80hthp_12trials.xlsx,2,24,80,20,1,,,,,0,6,6,6,1,4,16,1,,,,,,,,3.6,1284.3495592000036,1287.9537598000024,1287.954415660003,0.30426509999961127,1288.3976962000015,1288.3976962000015,n,0.45394929999747546,1292.3859672000035,1292.3859672000035,12,3.473,,,sub-024,30,80,700,bloc_loop.csv,2023-06-14_10h24.38.537,PainUncertainty,2022.2.5,143.89441602000426,
aigu,forte,stimuli/660Hz,stimuli/forte,bloc_7,prob80hthp_12trials.xlsx,2,24,80,20,1,,,,,0,6,6,6,1,5,17,7,,,,,,,,4.5,1292.3859672000035,1296.884950300002,1296.8850146600023,0.30524050000531133,1297.3292242000025,1297.3292242000025,m,0.4639770000067074,1302.8370214000024,1302.8370214000024,79,4.992,,,sub-024,30,80,700,bloc_loop.csv,2023-06-14_10h24.38.537,PainUncertainty,2022.2.5,143.89441602000426,
aigu,forte,stimuli/660Hz,stimuli/forte,bloc_7,prob80hthp_12trials.xlsx,2,24,80,20,1,,,,,0,6,6,6,1,6,18,10,,,,,,,,4.2,1302.8370214000024,1307.038976900003,1307.039034959999,0.30514319999929285,1307.4832827999999,1307.4832827999999,m,0.39284820000466425,1310.0931891,1310.0931891,76,2.164,,,sub-024,30,80,700,bloc_loop.csv,2023-06-14_10h24.38.537,PainUncertainty,2022.2.5,143.89441602000426,
grave,moderee,stimuli/330Hz,stimuli/moderee,bloc_7,prob80hthp_12trials.xlsx,2,24,80,20,1,,,,,0,6,6,6,1,7,19,2,,,,,,,,4.8,1310.0931891,1314.8941029999987,1314.8940819600036,0.30581399999937275,1315.3436912000034,1315.3436912000034,n,0.5077701000045636,1318.0507580000049,1318.0507580000049,15,2.142,,,sub-024,30,80,700,bloc_loop.csv,2023-06-14_10h24.38.537,PainUncertainty,2022.2.5,143.89441602000426,
aigu,moderee,stimuli/660Hz,stimuli/moderee,bloc_7,prob80hthp_12trials.xlsx,2,24,80,20,1,,,,,0,6,6,6,1,8,20,11,,,,,,,,3,1318.0507580000049,1321.0546113000019,1321.0545795600053,0.3051653000002261,1321.499072999999,1321.499072999999,n,0.8464048999958322,1326.0241975000026,1326.0241975000026,12,3.629,,,sub-024,30,80,700,bloc_loop.csv,2023-06-14_10h24.38.537,PainUncertainty,2022.2.5,143.89441602000426,
aigu,forte,stimuli/660Hz,stimuli/forte,bloc_7,prob80hthp_12trials.xlsx,2,24,80,20,1,,,,,0,6,6,6,1,9,21,9,,,,,,,,3.9,1326.0241975000026,1329.9248039000013,1329.924196960005,0.30472980000195093,1330.3680540999994,1330.3680540999994,m,0.5288927000001422,1334.1742464999988,1334.1742464999988,77,3.212,,,sub-024,30,80,700,bloc_loop.csv,2023-06-14_10h24.38.537,PainUncertainty,2022.2.5,143.89441602000426,
grave,moderee,stimuli/330Hz,stimuli/moderee,bloc_7,prob80hthp_12trials.xlsx,2,24,80,20,1,,,,,0,6,6,6,1,10,22,4,,,,,,,,3,1334.1742464999988,1337.1750173000037,1337.1749706600028,0.30051670000102604,1337.6193457000045,1337.6193457000045,n,0.5641001000039978,1342.4533018000002,1342.4533018000002,13,4.212,,,sub-024,30,80,700,bloc_loop.csv,2023-06-14_10h24.38.537,PainUncertainty,2022.2.5,143.89441602000426,
grave,moderee,stimuli/330Hz,stimuli/moderee,bloc_7,prob80hthp_12trials.xlsx,2,24,80,20,1,,,,,0,6,6,6,1,11,23,3,,,,,,,,3.1,1342.4533018000002,1345.5581139999995,1345.5579552600036,0.30101769999600947,1346.0021281000008,1346.0021281000008,n,1.4041255000047386,1350.8370684000038,1350.8370684000038,15,1.396,,,sub-024,30,80,700,bloc_loop.csv,2023-06-14_10h24.38.537,PainUncertainty,2022.2.5,143.89441602000426,
,,,,bloc_7,prob80hthp_12trials.xlsx,2,24,80,20,1,,,,,0,6,6,6,,,,,0,0,0,0,,,,,,,,,,,,,,,,,1350.8370684000038,1371.3198005000013,sub-024,30,80,700,bloc_loop.csv,2023-06-14_10h24.38.537,PainUncertainty,2022.2.5,143.89441602000426,
grave,moderee,stimuli/330Hz,stimuli/moderee,bloc_8,prob50_50_4trials.xlsx,3,12,50,50,0,,,,,0,7,7,7,0,0,0,0,,,,,,,,3.9,1372.5921455999996,1376.4918258000034,1376.4918492600052,0.3050969999967492,1376.9361816000019,1376.9361816000019,n,0.5876938000001246,1380.6602956999996,1380.6602956999996,17,3.08,,,sub-024,30,80,700,bloc_loop.csv,2023-06-14_10h24.38.537,PainUncertainty,2022.2.5,143.89441602000426,
aigu,moderee,stimuli/660Hz,stimuli/moderee,bloc_8,prob50_50_4trials.xlsx,3,12,50,50,0,,,,,0,7,7,7,0,1,1,2,,,,,,,,3.6,1380.6602956999996,1384.264213399998,1384.2642152600026,0.30494529999850783,1384.7101544000034,1384.7101544000034,n,0.49017790000652894,1387.3273535000044,1387.3273535000044,11,2.06,,,sub-024,30,80,700,bloc_loop.csv,2023-06-14_10h24.38.537,PainUncertainty,2022.2.5,143.89441602000426,
grave,forte,stimuli/330Hz,stimuli/forte,bloc_8,prob50_50_4trials.xlsx,3,12,50,50,0,,,,,0,7,7,7,0,2,2,1,,,,,,,,3.1,1387.3273535000044,1390.4310664000004,1390.4310018600015,0.30564810000214493,1390.8799478,1390.8799478,m,0.45357919999514706,1394.1645366000012,1394.1645366000012,70,2.768,,,sub-024,30,80,700,bloc_loop.csv,2023-06-14_10h24.38.537,PainUncertainty,2022.2.5,143.89441602000426,
aigu,forte,stimuli/660Hz,stimuli/forte,bloc_8,prob50_50_4trials.xlsx,3,12,50,50,0,,,,,0,7,7,7,0,3,3,3,,,,,,,,3.1,1394.1645366000012,1397.2659295999983,1397.2657520600048,0.30499219999910565,1397.7142496000015,1397.7142496000015,m,0.5855535000009695,1401.6099738000048,1401.6099738000048,75,3.261,,,sub-024,30,80,700,bloc_loop.csv,2023-06-14_10h24.38.537,PainUncertainty,2022.2.5,143.89441602000426,
aigu,forte,stimuli/660Hz,stimuli/forte,bloc_8,prob50_50_4trials.xlsx,3,12,50,50,0,,,,,0,7,7,7,1,0,4,3,,,,,,,,3.5,1401.6099738000048,1405.1133394999997,1405.1132339600015,0.3055019000021275,1405.5624318000046,1405.5624318000046,m,0.41637140000239015,1410.5274242000014,1410.5274242000014,76,4.483,,,sub-024,30,80,700,bloc_loop.csv,2023-06-14_10h24.38.537,PainUncertainty,2022.2.5,143.89441602000426,
grave,moderee,stimuli/330Hz,stimuli/moderee,bloc_8,prob50_50_4trials.xlsx,3,12,50,50,0,,,,,0,7,7,7,1,1,5,0,,,,,,,,3,1410.5274242000014,1413.5312239999985,1413.5333899600016,0.30300939999870025,1413.9792343000008,1413.9792343000008,n,0.45296850000158884,1416.8711857000017,1416.8711857000017,15,2.379,,,sub-024,30,80,700,bloc_loop.csv,2023-06-14_10h24.38.537,PainUncertainty,2022.2.5,143.89441602000426,
aigu,moderee,stimuli/660Hz,stimuli/moderee,bloc_8,prob50_50_4trials.xlsx,3,12,50,50,0,,,,,0,7,7,7,1,2,6,2,,,,,,,,3.2,1416.8711857000017,1420.0734096000015,1420.0734022600016,0.305254300001252,1420.5247990999997,1420.5247990999997,n,0.4176268000010168,1424.221504699999,1424.221504699999,13,3.219,,,sub-024,30,80,700,bloc_loop.csv,2023-06-14_10h24.38.537,PainUncertainty,2022.2.5,143.89441602000426,
grave,forte,stimuli/330Hz,stimuli/forte,bloc_8,prob50_50_4trials.xlsx,3,12,50,50,0,,,,,0,7,7,7,1,3,7,1,,,,,,,,4,1424.221504699999,1428.227281600004,1428.2271416599986,0.3048043999951915,1428.6787064000018,1428.6787064000018,m,0.42712980000214884,1433.3629512999978,1433.3629512999978,77,4.191,,,sub-024,30,80,700,bloc_loop.csv,2023-06-14_10h24.38.537,PainUncertainty,2022.2.5,143.89441602000426,
aigu,moderee,stimuli/660Hz,stimuli/moderee,bloc_8,prob50_50_4trials.xlsx,3,12,50,50,0,,,,,0,7,7,7,2,0,8,2,,,,,,,,3.2,1433.3629512999978,1436.5684535000037,1436.568307760005,0.305218599998625,1437.0129214000044,1437.0129214000044,n,0.5270477000012761,1440.4414778999999,1440.4414778999999,14,2.845,,,sub-024,30,80,700,bloc_loop.csv,2023-06-14_10h24.38.537,PainUncertainty,2022.2.5,143.89441602000426,
aigu,forte,stimuli/660Hz,stimuli/forte,bloc_8,prob50_50_4trials.xlsx,3,12,50,50,0,,,,,0,7,7,7,2,1,9,3,,,,,,,,3,1440.4414778999999,1443.4441778000037,1443.4441772600046,0.30504069999733474,1443.8884334000031,1443.8884334000031,m,0.9168672999949194,1447.9537751000025,1447.9537751000025,74,3.087,,,sub-024,30,80,700,bloc_loop.csv,2023-06-14_10h24.38.537,PainUncertainty,2022.2.5,143.89441602000426,
grave,forte,stimuli/330Hz,stimuli/forte,bloc_8,prob50_50_4trials.xlsx,3,12,50,50,0,,,,,0,7,7,7,2,2,10,1,,,,,,,,3.7,1447.9537751000025,1451.6535517000011,1451.6535113600046,0.30516090000310214,1452.0983417000025,1452.0983417000025,m,0.437153800005035,1456.341127300002,1456.341127300002,76,3.754,,,sub-024,30,80,700,bloc_loop.csv,2023-06-14_10h24.38.537,PainUncertainty,2022.2.5,143.89441602000426,
grave,moderee,stimuli/330Hz,stimuli/moderee,bloc_8,prob50_50_4trials.xlsx,3,12,50,50,0,,,,,0,7,7,7,2,3,11,0,,,,,,,,4.3,1456.341127300002,1460.6407196,1460.6406865600009,0.3053598000042257,1461.085364700004,1461.085364700004,n,0.6478486999985762,1465.2740798000013,1465.2740798000013,14,3.476,,,sub-024,30,80,700,bloc_loop.csv,2023-06-14_10h24.38.537,PainUncertainty,2022.2.5,143.89441602000426,
grave,forte,stimuli/330Hz,stimuli/forte,bloc_9,prob20hthp_12trials.xlsx,3,36,80,20,0,,,,,0,8,8,8,0,0,0,3,,,,,,,,3.1,1465.2740798000013,1468.377775699999,1468.3777939600047,0.30503399999724934,1468.822025100002,1468.822025100002,m,0.46598330000415444,1472.083655100003,1472.083655100003,79,2.733,,,sub-024,30,80,700,bloc_loop.csv,2023-06-14_10h24.38.537,PainUncertainty,2022.2.5,143.89441602000426,
grave,forte,stimuli/330Hz,stimuli/forte,bloc_9,prob20hthp_12trials.xlsx,3,36,80,20,0,,,,,0,8,8,8,0,1,1,1,,,,,,,,3.6,1472.083655100003,1475.6861585000006,1475.6845841600014,0.3050772999995388,1476.1323589000021,1476.1323589000021,m,0.42442050000681775,1480.1035999000014,1480.1035999000014,79,3.49,,,sub-024,30,80,700,bloc_loop.csv,2023-06-14_10h24.38.537,PainUncertainty,2022.2.5,143.89441602000426,
aigu,moderee,stimuli/660Hz,stimuli/moderee,bloc_9,prob20hthp_12trials.xlsx,3,36,80,20,0,,,,,0,8,8,8,0,2,2,6,,,,,,,,3.7,1480.1035999000014,1483.8032010000024,1483.8033114600046,0.3067243999976199,1484.2550276000038,1484.2550276000038,n,0.38939729999401607,1485.6495961000037,1485.6495961000037,18,0.948,,,sub-024,30,80,700,bloc_loop.csv,2023-06-14_10h24.38.537,PainUncertainty,2022.2.5,143.89441602000426,
aigu,moderee,stimuli/660Hz,stimuli/moderee,bloc_9,prob20hthp_12trials.xlsx,3,36,80,20,0,,,,,0,8,8,8,0,3,3,9,,,,,,,,4.9,1485.6495961000037,1490.5541207999995,1490.5539602600045,0.3057422999991104,1491.0028661000033,1491.0028661000033,n,0.4594186000031186,1493.9915387,1493.9915387,11,2.475,,,sub-024,30,80,700,bloc_loop.csv,2023-06-14_10h24.38.537,PainUncertainty,2022.2.5,143.89441602000426,
grave,forte,stimuli/330Hz,stimuli/forte,bloc_9,prob20hthp_12trials.xlsx,3,36,80,20,0,,,,,0,8,8,8,0,4,4,2,,,,,,,,3.7,1493.9915387,1497.6943248000025,1497.694347559999,0.30490679999638814,1498.1410041999989,1498.1410041999989,m,0.5322424000041792,1501.3270333000037,1501.3270333000037,79,2.602,,,sub-024,30,80,700,bloc_loop.csv,2023-06-14_10h24.38.537,PainUncertainty,2022.2.5,143.89441602000426,
grave,moderee,stimuli/330Hz,stimuli/moderee,bloc_9,prob20hthp_12trials.xlsx,3,36,80,20,0,,,,,0,8,8,8,0,5,5,5,,,,,,,,3.4,1501.3270333000037,1504.7297556000049,1504.7297942599987,0.30444880000140984,1505.1734790000046,1505.1734790000046,n,0.4091093000024557,1506.4551827000032,1506.4551827000032,16,0.809,,,sub-024,30,80,700,bloc_loop.csv,2023-06-14_10h24.38.537,PainUncertainty,2022.2.5,143.89441602000426,
aigu,moderee,stimuli/660Hz,stimuli/moderee,bloc_9,prob20hthp_12trials.xlsx,3,36,80,20,0,,,,,0,8,8,8,0,6,6,7,,,,,,,,5,1506.4551827000032,1511.4592857000025,1511.459155960002,0.3052478000026895,1511.9039163999987,1511.9039163999987,n,0.8179302999997162,1515.9316565000045,1515.9316565000045,13,3.15,,,sub-024,30,80,700,bloc_loop.csv,2023-06-14_10h24.38.537,PainUncertainty,2022.2.5,143.89441602000426,
grave,forte,stimuli/330Hz,stimuli/forte,bloc_9,prob20hthp_12trials.xlsx,3,36,80,20,0,,,,,0,8,8,8,0,7,7,0,,,,,,,,3.6,1515.9316565000045,1519.536678700002,1519.5366264600023,0.305243499999051,1519.981005900001,1519.981005900001,m,0.4199365999957081,1522.4515286000023,1522.4515286000023,81,1.99,,,sub-024,30,80,700,bloc_loop.csv,2023-06-14_10h24.38.537,PainUncertainty,2022.2.5,143.89441602000426,
aigu,moderee,stimuli/660Hz,stimuli/moderee,bloc_9,prob20hthp_12trials.xlsx,3,36,80,20,0,,,,,0,8,8,8,0,8,8,10,,,,,,,,4.1,1522.4515286000023,1526.5513883000021,1526.5513603599982,0.30515260000538547,1526.9957960000029,1526.9957960000029,n,0.5874007000020356,1530.7448470000018,1530.7448470000018,15,3.108,,,sub-024,30,80,700,bloc_loop.csv,2023-06-14_10h24.38.537,PainUncertainty,2022.2.5,143.89441602000426,
grave,forte,stimuli/330Hz,stimuli/forte,bloc_9,prob20hthp_12trials.xlsx,3,36,80,20,0,,,,,0,8,8,8,0,9,9,4,,,,,,,,3.2,1530.7448470000018,1533.9480738999991,1533.947997560005,0.30523530000209576,1534.3923131000047,1534.3923131000047,m,0.5221575999967172,1537.3146233000007,1537.3146233000007,70,2.331,,,sub-024,30,80,700,bloc_loop.csv,2023-06-14_10h24.38.537,PainUncertainty,2022.2.5,143.89441602000426,
aigu,forte,stimuli/660Hz,stimuli/forte,bloc_9,prob20hthp_12trials.xlsx,3,36,80,20,0,,,,,0,8,8,8,0,10,10,11,,,,,,,,4.7,1537.3146233000007,1542.0183741,1542.0183618599992,0.30530390000058105,1542.4629986,1542.4629986,m,0.42415519999485696,1546.8537217999983,1546.8537217999983,77,3.907,,,sub-024,30,80,700,bloc_loop.csv,2023-06-14_10h24.38.537,PainUncertainty,2022.2.5,143.89441602000426,
aigu,moderee,stimuli/660Hz,stimuli/moderee,bloc_9,prob20hthp_12trials.xlsx,3,36,80,20,0,,,,,0,8,8,8,0,11,11,8,,,,,,,,4.1,1546.8537217999983,1550.9571738000013,1550.9569883599986,0.30095739999524085,1551.4016157000005,1551.4016157000005,n,0.5080296000014641,1554.2838440999985,1554.2838440999985,14,2.309,,,sub-024,30,80,700,bloc_loop.csv,2023-06-14_10h24.38.537,PainUncertainty,2022.2.5,143.89441602000426,
grave,forte,stimuli/330Hz,stimuli/forte,bloc_9,prob20hthp_12trials.xlsx,3,36,80,20,0,,,,,0,8,8,8,1,0,12,0,,,,,,,,4.6,1554.2838440999985,1558.888975599999,1558.8890133600005,0.30146049999893876,1559.3328769,1559.3328769,m,0.3492822999978671,1563.2813080999986,1563.2813080999986,81,3.54,,,sub-024,30,80,700,bloc_loop.csv,2023-06-14_10h24.38.537,PainUncertainty,2022.2.5,143.89441602000426,
aigu,moderee,stimuli/660Hz,stimuli/moderee,bloc_9,prob20hthp_12trials.xlsx,3,36,80,20,0,,,,,0,8,8,8,1,1,13,8,,,,,,,,4.4,1563.2813080999986,1567.6812296999997,1567.681229460003,0.3050143999935244,1568.1255515000012,1568.1255515000012,n,0.48174550000112504,1571.094238800004,1571.094238800004,13,2.428,,,sub-024,30,80,700,bloc_loop.csv,2023-06-14_10h24.38.537,PainUncertainty,2022.2.5,143.89441602000426,
grave,forte,stimuli/330Hz,stimuli/forte,bloc_9,prob20hthp_12trials.xlsx,3,36,80,20,0,,,,,0,8,8,8,1,2,14,2,,,,,,,,4.6,1571.094238800004,1575.6961083999995,1575.6961012600011,0.3051484000025084,1576.140221900001,1576.140221900001,m,0.47371299999940675,1578.2869494999977,1578.2869494999977,78,1.608,,,sub-024,30,80,700,bloc_loop.csv,2023-06-14_10h24.38.537,PainUncertainty,2022.2.5,143.89441602000426,
aigu,moderee,stimuli/660Hz,stimuli/moderee,bloc_9,prob20hthp_12trials.xlsx,3,36,80,20,0,,,,,0,8,8,8,1,3,15,6,,,,,,,,3.5,1578.2869494999977,1581.7874095000006,1581.7873854600045,0.30479229999764357,1582.2312956000023,1582.2312956000023,n,0.37928939999983413,1584.5338034000015,1584.5338034000015,13,1.858,,,sub-024,30,80,700,bloc_loop.csv,2023-06-14_10h24.38.537,PainUncertainty,2022.2.5,143.89441602000426,
aigu,moderee,stimuli/660Hz,stimuli/moderee,bloc_9,prob20hthp_12trials.xlsx,3,36,80,20,0,,,,,0,8,8,8,1,4,16,9,,,,,,,,3.3,1584.5338034000015,1587.8363788999995,1587.836459660001,0.2991487000035704,1588.2796092999997,1588.2796092999997,n,0.46591730000363896,1591.6926998999988,1591.6926998999988,16,2.894,,,sub-024,30,80,700,bloc_loop.csv,2023-06-14_10h24.38.537,PainUncertainty,2022.2.5,143.89441602000426,
grave,forte,stimuli/330Hz,stimuli/forte,bloc_9,prob20hthp_12trials.xlsx,3,36,80,20,0,,,,,0,8,8,8,1,5,17,4,,,,,,,,4.3,1591.6926998999988,1595.9905137000023,1595.9924949600033,0.3030245999980252,1596.434414700001,1596.434414700001,m,0.47707079999963753,1601.6337256999977,1601.6337256999977,76,4.663,,,sub-024,30,80,700,bloc_loop.csv,2023-06-14_10h24.38.537,PainUncertainty,2022.2.5,143.89441602000426,
aigu,forte,stimuli/660Hz,stimuli/forte,bloc_9,prob20hthp_12trials.xlsx,3,36,80,20,0,,,,,0,8,8,8,1,6,18,11,,,,,,,,4.8,1601.6337256999977,1606.4358084999985,1606.436038960005,0.3051906000036979,1606.8801234999992,1606.8801234999992,m,0.7575410999997985,1609.4469207000002,1609.4469207000002,77,1.754,,,sub-024,30,80,700,bloc_loop.csv,2023-06-14_10h24.38.537,PainUncertainty,2022.2.5,143.89441602000426,
grave,forte,stimuli/330Hz,stimuli/forte,bloc_9,prob20hthp_12trials.xlsx,3,36,80,20,0,,,,,0,8,8,8,1,7,19,3,,,,,,,,3,1609.4469207000002,1612.4506076000034,1612.4505301600009,0.30513970000174595,1612.894725500002,1612.894725500002,m,0.6317110000018147,1616.9902999000042,1616.9902999000042,77,3.405,,,sub-024,30,80,700,bloc_loop.csv,2023-06-14_10h24.38.537,PainUncertainty,2022.2.5,143.89441602000426,
grave,moderee,stimuli/330Hz,stimuli/moderee,bloc_9,prob20hthp_12trials.xlsx,3,36,80,20,0,,,,,0,8,8,8,1,8,20,5,,,,,,,,5,1616.9902999000042,1621.9934420999998,1621.993372360005,0.30491780000011204,1622.4374696000014,1622.4374696000014,n,0.887859299997217,1626.1143032000036,1626.1143032000036,15,2.729,,,sub-024,30,80,700,bloc_loop.csv,2023-06-14_10h24.38.537,PainUncertainty,2022.2.5,143.89441602000426,
grave,forte,stimuli/330Hz,stimuli/forte,bloc_9,prob20hthp_12trials.xlsx,3,36,80,20,0,,,,,0,8,8,8,1,9,21,1,,,,,,,,4.6,1626.1143032000036,1630.7166978000023,1630.7166728599993,0.30185660000279313,1631.1619619999983,1631.1619619999983,m,0.5453018000043812,1635.9417541000003,1635.9417541000003,75,4.184,,,sub-024,30,80,700,bloc_loop.csv,2023-06-14_10h24.38.537,PainUncertainty,2022.2.5,143.89441602000426,
aigu,moderee,stimuli/660Hz,stimuli/moderee,bloc_9,prob20hthp_12trials.xlsx,3,36,80,20,0,,,,,0,8,8,8,1,10,22,10,,,,,,,,3,1635.9417541000003,1638.9466210000028,1638.9468517600042,0.3014866000012262,1639.3921568000005,1639.3921568000005,n,0.8895118000000366,1642.5909759999995,1642.5909759999995,15,2.248,,,sub-024,30,80,700,bloc_loop.csv,2023-06-14_10h24.38.537,PainUncertainty,2022.2.5,143.89441602000426,
aigu,moderee,stimuli/660Hz,stimuli/moderee,bloc_9,prob20hthp_12trials.xlsx,3,36,80,20,0,,,,,0,8,8,8,1,11,23,7,,,,,,,,3.6,1642.5909759999995,1646.1906376000043,1646.1906347600022,0.29970460000185994,1646.6319210000001,1646.6319210000001,n,0.5091902000058326,1650.7567170000038,1650.7567170000038,16,3.561,,,sub-024,30,80,700,bloc_loop.csv,2023-06-14_10h24.38.537,PainUncertainty,2022.2.5,143.89441602000426,
grave,forte,stimuli/330Hz,stimuli/forte,bloc_9,prob20hthp_12trials.xlsx,3,36,80,20,0,,,,,0,8,8,8,2,0,24,4,,,,,,,,4.6,1650.7567170000038,1655.3583237999992,1655.3582964599998,0.3050699000013992,1655.8025035000028,1655.8025035000028,m,0.508737199997995,1659.7684293999991,1659.7684293999991,79,3.4,,,sub-024,30,80,700,bloc_loop.csv,2023-06-14_10h24.38.537,PainUncertainty,2022.2.5,143.89441602000426,
aigu,moderee,stimuli/660Hz,stimuli/moderee,bloc_9,prob20hthp_12trials.xlsx,3,36,80,20,0,,,,,0,8,8,8,2,1,25,6,,,,,,,,3.2,1659.7684293999991,1662.970486600003,1662.9705134600015,0.30513190000056056,1663.4146049000046,1663.4146049000046,n,0.7511414999971748,1666.832261800002,1666.832261800002,13,2.597,,,sub-024,30,80,700,bloc_loop.csv,2023-06-14_10h24.38.537,PainUncertainty,2022.2.5,143.89441602000426,
grave,forte,stimuli/330Hz,stimuli/forte,bloc_9,prob20hthp_12trials.xlsx,3,36,80,20,0,,,,,0,8,8,8,2,2,26,1,,,,,,,,4.3,1666.832261800002,1671.1380008999986,1671.1380597600007,0.30488039999909233,1671.5821864000027,1671.5821864000027,m,0.49077000000397675,1676.7262330000012,1676.7262330000012,76,4.589,,,sub-024,30,80,700,bloc_loop.csv,2023-06-14_10h24.38.537,PainUncertainty,2022.2.5,143.89441602000426,
aigu,moderee,stimuli/660Hz,stimuli/moderee,bloc_9,prob20hthp_12trials.xlsx,3,36,80,20,0,,,,,0,8,8,8,2,3,27,9,,,,,,,,5,1676.7262330000012,1681.729567800001,1681.7295082600037,0.30510669999785023,1682.1737279000008,1682.1737279000008,n,0.5232433999990462,1686.0259547000023,1686.0259547000023,12,3.267,,,sub-024,30,80,700,bloc_loop.csv,2023-06-14_10h24.38.537,PainUncertainty,2022.2.5,143.89441602000426,
grave,forte,stimuli/330Hz,stimuli/forte,bloc_9,prob20hthp_12trials.xlsx,3,36,80,20,0,,,,,0,8,8,8,2,4,28,2,,,,,,,,3.3,1686.0259547000023,1689.3279986999987,1689.3279458600016,0.3048094999976456,1689.7718588999996,1689.7718588999996,m,0.7443515999984811,1693.3910233999995,1693.3910233999995,77,2.816,,,sub-024,30,80,700,bloc_loop.csv,2023-06-14_10h24.38.537,PainUncertainty,2022.2.5,143.89441602000426,
aigu,moderee,stimuli/660Hz,stimuli/moderee,bloc_9,prob20hthp_12trials.xlsx,3,36,80,20,0,,,,,0,8,8,8,2,5,29,8,,,,,,,,4.5,1693.3910233999995,1697.8913182000033,1697.891305760001,0.30492209999647457,1698.3354236000014,1698.3354236000014,n,0.4507155999963288,1702.0541789999988,1702.0541789999988,13,3.206,,,sub-024,30,80,700,bloc_loop.csv,2023-06-14_10h24.38.537,PainUncertainty,2022.2.5,143.89441602000426,
grave,forte,stimuli/330Hz,stimuli/forte,bloc_9,prob20hthp_12trials.xlsx,3,36,80,20,0,,,,,0,8,8,8,2,6,30,0,,,,,,,,4.8,1702.0541789999988,1706.8578675000026,1706.857832760005,0.29962860000523506,1707.3024049000014,1707.3024049000014,m,0.46602810000331374,1710.1220250000042,1710.1220250000042,76,2.296,,,sub-024,30,80,700,bloc_loop.csv,2023-06-14_10h24.38.537,PainUncertainty,2022.2.5,143.89441602000426,
aigu,moderee,stimuli/660Hz,stimuli/moderee,bloc_9,prob20hthp_12trials.xlsx,3,36,80,20,0,,,,,0,8,8,8,2,7,31,10,,,,,,,,4.3,1710.1220250000042,1714.4214199999988,1714.4215454599987,0.3050373000005493,1714.8700090999992,1714.8700090999992,n,0.5052290000021458,1716.9771923000008,1716.9771923000008,13,1.547,,,sub-024,30,80,700,bloc_loop.csv,2023-06-14_10h24.38.537,PainUncertainty,2022.2.5,143.89441602000426,
grave,forte,stimuli/330Hz,stimuli/forte,bloc_9,prob20hthp_12trials.xlsx,3,36,80,20,0,,,,,0,8,8,8,2,8,32,3,,,,,,,,4.2,1716.9771923000008,1721.1789566000007,1721.1791605600017,0.30189319999772124,1721.624347099998,1721.624347099998,m,0.4905556000012439,1724.4255204,1724.4255204,75,2.255,,,sub-024,30,80,700,bloc_loop.csv,2023-06-14_10h24.38.537,PainUncertainty,2022.2.5,143.89441602000426,
aigu,forte,stimuli/660Hz,stimuli/forte,bloc_9,prob20hthp_12trials.xlsx,3,36,80,20,0,,,,,0,8,8,8,2,9,33,11,,,,,,,,4.2,1724.4255204,1728.6246595999983,1728.6247380600041,0.30495190000510775,1729.0711517000018,1729.0711517000018,m,0.782441800001834,1732.7029020000045,1732.7029020000045,76,2.789,,,sub-024,30,80,700,bloc_loop.csv,2023-06-14_10h24.38.537,PainUncertainty,2022.2.5,143.89441602000426,
grave,moderee,stimuli/330Hz,stimuli/moderee,bloc_9,prob20hthp_12trials.xlsx,3,36,80,20,0,,,,,0,8,8,8,2,10,34,5,,,,,,,,4,1732.7029020000045,1736.7084222000049,1736.7085274600038,0.29961410000396427,1737.1533973999976,1737.1533973999976,n,0.5362051000047359,1739.4140549000003,1739.4140549000003,12,1.656,,,sub-024,30,80,700,bloc_loop.csv,2023-06-14_10h24.38.537,PainUncertainty,2022.2.5,143.89441602000426,
aigu,moderee,stimuli/660Hz,stimuli/moderee,bloc_9,prob20hthp_12trials.xlsx,3,36,80,20,0,,,,,0,8,8,8,2,11,35,7,,,,,,,,5,1739.4140549000003,1744.4176958000025,1744.4177808600004,0.30473470000288216,1744.8619020000042,1744.8619020000042,n,0.9479922000027727,1749.5412431000004,1749.5412431000004,12,3.705,,,sub-024,30,80,700,bloc_loop.csv,2023-06-14_10h24.38.537,PainUncertainty,2022.2.5,143.89441602000426,
