cue_,stimulus_,cue_fichier,stimulus_fichier,block_name,block_trials_file,block_n_reps,block_ntrials,block_prob_highP_highT,block_prob_highP_lowT,block_pause_after,Bloc_essai.thisRepN,Bloc_essai.thisTrialN,Bloc_essai.thisN,Bloc_essai.thisIndex,blocks.thisRepN,blocks.thisTrialN,blocks.thisN,blocks.thisIndex,trials.thisRepN,trials.thisTrialN,trials.thisN,trials.thisIndex,pause_loop.thisRepN,pause_loop.thisTrialN,pause_loop.thisN,pause_loop.thisIndex,key_resp_5.started,start_calib.started,key_resp_2.started,ISI_duration,pause.started,pause.stopped,cue.started,ISI.started,choice_pain.started,Choice.started,choice_pain.keys,choice_pain.rt,main_text.started,confirm_text.started,ratingScale.response,ratingScale.rt,key_resp_3.started,key_resp_6.started,participant,low_ma,high_ma,failsafe_ma,block_file,date,expName,psychopyVersion,frameRate,
aigu,moderee,stimuli/660Hz,stimuli/moderee,,,,,,,,0,0,0,2,,,,,,,,,,,,,24.319340999994893,31.26770129999204,32.483103499995195,3.2,33.16084620000038,36.36540129999048,36.36540562999435,0.2990431000071112,36.808279899996705,36.808279899996705,n,0.7765389999985928,40.536064699990675,40.536064699990675,4,2.869,,,sub-053,15,40,700,bloc_loop.csv,2023-09-24_11h21.15.574,PainUncertainty,2022.2.5,143.97479867723538,
grave,forte,stimuli/330Hz,stimuli/forte,,,,,,,,0,1,1,1,,,,,,,,,,,,,,,,4.9,40.536064699990675,45.43609399998968,45.43601832999557,0.3051954999973532,45.880294199989294,45.880294199989294,m,1.2551100999990012,49.06912279999233,49.06912279999233,30,1.859,,,sub-053,15,40,700,bloc_loop.csv,2023-09-24_11h21.15.574,PainUncertainty,2022.2.5,143.97479867723538,
grave,moderee,stimuli/330Hz,stimuli/moderee,,,,,,,,0,2,2,0,,,,,,,,,,,,,,,,3.5,49.06912279999233,52.56890419998672,52.568921829989996,0.30545109999366105,53.01785539998673,53.01785539998673,None,,60.14028429999598,60.14028429999598,3,4.608,,,sub-053,15,40,700,bloc_loop.csv,2023-09-24_11h21.15.574,PainUncertainty,2022.2.5,143.97479867723538,
aigu,forte,stimuli/660Hz,stimuli/forte,,,,,,,,0,3,3,3,,,,,,,,,,,,,,,,4,60.14028429999598,64.13997359998757,64.1398265299882,0.3048501000012038,64.58617239999876,64.58617239999876,m,1.2794681999948807,69.16607559999102,69.16607559999102,27,3.275,,,sub-053,15,40,700,bloc_loop.csv,2023-09-24_11h21.15.574,PainUncertainty,2022.2.5,143.97479867723538,
grave,forte,stimuli/330Hz,stimuli/forte,bloc_1,prob20hthp_12trials.xlsx,4,48,20,80,0,,,,,0,0,0,0,0,0,0,4,,,,,,,,4.8,81.67985429998953,86.48272319999523,86.48275932999385,0.3048026000033133,86.9269268999924,86.9269268999924,m,0.72644680000667,88.55130209999334,88.55130209999334,30,0.814,,,sub-053,15,40,700,bloc_loop.csv,2023-09-24_11h21.15.574,PainUncertainty,2022.2.5,143.97479867723538,
aigu,moderee,stimuli/660Hz,stimuli/moderee,bloc_1,prob20hthp_12trials.xlsx,4,48,20,80,0,,,,,0,0,0,0,0,1,1,9,,,,,,,,3.7,88.55130209999334,92.25460219998786,92.25453212999273,0.30515960000047926,92.70033599999442,92.70033599999442,n,1.2335246000002371,97.22437489998993,97.22437489998993,4,3.233,,,sub-053,15,40,700,bloc_loop.csv,2023-09-24_11h21.15.574,PainUncertainty,2022.2.5,143.97479867723538,
aigu,moderee,stimuli/660Hz,stimuli/moderee,bloc_1,prob20hthp_12trials.xlsx,4,48,20,80,0,,,,,0,0,0,0,0,2,2,8,,,,,,,,4.1,97.22437489998993,101.32477659999859,101.32481602999323,0.3051380999968387,101.77332079999906,101.77332079999906,n,0.6255246000073384,106.82777269999497,106.82777269999497,3,4.365,,,sub-053,15,40,700,bloc_loop.csv,2023-09-24_11h21.15.574,PainUncertainty,2022.2.5,143.97479867723538,
aigu,moderee,stimuli/660Hz,stimuli/moderee,bloc_1,prob20hthp_12trials.xlsx,4,48,20,80,0,,,,,0,0,0,0,0,3,3,7,,,,,,,,4.6,106.82777269999497,111.43002899999556,111.430060029999,0.3051351999893086,111.87421789999644,111.87421789999644,n,0.5177261999924667,116.12704189999204,116.12704189999204,4,3.67,,,sub-053,15,40,700,bloc_loop.csv,2023-09-24_11h21.15.574,PainUncertainty,2022.2.5,143.97479867723538,
aigu,moderee,stimuli/660Hz,stimuli/moderee,bloc_1,prob20hthp_12trials.xlsx,4,48,20,80,0,,,,,0,0,0,0,0,4,4,6,,,,,,,,3,116.12704189999204,119.13235770000028,119.13226752999762,0.30095560000336263,119.57681859999138,119.57681859999138,n,1.0234574000060093,124.21347149999929,124.21347149999929,5,3.538,,,sub-053,15,40,700,bloc_loop.csv,2023-09-24_11h21.15.574,PainUncertainty,2022.2.5,143.97479867723538,
aigu,forte,stimuli/660Hz,stimuli/forte,bloc_1,prob20hthp_12trials.xlsx,4,48,20,80,0,,,,,0,0,0,0,0,5,5,11,,,,,,,,4.3,124.21347149999929,128.5155425999983,128.51553252999437,0.29985140000644606,128.9603483999963,128.9603483999963,m,0.8104142000083812,132.4725752999948,132.4725752999948,28,2.643,,,sub-053,15,40,700,bloc_loop.csv,2023-09-24_11h21.15.574,PainUncertainty,2022.2.5,143.97479867723538,
grave,forte,stimuli/330Hz,stimuli/forte,bloc_1,prob20hthp_12trials.xlsx,4,48,20,80,0,,,,,0,0,0,0,0,6,6,3,,,,,,,,3.1,132.4725752999948,135.57229399999778,135.57223123000003,0.3013429999991786,136.01651079999283,136.01651079999283,m,0.8957448000146542,138.8816181999864,138.8816181999864,29,1.893,,,sub-053,15,40,700,bloc_loop.csv,2023-09-24_11h21.15.574,PainUncertainty,2022.2.5,143.97479867723538,
grave,moderee,stimuli/330Hz,stimuli/moderee,bloc_1,prob20hthp_12trials.xlsx,4,48,20,80,0,,,,,0,0,0,0,0,7,7,5,,,,,,,,4.2,138.8816181999864,143.08697999999276,143.08689672999898,0.3047303999919677,143.53085419999843,143.53085419999843,n,0.6524433000013232,147.74880589998793,147.74880589998793,2,3.497,,,sub-053,15,40,700,bloc_loop.csv,2023-09-24_11h21.15.574,PainUncertainty,2022.2.5,143.97479867723538,
grave,forte,stimuli/330Hz,stimuli/forte,bloc_1,prob20hthp_12trials.xlsx,4,48,20,80,0,,,,,0,0,0,0,0,8,8,1,,,,,,,,3.2,147.74880589998793,150.94872809998924,150.94877002998837,0.3050345999945421,151.39324939998914,151.39324939998914,m,0.6633092999982182,153.9940854999877,153.9940854999877,30,1.886,,,sub-053,15,40,700,bloc_loop.csv,2023-09-24_11h21.15.574,PainUncertainty,2022.2.5,143.97479867723538,
grave,forte,stimuli/330Hz,stimuli/forte,bloc_1,prob20hthp_12trials.xlsx,4,48,20,80,0,,,,,0,0,0,0,0,9,9,0,,,,,,,,4,153.9940854999877,157.99849329999415,157.99863612999033,0.3050608000048669,158.4466628999944,158.4466628999944,m,0.5550310999969952,161.88937759998953,161.88937759998953,30,2.807,,,sub-053,15,40,700,bloc_loop.csv,2023-09-24_11h21.15.574,PainUncertainty,2022.2.5,143.97479867723538,
aigu,moderee,stimuli/660Hz,stimuli/moderee,bloc_1,prob20hthp_12trials.xlsx,4,48,20,80,0,,,,,0,0,0,0,0,10,10,10,,,,,,,,5,161.88937759998953,166.89505029999418,166.89503082999144,0.30510579999827314,167.3393800999911,167.3393800999911,n,0.6092543000122532,170.11756629998854,170.11756629998854,3,2.099,,,sub-053,15,40,700,bloc_loop.csv,2023-09-24_11h21.15.574,PainUncertainty,2022.2.5,143.97479867723538,
grave,forte,stimuli/330Hz,stimuli/forte,bloc_1,prob20hthp_12trials.xlsx,4,48,20,80,0,,,,,0,0,0,0,0,11,11,2,,,,,,,,3.2,170.11756629998854,173.31975769999553,173.31969232999253,0.3049120999930892,173.76360889998614,173.76360889998614,m,0.5838328000099864,175.66171639999084,175.66171639999084,30,1.248,,,sub-053,15,40,700,bloc_loop.csv,2023-09-24_11h21.15.574,PainUncertainty,2022.2.5,143.97479867723538,
aigu,moderee,stimuli/660Hz,stimuli/moderee,bloc_1,prob20hthp_12trials.xlsx,4,48,20,80,0,,,,,0,0,0,0,1,0,12,10,,,,,,,,3.2,175.66171639999084,178.8618284999975,178.86195672999892,0.30483240001194645,179.3060628999956,179.3060628999956,n,0.5826340000057826,181.4289654999884,181.4289654999884,3,1.483,,,sub-053,15,40,700,bloc_loop.csv,2023-09-24_11h21.15.574,PainUncertainty,2022.2.5,143.97479867723538,
grave,moderee,stimuli/330Hz,stimuli/moderee,bloc_1,prob20hthp_12trials.xlsx,4,48,20,80,0,,,,,0,0,0,0,1,1,13,5,,,,,,,,4.7,181.4289654999884,186.1335706999962,186.1335075299954,0.3001769999973476,186.57843929999217,186.57843929999217,n,0.8061764000012772,188.90645409999706,188.90645409999706,1,1.462,,,sub-053,15,40,700,bloc_loop.csv,2023-09-24_11h21.15.574,PainUncertainty,2022.2.5,143.97479867723538,
aigu,moderee,stimuli/660Hz,stimuli/moderee,bloc_1,prob20hthp_12trials.xlsx,4,48,20,80,0,,,,,0,0,0,0,1,2,14,6,,,,,,,,4.5,188.90645409999706,193.40559609999764,193.40563252999854,0.3046353000099771,193.84939519999898,193.84939519999898,n,0.4799438000045484,197.45611679999274,197.45611679999274,4,3.052,,,sub-053,15,40,700,bloc_loop.csv,2023-09-24_11h21.15.574,PainUncertainty,2022.2.5,143.97479867723538,
aigu,forte,stimuli/660Hz,stimuli/forte,bloc_1,prob20hthp_12trials.xlsx,4,48,20,80,0,,,,,0,0,0,0,1,3,15,11,,,,,,,,3.7,197.45611679999274,201.15644999999495,201.15677202998776,0.30466120000346564,201.60438239999348,201.60438239999348,m,0.6300919000059366,205.18826729999273,205.18826729999273,31,2.892,,,sub-053,15,40,700,bloc_loop.csv,2023-09-24_11h21.15.574,PainUncertainty,2022.2.5,143.97479867723538,
grave,forte,stimuli/330Hz,stimuli/forte,bloc_1,prob20hthp_12trials.xlsx,4,48,20,80,0,,,,,0,0,0,0,1,4,16,1,,,,,,,,3.2,205.18826729999273,208.3931578999909,208.3931280299963,0.30513860000064597,208.83781319999252,208.83781319999252,m,1.3091793000057805,212.57215259999793,212.57215259999793,30,2.344,,,sub-053,15,40,700,bloc_loop.csv,2023-09-24_11h21.15.574,PainUncertainty,2022.2.5,143.97479867723538,
aigu,moderee,stimuli/660Hz,stimuli/moderee,bloc_1,prob20hthp_12trials.xlsx,4,48,20,80,0,,,,,0,0,0,0,1,5,17,9,,,,,,,,3.7,212.57215259999793,216.27601219998905,216.27613632998836,0.30534459999762475,216.72546669999429,216.72546669999429,n,0.5828485000092769,219.4261478999979,219.4261478999979,2,2.039,,,sub-053,15,40,700,bloc_loop.csv,2023-09-24_11h21.15.574,PainUncertainty,2022.2.5,143.97479867723538,
grave,forte,stimuli/330Hz,stimuli/forte,bloc_1,prob20hthp_12trials.xlsx,4,48,20,80,0,,,,,0,0,0,0,1,6,18,2,,,,,,,,3.9,219.4261478999979,223.32546849999926,223.32552023000025,0.30505920000723563,223.77018769999268,223.77018769999268,m,0.6534998999995878,226.84010069999204,226.84010069999204,30,2.337,,,sub-053,15,40,700,bloc_loop.csv,2023-09-24_11h21.15.574,PainUncertainty,2022.2.5,143.97479867723538,
aigu,moderee,stimuli/660Hz,stimuli/moderee,bloc_1,prob20hthp_12trials.xlsx,4,48,20,80,0,,,,,0,0,0,0,1,7,19,8,,,,,,,,3.8,226.84010069999204,230.6457403999957,230.64569412999262,0.305035700002918,231.0900707999972,231.0900707999972,n,0.42717239999910817,233.26185049999913,233.26185049999913,1,1.69,,,sub-053,15,40,700,bloc_loop.csv,2023-09-24_11h21.15.574,PainUncertainty,2022.2.5,143.97479867723538,
aigu,moderee,stimuli/660Hz,stimuli/moderee,bloc_1,prob20hthp_12trials.xlsx,4,48,20,80,0,,,,,0,0,0,0,1,8,20,7,,,,,,,,3.7,233.26185049999913,236.96607239999867,236.96596632999135,0.30514290000428446,237.41383709998627,237.41383709998627,n,0.6550952000106918,241.62070219998714,241.62070219998714,1,3.475,,,sub-053,15,40,700,bloc_loop.csv,2023-09-24_11h21.15.574,PainUncertainty,2022.2.5,143.97479867723538,
grave,forte,stimuli/330Hz,stimuli/forte,bloc_1,prob20hthp_12trials.xlsx,4,48,20,80,0,,,,,0,0,0,0,1,9,21,0,,,,,,,,4.8,241.62070219998714,246.4254787999962,246.4255067299906,0.3050218999997014,246.86964959999023,246.86964959999023,m,0.7068874999968102,249.3532761999959,249.3532761999959,29,1.712,,,sub-053,15,40,700,bloc_loop.csv,2023-09-24_11h21.15.574,PainUncertainty,2022.2.5,143.97479867723538,
grave,forte,stimuli/330Hz,stimuli/forte,bloc_1,prob20hthp_12trials.xlsx,4,48,20,80,0,,,,,0,0,0,0,1,10,22,3,,,,,,,,3.8,249.3532761999959,253.15552509999543,253.15537272999936,0.30516950000310317,253.59960579998733,253.59960579998733,m,1.1878794000076596,256.50983239999914,256.50983239999914,31,1.663,,,sub-053,15,40,700,bloc_loop.csv,2023-09-24_11h21.15.574,PainUncertainty,2022.2.5,143.97479867723538,
grave,forte,stimuli/330Hz,stimuli/forte,bloc_1,prob20hthp_12trials.xlsx,4,48,20,80,0,,,,,0,0,0,0,1,11,23,4,,,,,,,,3.1,256.50983239999914,259.61490349999804,259.61676192999005,0.3035941999987699,260.06305469998915,260.06305469998915,m,0.5909373000031337,262.7740010999987,262.7740010999987,30,2.058,,,sub-053,15,40,700,bloc_loop.csv,2023-09-24_11h21.15.574,PainUncertainty,2022.2.5,143.97479867723538,
grave,forte,stimuli/330Hz,stimuli/forte,bloc_1,prob20hthp_12trials.xlsx,4,48,20,80,0,,,,,0,0,0,0,2,0,24,0,,,,,,,,4.3,262.7740010999987,267.0738360999967,267.07371072998797,0.300437999991118,267.5198237000004,267.5198237000004,m,0.5802944000024581,271.2103236999974,271.2103236999974,29,3.044,,,sub-053,15,40,700,bloc_loop.csv,2023-09-24_11h21.15.574,PainUncertainty,2022.2.5,143.97479867723538,
grave,forte,stimuli/330Hz,stimuli/forte,bloc_1,prob20hthp_12trials.xlsx,4,48,20,80,0,,,,,0,0,0,0,2,1,25,4,,,,,,,,5,271.2103236999974,276.2137739999889,276.213863829989,0.30486250000831205,276.65804209999624,276.65804209999624,m,0.5745532000000821,278.22369569999864,278.22369569999864,30,0.942,,,sub-053,15,40,700,bloc_loop.csv,2023-09-24_11h21.15.574,PainUncertainty,2022.2.5,143.97479867723538,
aigu,forte,stimuli/660Hz,stimuli/forte,bloc_1,prob20hthp_12trials.xlsx,4,48,20,80,0,,,,,0,0,0,0,2,2,26,11,,,,,,,,3.3,278.22369569999864,281.5269837999949,281.52692452999474,0.3051846000016667,281.9711452999909,281.9711452999909,m,0.7707927000010386,284.83992189999844,284.83992189999844,32,2.032,,,sub-053,15,40,700,bloc_loop.csv,2023-09-24_11h21.15.574,PainUncertainty,2022.2.5,143.97479867723538,
aigu,moderee,stimuli/660Hz,stimuli/moderee,bloc_1,prob20hthp_12trials.xlsx,4,48,20,80,0,,,,,0,0,0,0,2,3,27,7,,,,,,,,3.2,284.83992189999844,288.04163409999455,288.04159492998735,0.3049886999942828,288.4857440999913,288.4857440999913,n,0.6732503000093857,292.1911637999874,292.1911637999874,5,2.968,,,sub-053,15,40,700,bloc_loop.csv,2023-09-24_11h21.15.574,PainUncertainty,2022.2.5,143.97479867723538,
grave,moderee,stimuli/330Hz,stimuli/moderee,bloc_1,prob20hthp_12trials.xlsx,4,48,20,80,0,,,,,0,0,0,0,2,4,28,5,,,,,,,,4,292.1911637999874,296.19539839999925,296.19531882999,0.3053453000029549,296.63965839998855,296.63965839998855,n,0.8637429999944288,299.65228039999784,299.65228039999784,4,2.081,,,sub-053,15,40,700,bloc_loop.csv,2023-09-24_11h21.15.574,PainUncertainty,2022.2.5,143.97479867723538,
aigu,moderee,stimuli/660Hz,stimuli/moderee,bloc_1,prob20hthp_12trials.xlsx,4,48,20,80,0,,,,,0,0,0,0,2,5,29,10,,,,,,,,3.3,299.65228039999784,302.95526739998604,302.95350132999886,0.30063430000154767,303.3979404999991,303.3979404999991,n,0.5909499999979744,307.88097449998895,307.88097449998895,1,3.831,,,sub-053,15,40,700,bloc_loop.csv,2023-09-24_11h21.15.574,PainUncertainty,2022.2.5,143.97479867723538,
aigu,moderee,stimuli/660Hz,stimuli/moderee,bloc_1,prob20hthp_12trials.xlsx,4,48,20,80,0,,,,,0,0,0,0,2,6,30,8,,,,,,,,3.9,307.88097449998895,311.78125049998926,311.78116072998967,0.30490289999579545,312.22719929998857,312.22719929998857,n,0.5203806999925291,315.69430449999345,315.69430449999345,2,2.865,,,sub-053,15,40,700,bloc_loop.csv,2023-09-24_11h21.15.574,PainUncertainty,2022.2.5,143.97479867723538,
grave,forte,stimuli/330Hz,stimuli/forte,bloc_1,prob20hthp_12trials.xlsx,4,48,20,80,0,,,,,0,0,0,0,2,7,31,1,,,,,,,,3.5,315.69430449999345,319.19814699998824,319.19821572998774,0.30476489999273326,319.6461313999898,319.6461313999898,m,0.4908340000110911,323.2981449999934,323.2981449999934,28,3.094,,,sub-053,15,40,700,bloc_loop.csv,2023-09-24_11h21.15.574,PainUncertainty,2022.2.5,143.97479867723538,
grave,forte,stimuli/330Hz,stimuli/forte,bloc_1,prob20hthp_12trials.xlsx,4,48,20,80,0,,,,,0,0,0,0,2,8,32,2,,,,,,,,3.9,323.2981449999934,327.1991657999897,327.19912732998785,0.30541399998764973,327.6477917999873,327.6477917999873,m,0.5900326999981189,329.8189861999999,329.8189861999999,28,1.504,,,sub-053,15,40,700,bloc_loop.csv,2023-09-24_11h21.15.574,PainUncertainty,2022.2.5,143.97479867723538,
aigu,moderee,stimuli/660Hz,stimuli/moderee,bloc_1,prob20hthp_12trials.xlsx,4,48,20,80,0,,,,,0,0,0,0,2,9,33,9,,,,,,,,3.2,329.8189861999999,333.0191563999979,333.01917252998976,0.30535030001192354,333.46415899999556,333.46415899999556,n,0.46313970000483096,335.7775655999867,335.7775655999867,3,1.79,,,sub-053,15,40,700,bloc_loop.csv,2023-09-24_11h21.15.574,PainUncertainty,2022.2.5,143.97479867723538,
aigu,moderee,stimuli/660Hz,stimuli/moderee,bloc_1,prob20hthp_12trials.xlsx,4,48,20,80,0,,,,,0,0,0,0,2,10,34,6,,,,,,,,4.3,335.7775655999867,340.0826215999987,340.08260273000053,0.30535900000541005,340.52696699999797,340.52696699999797,n,0.5139491000009002,345.81181970000034,345.81181970000034,1,4.705,,,sub-053,15,40,700,bloc_loop.csv,2023-09-24_11h21.15.574,PainUncertainty,2022.2.5,143.97479867723538,
grave,forte,stimuli/330Hz,stimuli/forte,bloc_1,prob20hthp_12trials.xlsx,4,48,20,80,0,,,,,0,0,0,0,2,11,35,3,,,,,,,,4.1,345.81181970000034,349.91714219999267,349.9170701299969,0.3053109000029508,350.3613273999945,350.3613273999945,m,0.41848579999350477,352.3308388999867,352.3308388999867,29,1.483,,,sub-053,15,40,700,bloc_loop.csv,2023-09-24_11h21.15.574,PainUncertainty,2022.2.5,143.97479867723538,
grave,forte,stimuli/330Hz,stimuli/forte,bloc_1,prob20hthp_12trials.xlsx,4,48,20,80,0,,,,,0,0,0,0,3,0,36,1,,,,,,,,3.1,352.3308388999867,355.4316426999867,355.4316400299955,0.2991357999999309,355.87392539999564,355.87392539999564,m,0.6472509000013815,358.72184919999563,358.72184919999563,31,2.15,,,sub-053,15,40,700,bloc_loop.csv,2023-09-24_11h21.15.574,PainUncertainty,2022.2.5,143.97479867723538,
grave,forte,stimuli/330Hz,stimuli/forte,bloc_1,prob20hthp_12trials.xlsx,4,48,20,80,0,,,,,0,0,0,0,3,1,37,4,,,,,,,,4.4,358.72184919999563,363.1271856999956,363.1272383299889,0.30508250001003034,363.5757362999866,363.5757362999866,m,0.5011623000027612,365.97559829999227,365.97559829999227,34,1.831,,,sub-053,15,40,700,bloc_loop.csv,2023-09-24_11h21.15.574,PainUncertainty,2022.2.5,143.97479867723538,
aigu,moderee,stimuli/660Hz,stimuli/moderee,bloc_1,prob20hthp_12trials.xlsx,4,48,20,80,0,,,,,0,0,0,0,3,2,38,8,,,,,,,,3.5,365.97559829999227,369.4751629999955,369.4751168299932,0.30500030000985134,369.91965809999965,369.91965809999965,n,0.5038869999989402,372.1272098999907,372.1272098999907,2,1.649,,,sub-053,15,40,700,bloc_loop.csv,2023-09-24_11h21.15.574,PainUncertainty,2022.2.5,143.97479867723538,
aigu,moderee,stimuli/660Hz,stimuli/moderee,bloc_1,prob20hthp_12trials.xlsx,4,48,20,80,0,,,,,0,0,0,0,3,3,39,9,,,,,,,,4.5,372.1272098999907,376.62888619999285,376.6288834300009,0.3048502000019653,377.073384599993,377.073384599993,n,0.5835307000088505,382.62534799998684,382.62534799998684,1,4.915,,,sub-053,15,40,700,bloc_loop.csv,2023-09-24_11h21.15.574,PainUncertainty,2022.2.5,143.97479867723538,
aigu,moderee,stimuli/660Hz,stimuli/moderee,bloc_1,prob20hthp_12trials.xlsx,4,48,20,80,0,,,,,0,0,0,0,3,4,40,10,,,,,,,,4.8,382.62534799998684,387.4287118999928,387.42882042998974,0.3047514000063529,387.87761039999896,387.87761039999896,n,0.517348099994706,390.9194812999922,390.9194812999922,3,2.451,,,sub-053,15,40,700,bloc_loop.csv,2023-09-24_11h21.15.574,PainUncertainty,2022.2.5,143.97479867723538,
aigu,moderee,stimuli/660Hz,stimuli/moderee,bloc_1,prob20hthp_12trials.xlsx,4,48,20,80,0,,,,,0,0,0,0,3,5,41,7,,,,,,,,3,390.9194812999922,393.92248159999144,393.92255662999526,0.300966700000572,394.3671042999922,394.3671042999922,n,0.3959281999996165,398.7485861999885,398.7485861999885,1,3.905,,,sub-053,15,40,700,bloc_loop.csv,2023-09-24_11h21.15.574,PainUncertainty,2022.2.5,143.97479867723538,
aigu,forte,stimuli/660Hz,stimuli/forte,bloc_1,prob20hthp_12trials.xlsx,4,48,20,80,0,,,,,0,0,0,0,3,6,42,11,,,,,,,,4,398.7485861999885,402.7499664999923,402.7499894299923,0.30502589998650365,403.1940750999929,403.1940750999929,m,0.5749108000018168,406.51417429999856,406.51417429999856,31,2.665,,,sub-053,15,40,700,bloc_loop.csv,2023-09-24_11h21.15.574,PainUncertainty,2022.2.5,143.97479867723538,
grave,moderee,stimuli/330Hz,stimuli/moderee,bloc_1,prob20hthp_12trials.xlsx,4,48,20,80,0,,,,,0,0,0,0,3,7,43,5,,,,,,,,3.1,406.51417429999856,409.6187979999959,409.6188504299877,0.3050431000010576,410.06329969999206,410.06329969999206,n,0.5250587000045925,414.05367249999836,414.05367249999836,2,3.413,,,sub-053,15,40,700,bloc_loop.csv,2023-09-24_11h21.15.574,PainUncertainty,2022.2.5,143.97479867723538,
aigu,moderee,stimuli/660Hz,stimuli/moderee,bloc_1,prob20hthp_12trials.xlsx,4,48,20,80,0,,,,,0,0,0,0,3,8,44,6,,,,,,,,4.7,414.05367249999836,418.75891049999336,418.75895182998795,0.304977300009341,419.20739889999095,419.20739889999095,n,1.0314922999968985,421.91689719998976,421.91689719998976,5,1.595,,,sub-053,15,40,700,bloc_loop.csv,2023-09-24_11h21.15.574,PainUncertainty,2022.2.5,143.97479867723538,
grave,forte,stimuli/330Hz,stimuli/forte,bloc_1,prob20hthp_12trials.xlsx,4,48,20,80,0,,,,,0,0,0,0,3,9,45,0,,,,,,,,5,421.91689719998976,426.92019619999337,426.92144722998785,0.2993706999986898,427.3644764999917,427.3644764999917,m,0.9408714000019245,431.24594239999715,431.24594239999715,31,2.885,,,sub-053,15,40,700,bloc_loop.csv,2023-09-24_11h21.15.574,PainUncertainty,2022.2.5,143.97479867723538,
grave,forte,stimuli/330Hz,stimuli/forte,bloc_1,prob20hthp_12trials.xlsx,4,48,20,80,0,,,,,0,0,0,0,3,10,46,3,,,,,,,,3.8,431.24594239999715,435.04579429999285,435.04577192999716,0.29903059999924153,435.48836579998897,435.48836579998897,m,1.004705200000899,439.1389153999917,439.1389153999917,31,2.595,,,sub-053,15,40,700,bloc_loop.csv,2023-09-24_11h21.15.574,PainUncertainty,2022.2.5,143.97479867723538,
grave,forte,stimuli/330Hz,stimuli/forte,bloc_1,prob20hthp_12trials.xlsx,4,48,20,80,0,,,,,0,0,0,0,3,11,47,2,,,,,,,,3.3,439.1389153999917,442.44263659999706,442.442624729994,0.3017025000008289,442.8876945999946,442.8876945999946,m,0.44419330000528134,444.0777143999876,444.0777143999876,30,0.684,,,sub-053,15,40,700,bloc_loop.csv,2023-09-24_11h21.15.574,PainUncertainty,2022.2.5,143.97479867723538,
grave,forte,stimuli/330Hz,stimuli/forte,bloc_2,prob50_50_4trials.xlsx,2,8,50,50,1,,,,,0,1,1,1,0,0,0,1,,,,,,,,3.3,444.0777143999876,447.3804303999932,447.3804543300008,0.3051378000091063,447.82473709998885,447.82473709998885,m,0.45282330000190996,450.3089840999892,450.3089840999892,30,1.976,,,sub-053,15,40,700,bloc_loop.csv,2023-09-24_11h21.15.574,PainUncertainty,2022.2.5,143.97479867723538,
aigu,forte,stimuli/660Hz,stimuli/forte,bloc_2,prob50_50_4trials.xlsx,2,8,50,50,1,,,,,0,1,1,1,0,1,1,3,,,,,,,,4.9,450.3089840999892,455.2146604999871,455.2146602299996,0.3055428000079701,455.66122539999196,455.66122539999196,m,0.9138284000073327,458.15285319999384,458.15285319999384,33,1.503,,,sub-053,15,40,700,bloc_loop.csv,2023-09-24_11h21.15.574,PainUncertainty,2022.2.5,143.97479867723538,
aigu,moderee,stimuli/660Hz,stimuli/moderee,bloc_2,prob50_50_4trials.xlsx,2,8,50,50,1,,,,,0,1,1,1,0,2,2,2,,,,,,,,4.2,458.15285319999384,462.3544986999914,462.3545964299934,0.3049265000008745,462.7986397999921,462.7986397999921,n,0.39760609999939334,466.97300229998655,466.97300229998655,2,3.72,,,sub-053,15,40,700,bloc_loop.csv,2023-09-24_11h21.15.574,PainUncertainty,2022.2.5,143.97479867723538,
grave,moderee,stimuli/330Hz,stimuli/moderee,bloc_2,prob50_50_4trials.xlsx,2,8,50,50,1,,,,,0,1,1,1,0,3,3,0,,,,,,,,3.5,466.97300229998655,470.4734579999931,470.47340842999404,0.3051513999962481,470.9176807999902,470.9176807999902,n,0.5429647999990266,473.76479629999085,473.76479629999085,4,2.232,,,sub-053,15,40,700,bloc_loop.csv,2023-09-24_11h21.15.574,PainUncertainty,2022.2.5,143.97479867723538,
grave,forte,stimuli/330Hz,stimuli/forte,bloc_2,prob50_50_4trials.xlsx,2,8,50,50,1,,,,,0,1,1,1,1,0,4,1,,,,,,,,3.9,473.76479629999085,477.6687457999942,477.66877772999,0.3052351000078488,478.1137996999896,478.1137996999896,m,0.7230641000060132,481.29240399999253,481.29240399999253,31,2.377,,,sub-053,15,40,700,bloc_loop.csv,2023-09-24_11h21.15.574,PainUncertainty,2022.2.5,143.97479867723538,
aigu,moderee,stimuli/660Hz,stimuli/moderee,bloc_2,prob50_50_4trials.xlsx,2,8,50,50,1,,,,,0,1,1,1,1,1,5,2,,,,,,,,4.6,481.29240399999253,485.8936699999904,485.8924104299891,0.3017141000018455,486.33684319999884,486.33684319999884,n,0.3659329000074649,490.7167006999953,490.7167006999953,1,3.956,,,sub-053,15,40,700,bloc_loop.csv,2023-09-24_11h21.15.574,PainUncertainty,2022.2.5,143.97479867723538,
grave,moderee,stimuli/330Hz,stimuli/moderee,bloc_2,prob50_50_4trials.xlsx,2,8,50,50,1,,,,,0,1,1,1,1,2,6,0,,,,,,,,3.2,490.7167006999953,493.9208001999941,493.9207870299957,0.305162200005725,494.3650685999892,494.3650685999892,n,0.8470503000135068,496.8690176999953,496.8690176999953,4,1.587,,,sub-053,15,40,700,bloc_loop.csv,2023-09-24_11h21.15.574,PainUncertainty,2022.2.5,143.97479867723538,
aigu,forte,stimuli/660Hz,stimuli/forte,bloc_2,prob50_50_4trials.xlsx,2,8,50,50,1,,,,,0,1,1,1,1,3,7,3,,,,,,,,4.7,496.8690176999953,501.5749628999911,501.574918929991,0.30469649999577086,502.01905659999466,502.01905659999466,m,0.6397297000075923,507.2769077999983,507.2769077999983,34,2.581,,,sub-053,15,40,700,bloc_loop.csv,2023-09-24_11h21.15.574,PainUncertainty,2022.2.5,143.97479867723538,
,,,,bloc_2,prob50_50_4trials.xlsx,2,8,50,50,1,,,,,0,1,1,1,,,,,0,0,0,0,,,,,,,,,,,,,,,,,507.2769077999983,524.9523702999868,sub-053,15,40,700,bloc_loop.csv,2023-09-24_11h21.15.574,PainUncertainty,2022.2.5,143.97479867723538,
grave,moderee,stimuli/330Hz,stimuli/moderee,bloc_3,prob80hthp_12trials.xlsx,2,24,80,20,0,,,,,0,2,2,2,0,0,0,0,,,,,,,,4.4,526.284991499997,530.6890826999879,530.689100429992,0.30524260000674985,531.1337278999999,531.1337278999999,n,0.5200350999948569,533.8268299999909,533.8268299999909,3,2.101,,,sub-053,15,40,700,bloc_loop.csv,2023-09-24_11h21.15.574,PainUncertainty,2022.2.5,143.97479867723538,
aigu,forte,stimuli/660Hz,stimuli/forte,bloc_3,prob80hthp_12trials.xlsx,2,24,80,20,0,,,,,0,2,2,2,0,1,1,7,,,,,,,,4.4,533.8268299999909,538.2319406999886,538.2318971299916,0.2991293999948539,538.672725499986,538.672725499986,m,0.4144276000006357,541.0313811999949,541.0313811999949,30,1.886,,,sub-053,15,40,700,bloc_loop.csv,2023-09-24_11h21.15.574,PainUncertainty,2022.2.5,143.97479867723538,
grave,forte,stimuli/330Hz,stimuli/forte,bloc_3,prob80hthp_12trials.xlsx,2,24,80,20,0,,,,,0,2,2,2,0,2,2,5,,,,,,,,4,541.0313811999949,545.0316682999983,545.0317664299888,0.3051182999915909,545.4800424999994,545.4800424999994,m,0.7060543000116013,547.873331099996,547.873331099996,32,1.607,,,sub-053,15,40,700,bloc_loop.csv,2023-09-24_11h21.15.574,PainUncertainty,2022.2.5,143.97479867723538,
grave,moderee,stimuli/330Hz,stimuli/moderee,bloc_3,prob80hthp_12trials.xlsx,2,24,80,20,0,,,,,0,2,2,2,0,3,3,2,,,,,,,,3.8,547.873331099996,551.6786582999921,551.6782287299953,0.3052670000033686,552.1270169999916,552.1270169999916,n,0.6031509000022197,554.6470448999899,554.6470448999899,3,1.851,,,sub-053,15,40,700,bloc_loop.csv,2023-09-24_11h21.15.574,PainUncertainty,2022.2.5,143.97479867723538,
grave,moderee,stimuli/330Hz,stimuli/moderee,bloc_3,prob80hthp_12trials.xlsx,2,24,80,20,0,,,,,0,2,2,2,0,4,4,1,,,,,,,,3.4,554.6470448999899,558.0474490999914,558.0473031300004,0.304759999999078,558.491580899994,558.491580899994,n,0.6607423000095878,561.0677519999881,561.0677519999881,2,1.851,,,sub-053,15,40,700,bloc_loop.csv,2023-09-24_11h21.15.574,PainUncertainty,2022.2.5,143.97479867723538,
grave,moderee,stimuli/330Hz,stimuli/moderee,bloc_3,prob80hthp_12trials.xlsx,2,24,80,20,0,,,,,0,2,2,2,0,5,5,3,,,,,,,,4.4,561.0677519999881,565.471464599992,565.4711875299923,0.30522259999997914,565.9155223999987,565.9155223999987,n,0.8552226000028895,570.5124165999878,570.5124165999878,2,3.656,,,sub-053,15,40,700,bloc_loop.csv,2023-09-24_11h21.15.574,PainUncertainty,2022.2.5,143.97479867723538,
aigu,forte,stimuli/660Hz,stimuli/forte,bloc_3,prob80hthp_12trials.xlsx,2,24,80,20,0,,,,,0,2,2,2,0,6,6,10,,,,,,,,3.9,570.5124165999878,574.4167519999901,574.4166998300003,0.3050775000010617,574.8611858999939,574.8611858999939,m,0.44171870000718627,577.6063261999952,577.6063261999952,33,2.227,,,sub-053,15,40,700,bloc_loop.csv,2023-09-24_11h21.15.574,PainUncertainty,2022.2.5,143.97479867723538,
grave,moderee,stimuli/330Hz,stimuli/moderee,bloc_3,prob80hthp_12trials.xlsx,2,24,80,20,0,,,,,0,2,2,2,0,7,7,4,,,,,,,,4.6,577.6063261999952,582.2093461999903,582.209182329994,0.3053500999958487,582.6535579999909,582.6535579999909,n,0.4321761000028346,585.6439038999961,585.6439038999961,3,2.476,,,sub-053,15,40,700,bloc_loop.csv,2023-09-24_11h21.15.574,PainUncertainty,2022.2.5,143.97479867723538,
aigu,forte,stimuli/660Hz,stimuli/forte,bloc_3,prob80hthp_12trials.xlsx,2,24,80,20,0,,,,,0,2,2,2,0,8,8,8,,,,,,,,4.5,585.6439038999961,590.1478817999887,590.1478778299876,0.3052400000015041,590.5921368999989,590.5921368999989,m,0.39120009999896865,592.6728679999942,592.6728679999942,33,1.593,,,sub-053,15,40,700,bloc_loop.csv,2023-09-24_11h21.15.574,PainUncertainty,2022.2.5,143.97479867723538,
aigu,forte,stimuli/660Hz,stimuli/forte,bloc_3,prob80hthp_12trials.xlsx,2,24,80,20,0,,,,,0,2,2,2,0,9,9,9,,,,,,,,4.9,592.6728679999942,597.572431099994,597.5723358299962,0.30509880000317935,598.0165538999863,598.0165538999863,m,0.38095930000417866,600.8701113999996,600.8701113999996,32,2.405,,,sub-053,15,40,700,bloc_loop.csv,2023-09-24_11h21.15.574,PainUncertainty,2022.2.5,143.97479867723538,
aigu,moderee,stimuli/660Hz,stimuli/moderee,bloc_3,prob80hthp_12trials.xlsx,2,24,80,20,0,,,,,0,2,2,2,0,10,10,11,,,,,,,,4.5,600.8701113999996,605.3722588999954,605.3723575299897,0.30469440000888426,605.816030499991,605.816030499991,n,0.679120700006024,607.9501938999892,607.9501938999892,1,1.379,,,sub-053,15,40,700,bloc_loop.csv,2023-09-24_11h21.15.574,PainUncertainty,2022.2.5,143.97479867723538,
aigu,forte,stimuli/660Hz,stimuli/forte,bloc_3,prob80hthp_12trials.xlsx,2,24,80,20,0,,,,,0,2,2,2,0,11,11,6,,,,,,,,3.3,607.9501938999892,611.2550378999877,611.254972829987,0.3006170000007842,611.6990600999998,611.6990600999998,m,0.520896600006381,614.7245362999965,614.7245362999965,33,2.436,,,sub-053,15,40,700,bloc_loop.csv,2023-09-24_11h21.15.574,PainUncertainty,2022.2.5,143.97479867723538,
aigu,moderee,stimuli/660Hz,stimuli/moderee,bloc_3,prob80hthp_12trials.xlsx,2,24,80,20,0,,,,,0,2,2,2,1,0,12,11,,,,,,,,3,614.7245362999965,617.7276366999868,617.7275609299919,0.3050022999959765,618.171763099992,618.171763099992,n,1.2488227000139887,620.7788146999956,620.7788146999956,2,1.289,,,sub-053,15,40,700,bloc_loop.csv,2023-09-24_11h21.15.574,PainUncertainty,2022.2.5,143.97479867723538,
aigu,forte,stimuli/660Hz,stimuli/forte,bloc_3,prob80hthp_12trials.xlsx,2,24,80,20,0,,,,,0,2,2,2,1,1,13,6,,,,,,,,3.5,620.7788146999956,624.2839364999963,624.2838822299906,0.30533280000963714,624.7284027999995,624.7284027999995,m,0.6304519000113942,626.7242097999988,626.7242097999988,31,1.289,,,sub-053,15,40,700,bloc_loop.csv,2023-09-24_11h21.15.574,PainUncertainty,2022.2.5,143.97479867723538,
grave,moderee,stimuli/330Hz,stimuli/moderee,bloc_3,prob80hthp_12trials.xlsx,2,24,80,20,0,,,,,0,2,2,2,1,2,14,3,,,,,,,,5,626.7242097999988,631.7297184999916,631.7296177299955,0.30493129999376833,632.1739866999997,632.1739866999997,n,0.49144220000016503,637.1250073999981,637.1250073999981,2,4.386,,,sub-053,15,40,700,bloc_loop.csv,2023-09-24_11h21.15.574,PainUncertainty,2022.2.5,143.97479867723538,
aigu,forte,stimuli/660Hz,stimuli/forte,bloc_3,prob80hthp_12trials.xlsx,2,24,80,20,0,,,,,0,2,2,2,1,3,15,10,,,,,,,,4.1,637.1250073999981,641.2304879000003,641.2305458299903,0.30523379999795,641.6771008999931,641.6771008999931,m,0.6419319000124233,645.4014509999979,645.4014509999979,30,3.018,,,sub-053,15,40,700,bloc_loop.csv,2023-09-24_11h21.15.574,PainUncertainty,2022.2.5,143.97479867723538,
grave,forte,stimuli/330Hz,stimuli/forte,bloc_3,prob80hthp_12trials.xlsx,2,24,80,20,0,,,,,0,2,2,2,1,4,16,5,,,,,,,,5,645.4014509999979,650.4051345999906,650.405113629991,0.30524200000218116,650.8494521999964,650.8494521999964,m,0.7467545000108657,653.7438968999923,653.7438968999923,28,2.068,,,sub-053,15,40,700,bloc_loop.csv,2023-09-24_11h21.15.574,PainUncertainty,2022.2.5,143.97479867723538,
grave,moderee,stimuli/330Hz,stimuli/moderee,bloc_3,prob80hthp_12trials.xlsx,2,24,80,20,0,,,,,0,2,2,2,1,5,17,0,,,,,,,,4.8,653.7438968999923,658.5451099999918,658.5451283300005,0.30096550000598654,658.9898948999908,658.9898948999908,n,0.49302629999874625,661.7797653999878,661.7797653999878,0,2.226,,,sub-053,15,40,700,bloc_loop.csv,2023-09-24_11h21.15.574,PainUncertainty,2022.2.5,143.97479867723538,
aigu,forte,stimuli/660Hz,stimuli/forte,bloc_3,prob80hthp_12trials.xlsx,2,24,80,20,0,,,,,0,2,2,2,1,6,18,7,,,,,,,,3,661.7797653999878,664.7820202000003,664.7819069299964,0.3051121000025887,665.2264490999951,665.2264490999951,m,0.5138374999951338,667.16292409999,667.16292409999,30,1.364,,,sub-053,15,40,700,bloc_loop.csv,2023-09-24_11h21.15.574,PainUncertainty,2022.2.5,143.97479867723538,
aigu,forte,stimuli/660Hz,stimuli/forte,bloc_3,prob80hthp_12trials.xlsx,2,24,80,20,0,,,,,0,2,2,2,1,7,19,9,,,,,,,,4.6,667.16292409999,671.7623254999926,671.76225062999,0.30483140000433195,672.2066139999952,672.2066139999952,m,0.5774113000079524,675.1534114999959,675.1534114999959,34,2.288,,,sub-053,15,40,700,bloc_loop.csv,2023-09-24_11h21.15.574,PainUncertainty,2022.2.5,143.97479867723538,
grave,moderee,stimuli/330Hz,stimuli/moderee,bloc_3,prob80hthp_12trials.xlsx,2,24,80,20,0,,,,,0,2,2,2,1,8,20,2,,,,,,,,3.1,675.1534114999959,678.2559595999919,678.2558757299936,0.30500570000731386,678.700277099997,678.700277099997,n,0.45744189999822993,680.9204218999948,680.9204218999948,0,1.706,,,sub-053,15,40,700,bloc_loop.csv,2023-09-24_11h21.15.574,PainUncertainty,2022.2.5,143.97479867723538,
grave,moderee,stimuli/330Hz,stimuli/moderee,bloc_3,prob80hthp_12trials.xlsx,2,24,80,20,0,,,,,0,2,2,2,1,9,21,1,,,,,,,,4.5,680.9204218999948,685.4237394999946,685.4238885299943,0.29908830000204034,685.8659125999984,685.8659125999984,n,0.5576416000112658,690.3951379999926,690.3951379999926,0,3.921,,,sub-053,15,40,700,bloc_loop.csv,2023-09-24_11h21.15.574,PainUncertainty,2022.2.5,143.97479867723538,
grave,moderee,stimuli/330Hz,stimuli/moderee,bloc_3,prob80hthp_12trials.xlsx,2,24,80,20,0,,,,,0,2,2,2,1,10,22,4,,,,,,,,4.7,690.3951379999926,695.0986390999897,695.0985502299969,0.30514849998871796,695.5465373999905,695.5465373999905,n,1.5795801000058418,700.1603496999887,700.1603496999887,2,2.962,,,sub-053,15,40,700,bloc_loop.csv,2023-09-24_11h21.15.574,PainUncertainty,2022.2.5,143.97479867723538,
aigu,forte,stimuli/660Hz,stimuli/forte,bloc_3,prob80hthp_12trials.xlsx,2,24,80,20,0,,,,,0,2,2,2,1,11,23,8,,,,,,,,3.4,700.1603496999887,703.5648799999908,703.564759030001,0.30506050000258256,704.008812,704.008812,m,0.5761952000029851,706.2627061999956,706.2627061999956,36,1.608,,,sub-053,15,40,700,bloc_loop.csv,2023-09-24_11h21.15.574,PainUncertainty,2022.2.5,143.97479867723538,
aigu,moderee,stimuli/660Hz,stimuli/moderee,bloc_4,prob50_50_4trials.xlsx,2,8,50,50,1,,,,,0,3,3,3,0,0,0,2,,,,,,,,3.1,706.2627061999956,709.3637783999875,709.3636713299871,0.3015958000032697,709.8084132999938,709.8084132999938,n,0.5630810000147903,713.5166638999945,713.5166638999945,0,3.09,,,sub-053,15,40,700,bloc_loop.csv,2023-09-24_11h21.15.574,PainUncertainty,2022.2.5,143.97479867723538,
grave,moderee,stimuli/330Hz,stimuli/moderee,bloc_4,prob50_50_4trials.xlsx,2,8,50,50,1,,,,,0,3,3,3,0,1,1,0,,,,,,,,5,713.5166638999945,718.5176731999964,718.5175991299999,0.30502899999555666,718.9619244999922,718.9619244999922,n,1.499178900005063,722.1458687999984,722.1458687999984,0,1.613,,,sub-053,15,40,700,bloc_loop.csv,2023-09-24_11h21.15.574,PainUncertainty,2022.2.5,143.97479867723538,
aigu,forte,stimuli/660Hz,stimuli/forte,bloc_4,prob50_50_4trials.xlsx,2,8,50,50,1,,,,,0,3,3,3,0,2,2,3,,,,,,,,3.6,722.1458687999984,725.7478642999922,725.7478209299967,0.30472630000440404,726.1924105999933,726.1924105999933,m,0.577775500001735,729.3976097999985,729.3976097999985,30,2.574,,,sub-053,15,40,700,bloc_loop.csv,2023-09-24_11h21.15.574,PainUncertainty,2022.2.5,143.97479867723538,
grave,forte,stimuli/330Hz,stimuli/forte,bloc_4,prob50_50_4trials.xlsx,2,8,50,50,1,,,,,0,3,3,3,0,3,3,1,,,,,,,,3.3,729.3976097999985,732.7000695999886,732.7000297299907,0.2996887000044808,733.1445250999968,733.1445250999968,m,0.6092760000028647,735.327820999999,735.327820999999,30,1.509,,,sub-053,15,40,700,bloc_loop.csv,2023-09-24_11h21.15.574,PainUncertainty,2022.2.5,143.97479867723538,
grave,forte,stimuli/330Hz,stimuli/forte,bloc_4,prob50_50_4trials.xlsx,2,8,50,50,1,,,,,0,3,3,3,1,0,4,1,,,,,,,,3.9,735.327820999999,739.2285636999877,739.2286185299978,0.3049721999996109,739.672736499997,739.672736499997,m,0.5568204000010155,741.8630051999935,741.8630051999935,33,1.558,,,sub-053,15,40,700,bloc_loop.csv,2023-09-24_11h21.15.574,PainUncertainty,2022.2.5,143.97479867723538,
aigu,moderee,stimuli/660Hz,stimuli/moderee,bloc_4,prob50_50_4trials.xlsx,2,8,50,50,1,,,,,0,3,3,3,1,1,5,2,,,,,,,,4.8,741.8630051999935,746.6669519999996,746.6669727299974,0.30515689999447204,747.1113429999969,747.1113429999969,n,0.40010470000561327,749.6609427999938,749.6609427999938,0,2.066,,,sub-053,15,40,700,bloc_loop.csv,2023-09-24_11h21.15.574,PainUncertainty,2022.2.5,143.97479867723538,
aigu,forte,stimuli/660Hz,stimuli/forte,bloc_4,prob50_50_4trials.xlsx,2,8,50,50,1,,,,,0,3,3,3,1,2,6,3,,,,,,,,3.6,749.6609427999938,753.264977999992,753.2650195299881,0.3050589000049513,753.7092227999965,753.7092227999965,m,0.7151627999992343,756.3554469999945,756.3554469999945,39,1.858,,,sub-053,15,40,700,bloc_loop.csv,2023-09-24_11h21.15.574,PainUncertainty,2022.2.5,143.97479867723538,
grave,moderee,stimuli/330Hz,stimuli/moderee,bloc_4,prob50_50_4trials.xlsx,2,8,50,50,1,,,,,0,3,3,3,1,3,7,0,,,,,,,,3.9,756.3554469999945,760.2592749999894,760.2592083299911,0.3050300999893807,760.7032981999946,760.7032981999946,n,0.46900860000459943,765.4705691999989,765.4705691999989,1,2.268,,,sub-053,15,40,700,bloc_loop.csv,2023-09-24_11h21.15.574,PainUncertainty,2022.2.5,143.97479867723538,
,,,,bloc_4,prob50_50_4trials.xlsx,2,8,50,50,1,,,,,0,3,3,3,,,,,0,0,0,0,,,,,,,,,,,,,,,,,765.4705691999989,782.3386390999949,sub-053,15,40,700,bloc_loop.csv,2023-09-24_11h21.15.574,PainUncertainty,2022.2.5,143.97479867723538,
aigu,moderee,stimuli/660Hz,stimuli/moderee,bloc_5,prob20hthp_12trials.xlsx,2,24,20,80,0,,,,,0,4,4,4,0,0,0,8,,,,,,,,4.1,783.5814522000001,787.6866751999914,787.686518829994,0.3051029999915045,788.133124,788.133124,n,0.5074929000111297,791.3131434999959,791.3131434999959,0,2.608,,,sub-053,15,40,700,bloc_loop.csv,2023-09-24_11h21.15.574,PainUncertainty,2022.2.5,143.97479867723538,
aigu,moderee,stimuli/660Hz,stimuli/moderee,bloc_5,prob20hthp_12trials.xlsx,2,24,20,80,0,,,,,0,4,4,4,0,1,1,7,,,,,,,,3.6,791.3131434999959,794.9161759999988,794.9161664299987,0.3054859999974724,795.3654580999864,795.3654580999864,n,0.4271848000062164,798.2656212000002,798.2656212000002,0,2.389,,,sub-053,15,40,700,bloc_loop.csv,2023-09-24_11h21.15.574,PainUncertainty,2022.2.5,143.97479867723538,
grave,forte,stimuli/330Hz,stimuli/forte,bloc_5,prob20hthp_12trials.xlsx,2,24,20,80,0,,,,,0,4,4,4,0,2,2,0,,,,,,,,4.7,798.2656212000002,802.965895699992,802.9658450299991,0.3047579999984009,803.4097842999909,803.4097842999909,m,0.370985000001383,806.1729989999876,806.1729989999876,33,2.322,,,sub-053,15,40,700,bloc_loop.csv,2023-09-24_11h21.15.574,PainUncertainty,2022.2.5,143.97479867723538,
grave,forte,stimuli/330Hz,stimuli/forte,bloc_5,prob20hthp_12trials.xlsx,2,24,20,80,0,,,,,0,4,4,4,0,3,3,2,,,,,,,,4.4,806.1729989999876,810.5777231999964,810.577564529996,0.30523909999465104,811.0217911999935,811.0217911999935,m,0.3323781999933999,812.868848699989,812.868848699989,31,1.434,,,sub-053,15,40,700,bloc_loop.csv,2023-09-24_11h21.15.574,PainUncertainty,2022.2.5,143.97479867723538,
aigu,moderee,stimuli/660Hz,stimuli/moderee,bloc_5,prob20hthp_12trials.xlsx,2,24,20,80,0,,,,,0,4,4,4,0,4,4,9,,,,,,,,3,812.868848699989,815.870270799991,815.8703715299868,0.3050602000002982,816.3162709999888,816.3162709999888,n,0.3455285000090953,819.6597914999875,819.6597914999875,1,2.942,,,sub-053,15,40,700,bloc_loop.csv,2023-09-24_11h21.15.574,PainUncertainty,2022.2.5,143.97479867723538,
grave,moderee,stimuli/330Hz,stimuli/moderee,bloc_5,prob20hthp_12trials.xlsx,2,24,20,80,0,,,,,0,4,4,4,0,5,5,5,,,,,,,,4.9,819.6597914999875,824.56543219999,824.565391329999,0.3052181999955792,825.0096105999983,825.0096105999983,n,0.8901017000025604,828.4949087999994,828.4949087999994,1,2.532,,,sub-053,15,40,700,bloc_loop.csv,2023-09-24_11h21.15.574,PainUncertainty,2022.2.5,143.97479867723538,
aigu,moderee,stimuli/660Hz,stimuli/moderee,bloc_5,prob20hthp_12trials.xlsx,2,24,20,80,0,,,,,0,4,4,4,0,6,6,6,,,,,,,,3.6,828.4949087999994,832.0944005999918,832.0943459299975,0.30495990000781603,832.5384597999946,832.5384597999946,n,0.9838542000070447,836.7557146999898,836.7557146999898,3,3.164,,,sub-053,15,40,700,bloc_loop.csv,2023-09-24_11h21.15.574,PainUncertainty,2022.2.5,143.97479867723538,
grave,forte,stimuli/330Hz,stimuli/forte,bloc_5,prob20hthp_12trials.xlsx,2,24,20,80,0,,,,,0,4,4,4,0,7,7,4,,,,,,,,4.8,836.7557146999898,841.5606606999936,841.5605194299948,0.3051156000001356,842.0048927999887,842.0048927999887,m,0.6947440000076313,843.8977420999872,843.8977420999872,33,1.138,,,sub-053,15,40,700,bloc_loop.csv,2023-09-24_11h21.15.574,PainUncertainty,2022.2.5,143.97479867723538,
grave,forte,stimuli/330Hz,stimuli/forte,bloc_5,prob20hthp_12trials.xlsx,2,24,20,80,0,,,,,0,4,4,4,0,8,8,1,,,,,,,,4.3,843.8977420999872,848.2002813999861,848.200248029994,0.30496340000536293,848.6445171999949,848.6445171999949,m,0.4502777000016067,849.7933761999884,849.7933761999884,40,0.629,,,sub-053,15,40,700,bloc_loop.csv,2023-09-24_11h21.15.574,PainUncertainty,2022.2.5,143.97479867723538,
aigu,moderee,stimuli/660Hz,stimuli/moderee,bloc_5,prob20hthp_12trials.xlsx,2,24,20,80,0,,,,,0,4,4,4,0,9,9,10,,,,,,,,3.6,849.7933761999884,853.3957168999914,853.3956863299915,0.2997578000067733,853.8384037999931,853.8384037999931,n,0.43333430000348017,856.2495182999992,856.2495182999992,1,1.906,,,sub-053,15,40,700,bloc_loop.csv,2023-09-24_11h21.15.574,PainUncertainty,2022.2.5,143.97479867723538,
grave,forte,stimuli/330Hz,stimuli/forte,bloc_5,prob20hthp_12trials.xlsx,2,24,20,80,0,,,,,0,4,4,4,0,10,10,3,,,,,,,,3.7,856.2495182999992,859.9522609999985,859.9521135299962,0.3050705000059679,860.3996034999873,860.3996034999873,m,0.7548999999999069,862.9442684999958,862.9442684999958,35,1.725,,,sub-053,15,40,700,bloc_loop.csv,2023-09-24_11h21.15.574,PainUncertainty,2022.2.5,143.97479867723538,
aigu,forte,stimuli/660Hz,stimuli/forte,bloc_5,prob20hthp_12trials.xlsx,2,24,20,80,0,,,,,0,4,4,4,0,11,11,11,,,,,,,,4.4,862.9442684999958,867.3484993999882,867.3484915300011,0.304927500008489,867.7929835999967,867.7929835999967,m,0.6312025000079302,869.7511105999874,869.7511105999874,35,1.254,,,sub-053,15,40,700,bloc_loop.csv,2023-09-24_11h21.15.574,PainUncertainty,2022.2.5,143.97479867723538,
aigu,moderee,stimuli/660Hz,stimuli/moderee,bloc_5,prob20hthp_12trials.xlsx,2,24,20,80,0,,,,,0,4,4,4,1,0,12,9,,,,,,,,3.7,869.7511105999874,873.4534193999862,873.4535239299963,0.30528529999719467,873.9015183999873,873.9015183999873,n,0.897271499998169,876.428986999992,876.428986999992,2,1.574,,,sub-053,15,40,700,bloc_loop.csv,2023-09-24_11h21.15.574,PainUncertainty,2022.2.5,143.97479867723538,
aigu,moderee,stimuli/660Hz,stimuli/moderee,bloc_5,prob20hthp_12trials.xlsx,2,24,20,80,0,,,,,0,4,4,4,1,1,13,6,,,,,,,,4.7,876.428986999992,881.1279097999941,881.1280330300011,0.30498339999758173,881.5720968999958,881.5720968999958,n,0.9771539999928791,886.0011083999998,886.0011083999998,0,3.38,,,sub-053,15,40,700,bloc_loop.csv,2023-09-24_11h21.15.574,PainUncertainty,2022.2.5,143.97479867723538,
grave,forte,stimuli/330Hz,stimuli/forte,bloc_5,prob20hthp_12trials.xlsx,2,24,20,80,0,,,,,0,4,4,4,1,2,14,3,,,,,,,,4.4,886.0011083999998,890.4002360999875,890.4002210299892,0.30474449999746867,890.8444533999864,890.8444533999864,m,0.6232859000156168,893.2365532999975,893.2365532999975,37,1.719,,,sub-053,15,40,700,bloc_loop.csv,2023-09-24_11h21.15.574,PainUncertainty,2022.2.5,143.97479867723538,
grave,forte,stimuli/330Hz,stimuli/forte,bloc_5,prob20hthp_12trials.xlsx,2,24,20,80,0,,,,,0,4,4,4,1,3,15,1,,,,,,,,3.9,893.2365532999975,897.136967399987,897.136843829992,0.3049877000012202,897.5850176999957,897.5850176999957,m,0.36091509999823757,899.9331931999914,899.9331931999914,36,1.913,,,sub-053,15,40,700,bloc_loop.csv,2023-09-24_11h21.15.574,PainUncertainty,2022.2.5,143.97479867723538,
grave,moderee,stimuli/330Hz,stimuli/moderee,bloc_5,prob20hthp_12trials.xlsx,2,24,20,80,0,,,,,0,4,4,4,1,4,16,5,,,,,,,,3,899.9331931999914,902.9363392999949,902.9363462299895,0.3048513000103412,903.3804163999885,903.3804163999885,n,0.8839695000060601,907.4420575999975,907.4420575999975,0,3.115,,,sub-053,15,40,700,bloc_loop.csv,2023-09-24_11h21.15.574,PainUncertainty,2022.2.5,143.97479867723538,
aigu,moderee,stimuli/660Hz,stimuli/moderee,bloc_5,prob20hthp_12trials.xlsx,2,24,20,80,0,,,,,0,4,4,4,1,5,17,10,,,,,,,,4.2,907.4420575999975,911.6462323999876,911.64583843,0.30523519999405835,912.0923263000004,912.0923263000004,n,0.762220000004163,917.4454578999866,917.4454578999866,2,4.504,,,sub-053,15,40,700,bloc_loop.csv,2023-09-24_11h21.15.574,PainUncertainty,2022.2.5,143.97479867723538,
grave,forte,stimuli/330Hz,stimuli/forte,bloc_5,prob20hthp_12trials.xlsx,2,24,20,80,0,,,,,0,4,4,4,1,6,18,0,,,,,,,,4,917.4454578999866,921.4458206999989,921.4460108299915,0.304620300012175,921.8898558999936,921.8898558999936,m,0.6078706999978749,924.9215382999973,924.9215382999973,41,2.372,,,sub-053,15,40,700,bloc_loop.csv,2023-09-24_11h21.15.574,PainUncertainty,2022.2.5,143.97479867723538,
grave,forte,stimuli/330Hz,stimuli/forte,bloc_5,prob20hthp_12trials.xlsx,2,24,20,80,0,,,,,0,4,4,4,1,7,19,2,,,,,,,,3.9,924.9215382999973,928.8217264999985,928.8215984299983,0.30496839999977965,929.265579999992,929.265579999992,m,0.49410729999362957,931.3129581999965,931.3129581999965,36,1.482,,,sub-053,15,40,700,bloc_loop.csv,2023-09-24_11h21.15.574,PainUncertainty,2022.2.5,143.97479867723538,
aigu,moderee,stimuli/660Hz,stimuli/moderee,bloc_5,prob20hthp_12trials.xlsx,2,24,20,80,0,,,,,0,4,4,4,1,8,20,8,,,,,,,,3.3,931.3129581999965,934.6136590999959,934.613604429987,0.3053283999906853,935.0582029999932,935.0582029999932,n,0.41315120000217576,937.0008930999902,937.0008930999902,0,1.475,,,sub-053,15,40,700,bloc_loop.csv,2023-09-24_11h21.15.574,PainUncertainty,2022.2.5,143.97479867723538,
aigu,moderee,stimuli/660Hz,stimuli/moderee,bloc_5,prob20hthp_12trials.xlsx,2,24,20,80,0,,,,,0,4,4,4,1,9,21,7,,,,,,,,5,937.0008930999902,942.0033963999886,942.0033534299961,0.30547579999256413,942.4475723999931,942.4475723999931,n,0.3308661999908509,946.0149970999919,946.0149970999919,0,3.156,,,sub-053,15,40,700,bloc_loop.csv,2023-09-24_11h21.15.574,PainUncertainty,2022.2.5,143.97479867723538,
aigu,forte,stimuli/660Hz,stimuli/forte,bloc_5,prob20hthp_12trials.xlsx,2,24,20,80,0,,,,,0,4,4,4,1,10,22,11,,,,,,,,3.4,946.0149970999919,949.4144018999941,949.4143286299892,0.30486020000535063,949.8583531999902,949.8583531999902,m,0.49305280001135543,951.1256203999947,951.1256203999947,40,0.726,,,sub-053,15,40,700,bloc_loop.csv,2023-09-24_11h21.15.574,PainUncertainty,2022.2.5,143.97479867723538,
grave,forte,stimuli/330Hz,stimuli/forte,bloc_5,prob20hthp_12trials.xlsx,2,24,20,80,0,,,,,0,4,4,4,1,11,23,4,,,,,,,,4.8,951.1256203999947,955.9288119999983,955.9288887300005,0.3050078999949619,956.3731790999882,956.3731790999882,m,0.5708119000046281,960.2353027999925,960.2353027999925,38,3.212,,,sub-053,15,40,700,bloc_loop.csv,2023-09-24_11h21.15.574,PainUncertainty,2022.2.5,143.97479867723538,
aigu,moderee,stimuli/660Hz,stimuli/moderee,bloc_6,prob50_50_4trials.xlsx,2,8,50,50,0,,,,,0,5,5,5,0,0,0,2,,,,,,,,4,960.2353027999925,964.2358593999961,964.235668930001,0.3050321999908192,964.6800292999978,964.6800292999978,n,0.425525300015579,966.89574919999,966.89574919999,3,1.719,,,sub-053,15,40,700,bloc_loop.csv,2023-09-24_11h21.15.574,PainUncertainty,2022.2.5,143.97479867723538,
aigu,forte,stimuli/660Hz,stimuli/forte,bloc_6,prob50_50_4trials.xlsx,2,8,50,50,0,,,,,0,5,5,5,0,1,1,3,,,,,,,,3.2,966.89574919999,970.0972437999881,970.0970277299872,0.30526710000413004,970.5414072999993,970.5414072999993,m,0.9042871000128798,973.5295700999995,973.5295700999995,33,2.004,,,sub-053,15,40,700,bloc_loop.csv,2023-09-24_11h21.15.574,PainUncertainty,2022.2.5,143.97479867723538,
grave,moderee,stimuli/330Hz,stimuli/moderee,bloc_6,prob50_50_4trials.xlsx,2,8,50,50,0,,,,,0,5,5,5,0,2,2,0,,,,,,,,4.9,973.5295700999995,978.4313903000002,978.4314341299993,0.3051348000008147,978.8762567999947,978.8762567999947,n,1.0274008999986108,981.2460064999905,981.2460064999905,1,1.274,,,sub-053,15,40,700,bloc_loop.csv,2023-09-24_11h21.15.574,PainUncertainty,2022.2.5,143.97479867723538,
grave,forte,stimuli/330Hz,stimuli/forte,bloc_6,prob50_50_4trials.xlsx,2,8,50,50,0,,,,,0,5,5,5,0,3,3,1,,,,,,,,3.6,981.2460064999905,984.8489749,984.8490921299905,0.3055123999947682,985.2964028999995,985.2964028999995,m,0.6343674000090687,987.1418443000002,987.1418443000002,40,1.143,,,sub-053,15,40,700,bloc_loop.csv,2023-09-24_11h21.15.574,PainUncertainty,2022.2.5,143.97479867723538,
grave,moderee,stimuli/330Hz,stimuli/moderee,bloc_6,prob50_50_4trials.xlsx,2,8,50,50,0,,,,,0,5,5,5,1,0,4,0,,,,,,,,4.4,987.1418443000002,991.5441229999997,991.5440921299975,0.30518759999540634,991.9885286999925,991.9885286999925,n,0.49068329999863636,993.7393027999933,993.7393027999933,0,1.206,,,sub-053,15,40,700,bloc_loop.csv,2023-09-24_11h21.15.574,PainUncertainty,2022.2.5,143.97479867723538,
aigu,moderee,stimuli/660Hz,stimuli/moderee,bloc_6,prob50_50_4trials.xlsx,2,8,50,50,0,,,,,0,5,5,5,1,1,5,2,,,,,,,,4,993.7393027999933,997.7394223999872,997.7393316299946,0.3051565999921877,998.1836063999945,998.1836063999945,n,0.6603156000055606,1000.1642595999874,1000.1642595999874,1,1.239,,,sub-053,15,40,700,bloc_loop.csv,2023-09-24_11h21.15.574,PainUncertainty,2022.2.5,143.97479867723538,
aigu,forte,stimuli/660Hz,stimuli/forte,bloc_6,prob50_50_4trials.xlsx,2,8,50,50,0,,,,,0,5,5,5,1,2,6,3,,,,,,,,3.2,1000.1642595999874,1003.3651515999954,1003.3651280299906,0.30517629999667406,1003.8094427999895,1003.8094427999895,m,0.6611255000025267,1007.272461799992,1007.272461799992,32,2.748,,,sub-053,15,40,700,bloc_loop.csv,2023-09-24_11h21.15.574,PainUncertainty,2022.2.5,143.97479867723538,
grave,forte,stimuli/330Hz,stimuli/forte,bloc_6,prob50_50_4trials.xlsx,2,8,50,50,0,,,,,0,5,5,5,1,3,7,1,,,,,,,,3.4,1007.272461799992,1010.6717022999946,1010.6716619299929,0.30490849999478087,1011.1196824999934,1011.1196824999934,m,1.0545673000015086,1014.6868924999872,1014.6868924999872,38,2.448,,,sub-053,15,40,700,bloc_loop.csv,2023-09-24_11h21.15.574,PainUncertainty,2022.2.5,143.97479867723538,
aigu,forte,stimuli/660Hz,stimuli/forte,bloc_7,prob80hthp_12trials.xlsx,2,24,80,20,1,,,,,0,6,6,6,0,0,0,7,,,,,,,,5,1014.6868924999872,1019.6864886999974,1019.6864057299914,0.30522159999236465,1020.1307693999988,1020.1307693999988,m,0.5063903000118444,1023.5391402999958,1023.5391402999958,36,2.844,,,sub-053,15,40,700,bloc_loop.csv,2023-09-24_11h21.15.574,PainUncertainty,2022.2.5,143.97479867723538,
aigu,forte,stimuli/660Hz,stimuli/forte,bloc_7,prob80hthp_12trials.xlsx,2,24,80,20,1,,,,,0,6,6,6,0,1,1,8,,,,,,,,3.9,1023.5391402999958,1027.4444439999934,1027.444371729996,0.30511839999235235,1027.8929177999962,1027.8929177999962,m,0.780702799995197,1030.5065487999964,1030.5065487999964,28,1.761,,,sub-053,15,40,700,bloc_loop.csv,2023-09-24_11h21.15.574,PainUncertainty,2022.2.5,143.97479867723538,
grave,moderee,stimuli/330Hz,stimuli/moderee,bloc_7,prob80hthp_12trials.xlsx,2,24,80,20,1,,,,,0,6,6,6,0,2,2,1,,,,,,,,4.6,1030.5065487999964,1035.1124120999884,1035.1123200300003,0.3023203999910038,1035.55820449999,1035.55820449999,n,0.5744408000027761,1038.4810873999959,1038.4810873999959,0,2.274,,,sub-053,15,40,700,bloc_loop.csv,2023-09-24_11h21.15.574,PainUncertainty,2022.2.5,143.97479867723538,
aigu,forte,stimuli/660Hz,stimuli/forte,bloc_7,prob80hthp_12trials.xlsx,2,24,80,20,1,,,,,0,6,6,6,0,3,3,10,,,,,,,,3.1,1038.4810873999959,1041.5786201999872,1041.5807210299913,0.3029002999974182,1042.0262891999882,1042.0262891999882,m,0.5773196000081953,1044.4708203999908,1044.4708203999908,39,1.816,,,sub-053,15,40,700,bloc_loop.csv,2023-09-24_11h21.15.574,PainUncertainty,2022.2.5,143.97479867723538,
aigu,forte,stimuli/660Hz,stimuli/forte,bloc_7,prob80hthp_12trials.xlsx,2,24,80,20,1,,,,,0,6,6,6,0,4,4,9,,,,,,,,4.9,1044.4708203999908,1049.37061849999,1049.3706550299917,0.30509039999742527,1049.8148116999946,1049.8148116999946,m,0.5132998999906704,1052.8436240999872,1052.8436240999872,35,2.435,,,sub-053,15,40,700,bloc_loop.csv,2023-09-24_11h21.15.574,PainUncertainty,2022.2.5,143.97479867723538,
grave,moderee,stimuli/330Hz,stimuli/moderee,bloc_7,prob80hthp_12trials.xlsx,2,24,80,20,1,,,,,0,6,6,6,0,5,5,4,,,,,,,,4,1052.8436240999872,1056.8438572999876,1056.8437104299896,0.3051887000037823,1057.290673999989,1057.290673999989,n,0.6149742999987211,1059.153511299999,1059.153511299999,1,1.191,,,sub-053,15,40,700,bloc_loop.csv,2023-09-24_11h21.15.574,PainUncertainty,2022.2.5,143.97479867723538,
aigu,moderee,stimuli/660Hz,stimuli/moderee,bloc_7,prob80hthp_12trials.xlsx,2,24,80,20,1,,,,,0,6,6,6,0,6,6,11,,,,,,,,3.5,1059.153511299999,1062.656946499992,1062.6568882299994,0.3051156000001356,1063.101449099995,1063.101449099995,n,0.8964448000042466,1066.5196431999939,1066.5196431999939,1,2.456,,,sub-053,15,40,700,bloc_loop.csv,2023-09-24_11h21.15.574,PainUncertainty,2022.2.5,143.97479867723538,
grave,moderee,stimuli/330Hz,stimuli/moderee,bloc_7,prob80hthp_12trials.xlsx,2,24,80,20,1,,,,,0,6,6,6,0,7,7,0,,,,,,,,3.5,1066.5196431999939,1070.0192940999987,1070.0194357300002,0.30507180000131484,1070.4672938000003,1070.4672938000003,n,0.684596999999485,1073.8209942999965,1073.8209942999965,2,2.614,,,sub-053,15,40,700,bloc_loop.csv,2023-09-24_11h21.15.574,PainUncertainty,2022.2.5,143.97479867723538,
grave,moderee,stimuli/330Hz,stimuli/moderee,bloc_7,prob80hthp_12trials.xlsx,2,24,80,20,1,,,,,0,6,6,6,0,8,8,3,,,,,,,,4.4,1073.8209942999965,1078.221726799995,1078.221726829995,0.30490869999630377,1078.6660110999946,1078.6660110999946,n,0.48351849999744445,1081.0277650999924,1081.0277650999924,0,1.809,,,sub-053,15,40,700,bloc_loop.csv,2023-09-24_11h21.15.574,PainUncertainty,2022.2.5,143.97479867723538,
grave,forte,stimuli/330Hz,stimuli/forte,bloc_7,prob80hthp_12trials.xlsx,2,24,80,20,1,,,,,0,6,6,6,0,9,9,5,,,,,,,,4.3,1081.0277650999924,1085.333323199986,1085.3332721299898,0.3049392000102671,1085.7777627999894,1085.7777627999894,m,0.608398100011982,1088.8262214999995,1088.8262214999995,36,2.366,,,sub-053,15,40,700,bloc_loop.csv,2023-09-24_11h21.15.574,PainUncertainty,2022.2.5,143.97479867723538,
grave,moderee,stimuli/330Hz,stimuli/moderee,bloc_7,prob80hthp_12trials.xlsx,2,24,80,20,1,,,,,0,6,6,6,0,10,10,2,,,,,,,,3.2,1088.8262214999995,1092.028999199989,1092.0289060299924,0.3047882999962894,1092.4728038999892,1092.4728038999892,n,0.9153893000038806,1097.0695159999887,1097.0695159999887,2,3.609,,,sub-053,15,40,700,bloc_loop.csv,2023-09-24_11h21.15.574,PainUncertainty,2022.2.5,143.97479867723538,
aigu,forte,stimuli/660Hz,stimuli/forte,bloc_7,prob80hthp_12trials.xlsx,2,24,80,20,1,,,,,0,6,6,6,0,11,11,6,,,,,,,,4.7,1097.0695159999887,1101.7727344999876,1101.7727518299885,0.3051283999957377,1102.2169842999865,1102.2169842999865,m,0.430221899994649,1103.9565752999915,1103.9565752999915,39,1.248,,,sub-053,15,40,700,bloc_loop.csv,2023-09-24_11h21.15.574,PainUncertainty,2022.2.5,143.97479867723538,
aigu,forte,stimuli/660Hz,stimuli/forte,bloc_7,prob80hthp_12trials.xlsx,2,24,80,20,1,,,,,0,6,6,6,1,0,12,10,,,,,,,,3.8,1103.9565752999915,1107.7595970999973,1107.759588629991,0.30522570000903215,1108.2038983999955,1108.2038983999955,m,1.0144108999957098,1111.691568899987,1111.691568899987,34,2.394,,,sub-053,15,40,700,bloc_loop.csv,2023-09-24_11h21.15.574,PainUncertainty,2022.2.5,143.97479867723538,
grave,moderee,stimuli/330Hz,stimuli/moderee,bloc_7,prob80hthp_12trials.xlsx,2,24,80,20,1,,,,,0,6,6,6,1,1,13,0,,,,,,,,3.4,1111.691568899987,1115.0938572999876,1115.0938103299936,0.3049672000051942,1115.5382370999869,1115.5382370999869,n,0.3872302999952808,1119.0412500999955,1119.0412500999955,0,3.052,,,sub-053,15,40,700,bloc_loop.csv,2023-09-24_11h21.15.574,PainUncertainty,2022.2.5,143.97479867723538,
aigu,moderee,stimuli/660Hz,stimuli/moderee,bloc_7,prob80hthp_12trials.xlsx,2,24,80,20,1,,,,,0,6,6,6,1,2,14,11,,,,,,,,3.8,1119.0412500999955,1122.8472843999916,1122.845219829987,0.3007715999992797,1123.2893848999956,1123.2893848999956,n,0.6200602000026265,1125.8812230999902,1125.8812230999902,2,1.894,,,sub-053,15,40,700,bloc_loop.csv,2023-09-24_11h21.15.574,PainUncertainty,2022.2.5,143.97479867723538,
aigu,forte,stimuli/660Hz,stimuli/forte,bloc_7,prob80hthp_12trials.xlsx,2,24,80,20,1,,,,,0,6,6,6,1,3,15,8,,,,,,,,3.2,1125.8812230999902,1129.0820775999891,1129.0819495299888,0.3047876000055112,1129.5262192999944,1129.5262192999944,m,0.5145446999958949,1132.510025999989,1132.510025999989,34,2.402,,,sub-053,15,40,700,bloc_loop.csv,2023-09-24_11h21.15.574,PainUncertainty,2022.2.5,143.97479867723538,
aigu,forte,stimuli/660Hz,stimuli/forte,bloc_7,prob80hthp_12trials.xlsx,2,24,80,20,1,,,,,0,6,6,6,1,4,16,9,,,,,,,,3.6,1132.510025999989,1136.1105233999988,1136.110446329994,0.30487199999333825,1136.554422599991,1136.554422599991,m,0.4486466999951517,1138.8536857999861,1138.8536857999861,38,1.766,,,sub-053,15,40,700,bloc_loop.csv,2023-09-24_11h21.15.574,PainUncertainty,2022.2.5,143.97479867723538,
grave,moderee,stimuli/330Hz,stimuli/moderee,bloc_7,prob80hthp_12trials.xlsx,2,24,80,20,1,,,,,0,6,6,6,1,5,17,3,,,,,,,,4.5,1138.8536857999861,1143.3546720999875,1143.354748629988,0.2995960999978706,1143.7988465999952,1143.7988465999952,n,0.37195190000056755,1146.266023899996,1146.266023899996,0,2.037,,,sub-053,15,40,700,bloc_loop.csv,2023-09-24_11h21.15.574,PainUncertainty,2022.2.5,143.97479867723538,
grave,moderee,stimuli/330Hz,stimuli/moderee,bloc_7,prob80hthp_12trials.xlsx,2,24,80,20,1,,,,,0,6,6,6,1,6,18,1,,,,,,,,4.5,1146.266023899996,1150.7717809999886,1150.7717493299947,0.3052737999969395,1151.2201001999929,1151.2201001999929,n,0.3775076000019908,1154.8954501999979,1154.8954501999979,1,3.233,,,sub-053,15,40,700,bloc_loop.csv,2023-09-24_11h21.15.574,PainUncertainty,2022.2.5,143.97479867723538,
aigu,forte,stimuli/660Hz,stimuli/forte,bloc_7,prob80hthp_12trials.xlsx,2,24,80,20,1,,,,,0,6,6,6,1,7,19,7,,,,,,,,4.9,1154.8954501999979,1159.8006979999918,1159.800489329989,0.30541709999670275,1160.2447707999963,1160.2447707999963,m,0.4735551000048872,1163.124837899988,1163.124837899988,30,2.338,,,sub-053,15,40,700,bloc_loop.csv,2023-09-24_11h21.15.574,PainUncertainty,2022.2.5,143.97479867723538,
aigu,forte,stimuli/660Hz,stimuli/forte,bloc_7,prob80hthp_12trials.xlsx,2,24,80,20,1,,,,,0,6,6,6,1,8,20,6,,,,,,,,4.2,1163.124837899988,1167.3292961999978,1167.3293477299972,0.3047742999915499,1167.7733413999958,1167.7733413999958,m,0.45473550001042895,1170.4421055999992,1170.4421055999992,33,2.142,,,sub-053,15,40,700,bloc_loop.csv,2023-09-24_11h21.15.574,PainUncertainty,2022.2.5,143.97479867723538,
grave,moderee,stimuli/330Hz,stimuli/moderee,bloc_7,prob80hthp_12trials.xlsx,2,24,80,20,1,,,,,0,6,6,6,1,9,21,2,,,,,,,,3.2,1170.4421055999992,1173.6424977999995,1173.6424468299897,0.3053240999870468,1174.0868281999865,1174.0868281999865,n,0.41550860001007095,1176.593346099995,1176.593346099995,2,2.025,,,sub-053,15,40,700,bloc_loop.csv,2023-09-24_11h21.15.574,PainUncertainty,2022.2.5,143.97479867723538,
grave,forte,stimuli/330Hz,stimuli/forte,bloc_7,prob80hthp_12trials.xlsx,2,24,80,20,1,,,,,0,6,6,6,1,10,22,5,,,,,,,,4.1,1176.593346099995,1180.6988595000003,1180.6988949299935,0.3057000000117114,1181.1475546999864,1181.1475546999864,m,0.5058365000004414,1183.129366899986,1183.129366899986,34,1.399,,,sub-053,15,40,700,bloc_loop.csv,2023-09-24_11h21.15.574,PainUncertainty,2022.2.5,143.97479867723538,
grave,moderee,stimuli/330Hz,stimuli/moderee,bloc_7,prob80hthp_12trials.xlsx,2,24,80,20,1,,,,,0,6,6,6,1,11,23,4,,,,,,,,4.3,1183.129366899986,1187.428895399993,1187.4287862299911,0.30547659999865573,1187.8759057999996,1187.8759057999996,n,0.48777760000666603,1191.8767799999914,1191.8767799999914,1,1.484,,,sub-053,15,40,700,bloc_loop.csv,2023-09-24_11h21.15.574,PainUncertainty,2022.2.5,143.97479867723538,
,,,,bloc_7,prob80hthp_12trials.xlsx,2,24,80,20,1,,,,,0,6,6,6,,,,,0,0,0,0,,,,,,,,,,,,,,,,,1191.8767799999914,1207.5492754999868,sub-053,15,40,700,bloc_loop.csv,2023-09-24_11h21.15.574,PainUncertainty,2022.2.5,143.97479867723538,
grave,moderee,stimuli/330Hz,stimuli/moderee,bloc_8,prob50_50_4trials.xlsx,3,12,50,50,0,,,,,0,7,7,7,0,0,0,0,,,,,,,,3,1208.4408489999914,1211.4460409999883,1211.4459124299988,0.30549149999569636,1211.895076099987,1211.895076099987,n,0.3893792000017129,1215.9169489999913,1215.9169489999913,1,3.56,,,sub-053,15,40,700,bloc_loop.csv,2023-09-24_11h21.15.574,PainUncertainty,2022.2.5,143.97479867723538,
aigu,forte,stimuli/660Hz,stimuli/forte,bloc_8,prob50_50_4trials.xlsx,3,12,50,50,0,,,,,0,7,7,7,0,1,1,3,,,,,,,,3.1,1215.9169489999913,1219.0159829999902,1219.016047229999,0.3047179999994114,1219.4601259999909,1219.4601259999909,m,0.30024300000513904,1221.6530948,1221.6530948,34,1.809,,,sub-053,15,40,700,bloc_loop.csv,2023-09-24_11h21.15.574,PainUncertainty,2022.2.5,143.97479867723538,
aigu,moderee,stimuli/660Hz,stimuli/moderee,bloc_8,prob50_50_4trials.xlsx,3,12,50,50,0,,,,,0,7,7,7,0,2,2,2,,,,,,,,4.8,1221.6530948,1226.4543719999929,1226.454379029988,0.30496059999859426,1226.898565399999,1226.898565399999,n,0.6723946000129217,1229.960969199994,1229.960969199994,2,2.317,,,sub-053,15,40,700,bloc_loop.csv,2023-09-24_11h21.15.574,PainUncertainty,2022.2.5,143.97479867723538,
grave,forte,stimuli/330Hz,stimuli/forte,bloc_8,prob50_50_4trials.xlsx,3,12,50,50,0,,,,,0,7,7,7,0,3,3,1,,,,,,,,4.1,1229.960969199994,1234.0661835999927,1234.0662217299919,0.2995680000021821,1234.5077160999936,1234.5077160999936,m,0.3492300000070827,1236.399313499991,1236.399313499991,35,1.492,,,sub-053,15,40,700,bloc_loop.csv,2023-09-24_11h21.15.574,PainUncertainty,2022.2.5,143.97479867723538,
grave,forte,stimuli/330Hz,stimuli/forte,bloc_8,prob50_50_4trials.xlsx,3,12,50,50,0,,,,,0,7,7,7,1,0,4,1,,,,,,,,4.4,1236.399313499991,1240.8032841999957,1240.8032755299878,0.3016942999965977,1241.248617899997,1241.248617899997,m,0.2946826000115834,1242.7421288999903,1242.7421288999903,36,1.141,,,sub-053,15,40,700,bloc_loop.csv,2023-09-24_11h21.15.574,PainUncertainty,2022.2.5,143.97479867723538,
aigu,forte,stimuli/660Hz,stimuli/forte,bloc_8,prob50_50_4trials.xlsx,3,12,50,50,0,,,,,0,7,7,7,1,1,5,3,,,,,,,,5,1242.7421288999903,1247.7420290999871,1247.741933529987,0.3054206999950111,1248.1903377999988,1248.1903377999988,m,0.4793609999906039,1249.7099440999882,1249.7099440999882,38,0.969,,,sub-053,15,40,700,bloc_loop.csv,2023-09-24_11h21.15.574,PainUncertainty,2022.2.5,143.97479867723538,
aigu,moderee,stimuli/660Hz,stimuli/moderee,bloc_8,prob50_50_4trials.xlsx,3,12,50,50,0,,,,,0,7,7,7,1,2,6,2,,,,,,,,3.4,1249.7099440999882,1253.110205799996,1253.110188729997,0.3051850000047125,1253.5544933999918,1253.5544933999918,n,0.3827016000141157,1255.7006808999868,1255.7006808999868,0,1.705,,,sub-053,15,40,700,bloc_loop.csv,2023-09-24_11h21.15.574,PainUncertainty,2022.2.5,143.97479867723538,
grave,moderee,stimuli/330Hz,stimuli/moderee,bloc_8,prob50_50_4trials.xlsx,3,12,50,50,0,,,,,0,7,7,7,1,3,7,0,,,,,,,,4.5,1255.7006808999868,1260.2022751999903,1260.2018060299974,0.3047147000033874,1260.645715199993,1260.645715199993,n,0.5176007999980357,1262.715151499986,1262.715151499986,1,1.489,,,sub-053,15,40,700,bloc_loop.csv,2023-09-24_11h21.15.574,PainUncertainty,2022.2.5,143.97479867723538,
aigu,moderee,stimuli/660Hz,stimuli/moderee,bloc_8,prob50_50_4trials.xlsx,3,12,50,50,0,,,,,0,7,7,7,2,0,8,2,,,,,,,,3.9,1262.715151499986,1266.6190381999913,1266.6190723299892,0.30493239998759236,1267.0630867,1267.0630867,n,0.7235874000034528,1270.5301968999993,1270.5301968999993,1,2.662,,,sub-053,15,40,700,bloc_loop.csv,2023-09-24_11h21.15.574,PainUncertainty,2022.2.5,143.97479867723538,
grave,forte,stimuli/330Hz,stimuli/forte,bloc_8,prob50_50_4trials.xlsx,3,12,50,50,0,,,,,0,7,7,7,2,1,9,1,,,,,,,,3.3,1270.5301968999993,1273.8350434999884,1273.8349389299924,0.30483579999418,1274.279151099996,1274.279151099996,m,0.5187696999928448,1277.3673780999961,1277.3673780999961,35,2.49,,,sub-053,15,40,700,bloc_loop.csv,2023-09-24_11h21.15.574,PainUncertainty,2022.2.5,143.97479867723538,
grave,moderee,stimuli/330Hz,stimuli/moderee,bloc_8,prob50_50_4trials.xlsx,3,12,50,50,0,,,,,0,7,7,7,2,2,10,0,,,,,,,,3.1,1277.3673780999961,1280.468474999987,1280.4683521299971,0.30512849999649916,1280.9166448999895,1280.9166448999895,n,0.6313388000125997,1283.1516580999887,1283.1516580999887,0,1.525,,,sub-053,15,40,700,bloc_loop.csv,2023-09-24_11h21.15.574,PainUncertainty,2022.2.5,143.97479867723538,
aigu,forte,stimuli/660Hz,stimuli/forte,bloc_8,prob50_50_4trials.xlsx,3,12,50,50,0,,,,,0,7,7,7,2,3,11,3,,,,,,,,4.1,1283.1516580999887,1287.2537740999978,1287.2540028299932,0.30103639999288134,1287.6978256000002,1287.6978256000002,m,0.4230679999891436,1289.558530299997,1289.558530299997,36,1.377,,,sub-053,15,40,700,bloc_loop.csv,2023-09-24_11h21.15.574,PainUncertainty,2022.2.5,143.97479867723538,
grave,forte,stimuli/330Hz,stimuli/forte,bloc_9,prob20hthp_12trials.xlsx,3,36,80,20,0,,,,,0,8,8,8,0,0,0,4,,,,,,,,4.2,1289.558530299997,1293.7609750999982,1293.7609523299993,0.3051797000080114,1294.2054848999978,1294.2054848999978,m,0.5602756000007503,1297.0051508999895,1297.0051508999895,36,2.169,,,sub-053,15,40,700,bloc_loop.csv,2023-09-24_11h21.15.574,PainUncertainty,2022.2.5,143.97479867723538,
aigu,moderee,stimuli/660Hz,stimuli/moderee,bloc_9,prob20hthp_12trials.xlsx,3,36,80,20,0,,,,,0,8,8,8,0,1,1,10,,,,,,,,4.3,1297.0051508999895,1301.3105207999906,1301.310478230001,0.3055501000053482,1301.7592306999868,1301.7592306999868,n,0.6153214000078151,1304.9796512999892,1304.9796512999892,0,2.539,,,sub-053,15,40,700,bloc_loop.csv,2023-09-24_11h21.15.574,PainUncertainty,2022.2.5,143.97479867723538,
aigu,moderee,stimuli/660Hz,stimuli/moderee,bloc_9,prob20hthp_12trials.xlsx,3,36,80,20,0,,,,,0,8,8,8,0,2,2,9,,,,,,,,3.3,1304.9796512999892,1308.28580279999,1308.283947929996,0.30070969999360386,1308.7282092999958,1308.7282092999958,n,0.6639843000011751,1311.5623075999902,1311.5623075999902,0,2.1,,,sub-053,15,40,700,bloc_loop.csv,2023-09-24_11h21.15.574,PainUncertainty,2022.2.5,143.97479867723538,
grave,forte,stimuli/330Hz,stimuli/forte,bloc_9,prob20hthp_12trials.xlsx,3,36,80,20,0,,,,,0,8,8,8,0,3,3,1,,,,,,,,4.9,1311.5623075999902,1316.4650922,1316.4650207299942,0.30509429999801796,1316.909369099987,1316.909369099987,m,0.4703008999931626,1320.4127693999908,1320.4127693999908,34,2.976,,,sub-053,15,40,700,bloc_loop.csv,2023-09-24_11h21.15.574,PainUncertainty,2022.2.5,143.97479867723538,
grave,forte,stimuli/330Hz,stimuli/forte,bloc_9,prob20hthp_12trials.xlsx,3,36,80,20,0,,,,,0,8,8,8,0,4,4,2,,,,,,,,3.7,1320.4127693999908,1324.111787499991,1324.1118100299877,0.3054792000039015,1324.560079399991,1324.560079399991,m,0.4101085000002058,1325.8606850999931,1325.8606850999931,40,0.838,,,sub-053,15,40,700,bloc_loop.csv,2023-09-24_11h21.15.574,PainUncertainty,2022.2.5,143.97479867723538,
grave,forte,stimuli/330Hz,stimuli/forte,bloc_9,prob20hthp_12trials.xlsx,3,36,80,20,0,,,,,0,8,8,8,0,5,5,3,,,,,,,,4.1,1325.8606850999931,1329.9596963999938,1329.9596868299936,0.2998055999923963,1330.4046874999913,1330.4046874999913,m,0.564765900009661,1333.3558465999959,1333.3558465999959,36,2.31,,,sub-053,15,40,700,bloc_loop.csv,2023-09-24_11h21.15.574,PainUncertainty,2022.2.5,143.97479867723538,
grave,moderee,stimuli/330Hz,stimuli/moderee,bloc_9,prob20hthp_12trials.xlsx,3,36,80,20,0,,,,,0,8,8,8,0,6,6,5,,,,,,,,3.2,1333.3558465999959,1336.5582031999948,1336.5580232299922,0.3060476000100607,1337.0069237999996,1337.0069237999996,n,0.6681036000081804,1339.0117614999908,1339.0117614999908,2,1.274,,,sub-053,15,40,700,bloc_loop.csv,2023-09-24_11h21.15.574,PainUncertainty,2022.2.5,143.97479867723538,
aigu,moderee,stimuli/660Hz,stimuli/moderee,bloc_9,prob20hthp_12trials.xlsx,3,36,80,20,0,,,,,0,8,8,8,0,7,7,8,,,,,,,,4.3,1339.0117614999908,1343.3161068999907,1343.3158723299944,0.29957899999863,1343.7602730999934,1343.7602730999934,n,0.9613446000003023,1346.9201100999926,1346.9201100999926,1,2.135,,,sub-053,15,40,700,bloc_loop.csv,2023-09-24_11h21.15.574,PainUncertainty,2022.2.5,143.97479867723538,
aigu,moderee,stimuli/660Hz,stimuli/moderee,bloc_9,prob20hthp_12trials.xlsx,3,36,80,20,0,,,,,0,8,8,8,0,8,8,6,,,,,,,,3.8,1346.9201100999926,1350.7192667999916,1350.7191269299888,0.3055930999980774,1351.1678860999964,1351.1678860999964,n,0.5203956000041217,1353.1672931999929,1353.1672931999929,1,1.426,,,sub-053,15,40,700,bloc_loop.csv,2023-09-24_11h21.15.574,PainUncertainty,2022.2.5,143.97479867723538,
aigu,moderee,stimuli/660Hz,stimuli/moderee,bloc_9,prob20hthp_12trials.xlsx,3,36,80,20,0,,,,,0,8,8,8,0,9,9,7,,,,,,,,4,1353.1672931999929,1357.171331999998,1357.1712636299867,0.3051598999882117,1357.6156109999865,1357.6156109999865,n,0.5001595000067027,1361.109832199989,1361.109832199989,0,2.921,,,sub-053,15,40,700,bloc_loop.csv,2023-09-24_11h21.15.574,PainUncertainty,2022.2.5,143.97479867723538,
aigu,forte,stimuli/660Hz,stimuli/forte,bloc_9,prob20hthp_12trials.xlsx,3,36,80,20,0,,,,,0,8,8,8,0,10,10,11,,,,,,,,3.6,1361.109832199989,1364.714282099987,1364.714419829988,0.30473250000795815,1365.1580595999985,1365.1580595999985,m,0.6182798000081675,1368.155974999987,1368.155974999987,29,2.331,,,sub-053,15,40,700,bloc_loop.csv,2023-09-24_11h21.15.574,PainUncertainty,2022.2.5,143.97479867723538,
grave,forte,stimuli/330Hz,stimuli/forte,bloc_9,prob20hthp_12trials.xlsx,3,36,80,20,0,,,,,0,8,8,8,0,11,11,0,,,,,,,,3.8,1368.155974999987,1371.957792599991,1371.9587613299896,0.30419439999968745,1372.4023315999948,1372.4023315999948,m,0.7381294000078924,1376.672875999997,1376.672875999997,34,3.456,,,sub-053,15,40,700,bloc_loop.csv,2023-09-24_11h21.15.574,PainUncertainty,2022.2.5,143.97479867723538,
aigu,moderee,stimuli/660Hz,stimuli/moderee,bloc_9,prob20hthp_12trials.xlsx,3,36,80,20,0,,,,,0,8,8,8,1,0,12,10,,,,,,,,4.2,1376.672875999997,1380.875487399986,1380.8753946299926,0.30540659998951014,1381.3200934999913,1381.3200934999913,n,0.4764162000064971,1382.855156199992,1382.855156199992,0,0.991,,,sub-053,15,40,700,bloc_loop.csv,2023-09-24_11h21.15.574,PainUncertainty,2022.2.5,143.97479867723538,
grave,forte,stimuli/330Hz,stimuli/forte,bloc_9,prob20hthp_12trials.xlsx,3,36,80,20,0,,,,,0,8,8,8,1,1,13,3,,,,,,,,3.4,1382.855156199992,1386.2582253,1386.25815902999,0.3049324000021443,1386.7024007999862,1386.7024007999862,m,0.35894430000917055,1388.8789356999914,1388.8789356999914,35,1.751,,,sub-053,15,40,700,bloc_loop.csv,2023-09-24_11h21.15.574,PainUncertainty,2022.2.5,143.97479867723538,
grave,forte,stimuli/330Hz,stimuli/forte,bloc_9,prob20hthp_12trials.xlsx,3,36,80,20,0,,,,,0,8,8,8,1,2,14,4,,,,,,,,4.6,1388.8789356999914,1393.4813498999865,1393.4813714299903,0.3048045000032289,1393.9259361999866,1393.9259361999866,m,0.46790890001284424,1397.5245079999877,1397.5245079999877,30,3.053,,,sub-053,15,40,700,bloc_loop.csv,2023-09-24_11h21.15.574,PainUncertainty,2022.2.5,143.97479867723538,
aigu,moderee,stimuli/660Hz,stimuli/moderee,bloc_9,prob20hthp_12trials.xlsx,3,36,80,20,0,,,,,0,8,8,8,1,3,15,8,,,,,,,,3.4,1397.5245079999877,1400.9265094999864,1400.926484729987,0.3050317000015639,1401.370704099987,1401.370704099987,n,0.45944910000253003,1405.112635499987,1405.112635499987,1,3.225,,,sub-053,15,40,700,bloc_loop.csv,2023-09-24_11h21.15.574,PainUncertainty,2022.2.5,143.97479867723538,
aigu,moderee,stimuli/660Hz,stimuli/moderee,bloc_9,prob20hthp_12trials.xlsx,3,36,80,20,0,,,,,0,8,8,8,1,4,16,7,,,,,,,,4.6,1405.112635499987,1409.7122766999964,1409.712236929999,0.30540369999653194,1410.1571096999978,1410.1571096999978,n,1.3215848000108963,1414.1110505999968,1414.1110505999968,3,2.554,,,sub-053,15,40,700,bloc_loop.csv,2023-09-24_11h21.15.574,PainUncertainty,2022.2.5,143.97479867723538,
grave,forte,stimuli/330Hz,stimuli/forte,bloc_9,prob20hthp_12trials.xlsx,3,36,80,20,0,,,,,0,8,8,8,1,5,17,0,,,,,,,,3.9,1414.1110505999968,1418.012500599987,1418.0122496299969,0.3052330999926198,1418.4600540999963,1418.4600540999963,m,0.396666800006642,1419.9575522999949,1419.9575522999949,34,1.025,,,sub-053,15,40,700,bloc_loop.csv,2023-09-24_11h21.15.574,PainUncertainty,2022.2.5,143.97479867723538,
aigu,moderee,stimuli/660Hz,stimuli/moderee,bloc_9,prob20hthp_12trials.xlsx,3,36,80,20,0,,,,,0,8,8,8,1,6,18,6,,,,,,,,4.7,1419.9575522999949,1424.6589308999974,1424.6589350299996,0.3046717999968678,1425.102685699996,1425.102685699996,n,0.47817030000442173,1428.2981578999897,1428.2981578999897,2,2.65,,,sub-053,15,40,700,bloc_loop.csv,2023-09-24_11h21.15.574,PainUncertainty,2022.2.5,143.97479867723538,
grave,forte,stimuli/330Hz,stimuli/forte,bloc_9,prob20hthp_12trials.xlsx,3,36,80,20,0,,,,,0,8,8,8,1,7,19,1,,,,,,,,3.9,1428.2981578999897,1432.2014012999862,1432.2014587299868,0.3050207999913255,1432.6502577999927,1432.6502577999927,m,0.32933130000310484,1434.5757086999947,1434.5757086999947,32,1.532,,,sub-053,15,40,700,bloc_loop.csv,2023-09-24_11h21.15.574,PainUncertainty,2022.2.5,143.97479867723538,
grave,forte,stimuli/330Hz,stimuli/forte,bloc_9,prob20hthp_12trials.xlsx,3,36,80,20,0,,,,,0,8,8,8,1,8,20,2,,,,,,,,3.6,1434.5757086999947,1438.183347099999,1438.1813427299871,0.3052014999993844,1438.6296032999962,1438.6296032999962,m,0.36421830000472255,1441.0950854999974,1441.0950854999974,35,2.045,,,sub-053,15,40,700,bloc_loop.csv,2023-09-24_11h21.15.574,PainUncertainty,2022.2.5,143.97479867723538,
aigu,forte,stimuli/660Hz,stimuli/forte,bloc_9,prob20hthp_12trials.xlsx,3,36,80,20,0,,,,,0,8,8,8,1,9,21,11,,,,,,,,4,1441.0950854999974,1445.0985698999866,1445.0984487299952,0.30533839999407064,1445.5467838999903,1445.5467838999903,m,0.5023917999933474,1447.6940187999862,1447.6940187999862,34,1.567,,,sub-053,15,40,700,bloc_loop.csv,2023-09-24_11h21.15.574,PainUncertainty,2022.2.5,143.97479867723538,
aigu,moderee,stimuli/660Hz,stimuli/moderee,bloc_9,prob20hthp_12trials.xlsx,3,36,80,20,0,,,,,0,8,8,8,1,10,22,9,,,,,,,,3.9,1447.6940187999862,1451.5991843999946,1451.5991921299951,0.3049590999871725,1452.0434131999937,1452.0434131999937,n,0.5013005999935558,1455.8745640999987,1455.8745640999987,0,3.275,,,sub-053,15,40,700,bloc_loop.csv,2023-09-24_11h21.15.574,PainUncertainty,2022.2.5,143.97479867723538,
grave,moderee,stimuli/330Hz,stimuli/moderee,bloc_9,prob20hthp_12trials.xlsx,3,36,80,20,0,,,,,0,8,8,8,1,11,23,5,,,,,,,,3.5,1455.8745640999987,1459.3784634999902,1459.3783959299994,0.3049868000089191,1459.824843399998,1459.824843399998,n,0.5905933000030927,1463.2258826999896,1463.2258826999896,2,2.74,,,sub-053,15,40,700,bloc_loop.csv,2023-09-24_11h21.15.574,PainUncertainty,2022.2.5,143.97479867723538,
grave,forte,stimuli/330Hz,stimuli/forte,bloc_9,prob20hthp_12trials.xlsx,3,36,80,20,0,,,,,0,8,8,8,2,0,24,1,,,,,,,,4,1463.2258826999896,1467.2261405999889,1467.2260710299975,0.2995794000016758,1467.6711106999865,1467.6711106999865,m,0.5928548000083538,1470.4019469999912,1470.4019469999912,36,2.066,,,sub-053,15,40,700,bloc_loop.csv,2023-09-24_11h21.15.574,PainUncertainty,2022.2.5,143.97479867723538,
grave,moderee,stimuli/330Hz,stimuli/moderee,bloc_9,prob20hthp_12trials.xlsx,3,36,80,20,0,,,,,0,8,8,8,2,1,25,5,,,,,,,,4.5,1470.4019469999912,1474.9009399999923,1474.9009788299968,0.3050173000083305,1475.3486839999969,1475.3486839999969,n,0.5435307000007015,1479.1087076999975,1479.1087076999975,0,3.15,,,sub-053,15,40,700,bloc_loop.csv,2023-09-24_11h21.15.574,PainUncertainty,2022.2.5,143.97479867723538,
grave,forte,stimuli/330Hz,stimuli/forte,bloc_9,prob20hthp_12trials.xlsx,3,36,80,20,0,,,,,0,8,8,8,2,2,26,0,,,,,,,,3.9,1479.1087076999975,1483.013051099988,1483.0131014299927,0.3049985999969067,1483.4641373999912,1483.4641373999912,m,0.8087613999960013,1485.7058508999908,1485.7058508999908,34,1.365,,,sub-053,15,40,700,bloc_loop.csv,2023-09-24_11h21.15.574,PainUncertainty,2022.2.5,143.97479867723538,
aigu,moderee,stimuli/660Hz,stimuli/moderee,bloc_9,prob20hthp_12trials.xlsx,3,36,80,20,0,,,,,0,8,8,8,2,3,27,7,,,,,,,,3.7,1485.7058508999908,1489.4092855999916,1489.4093146299942,0.3050473999901442,1489.8536488999962,1489.8536488999962,n,0.4651884000049904,1493.8714469999977,1493.8714469999977,0,3.497,,,sub-053,15,40,700,bloc_loop.csv,2023-09-24_11h21.15.574,PainUncertainty,2022.2.5,143.97479867723538,
aigu,moderee,stimuli/660Hz,stimuli/moderee,bloc_9,prob20hthp_12trials.xlsx,3,36,80,20,0,,,,,0,8,8,8,2,4,28,6,,,,,,,,3.5,1493.8714469999977,1497.3754819999886,1497.3754978299926,0.30073499999707565,1497.8205298999965,1497.8205298999965,n,0.5361273000016809,1503.3474387999886,1503.3474387999886,0,4.934,,,sub-053,15,40,700,bloc_loop.csv,2023-09-24_11h21.15.574,PainUncertainty,2022.2.5,143.97479867723538,
aigu,moderee,stimuli/660Hz,stimuli/moderee,bloc_9,prob20hthp_12trials.xlsx,3,36,80,20,0,,,,,0,8,8,8,2,5,29,9,,,,,,,,4.4,1503.3474387999886,1507.7522367999918,1507.752250729996,0.30464740000024904,1508.1961848999927,1508.1961848999927,n,0.40303940000012517,1510.9511679999996,1510.9511679999996,1,2.3,,,sub-053,15,40,700,bloc_loop.csv,2023-09-24_11h21.15.574,PainUncertainty,2022.2.5,143.97479867723538,
aigu,moderee,stimuli/660Hz,stimuli/moderee,bloc_9,prob20hthp_12trials.xlsx,3,36,80,20,0,,,,,0,8,8,8,2,6,30,8,,,,,,,,4.1,1510.9511679999996,1515.0513131999905,1515.0512492299981,0.30506110000715125,1515.4953872999904,1515.4953872999904,n,0.379164000012679,1517.4068968999927,1517.4068968999927,0,1.462,,,sub-053,15,40,700,bloc_loop.csv,2023-09-24_11h21.15.574,PainUncertainty,2022.2.5,143.97479867723538,
grave,forte,stimuli/330Hz,stimuli/forte,bloc_9,prob20hthp_12trials.xlsx,3,36,80,20,0,,,,,0,8,8,8,2,7,31,3,,,,,,,,4.8,1517.4068968999927,1522.2121052999864,1522.2120091299962,0.30498430000443477,1522.6562787000003,1522.6562787000003,m,0.3230712000076892,1524.583088399988,1524.583088399988,36,1.533,,,sub-053,15,40,700,bloc_loop.csv,2023-09-24_11h21.15.574,PainUncertainty,2022.2.5,143.97479867723538,
aigu,moderee,stimuli/660Hz,stimuli/moderee,bloc_9,prob20hthp_12trials.xlsx,3,36,80,20,0,,,,,0,8,8,8,2,8,32,10,,,,,,,,4.7,1524.583088399988,1529.282394599999,1529.2825601299933,0.2990542000043206,1529.7251131999947,1529.7251131999947,n,0.2834939000022132,1531.5338211999915,1531.5338211999915,0,1.439,,,sub-053,15,40,700,bloc_loop.csv,2023-09-24_11h21.15.574,PainUncertainty,2022.2.5,143.97479867723538,
aigu,forte,stimuli/660Hz,stimuli/forte,bloc_9,prob20hthp_12trials.xlsx,3,36,80,20,0,,,,,0,8,8,8,2,9,33,11,,,,,,,,4.6,1531.5338211999915,1536.1374992999918,1536.1375375299917,0.3051317000063136,1536.585165299999,1536.585165299999,m,0.44240470000659116,1538.609196999998,1538.609196999998,33,1.524,,,sub-053,15,40,700,bloc_loop.csv,2023-09-24_11h21.15.574,PainUncertainty,2022.2.5,143.97479867723538,
grave,forte,stimuli/330Hz,stimuli/forte,bloc_9,prob20hthp_12trials.xlsx,3,36,80,20,0,,,,,0,8,8,8,2,10,34,4,,,,,,,,4.4,1538.609196999998,1543.0128977999993,1543.0127900299935,0.3009693000058178,1543.4574758999952,1543.4574758999952,m,0.7086068999924464,1546.231586599999,1546.231586599999,36,2.004,,,sub-053,15,40,700,bloc_loop.csv,2023-09-24_11h21.15.574,PainUncertainty,2022.2.5,143.97479867723538,
grave,forte,stimuli/330Hz,stimuli/forte,bloc_9,prob20hthp_12trials.xlsx,3,36,80,20,0,,,,,0,8,8,8,2,11,35,2,,,,,,,,4.4,1546.231586599999,1550.6321062999923,1550.632208229997,0.3048676000034902,1551.0759697999893,1551.0759697999893,m,0.4419692999945255,1553.3736404999945,1553.3736404999945,37,1.829,,,sub-053,15,40,700,bloc_loop.csv,2023-09-24_11h21.15.574,PainUncertainty,2022.2.5,143.97479867723538,
