cue_,stimulus_,cue_fichier,stimulus_fichier,block_name,block_trials_file,block_n_reps,block_ntrials,block_prob_highP_highT,block_prob_highP_lowT,block_pause_after,Bloc_essai.thisRepN,Bloc_essai.thisTrialN,Bloc_essai.thisN,Bloc_essai.thisIndex,blocks.thisRepN,blocks.thisTrialN,blocks.thisN,blocks.thisIndex,trials.thisRepN,trials.thisTrialN,trials.thisN,trials.thisIndex,pause_loop.thisRepN,pause_loop.thisTrialN,pause_loop.thisN,pause_loop.thisIndex,key_resp_5.started,start_calib.started,key_resp_2.started,ISI_duration,pause.started,pause.stopped,cue.started,ISI.started,choice_pain.started,Choice.started,choice_pain.keys,choice_pain.rt,main_text.started,confirm_text.started,ratingScale.response,ratingScale.rt,key_resp_3.started,key_resp_6.started,participant,low_ma,high_ma,failsafe_ma,block_file,date,expName,psychopyVersion,frameRate,
grave,moderee,stimuli/330Hz,stimuli/moderee,,,,,,,,0,0,0,0,,,,,,,,,,,,,20.222981599999912,126.97276399999964,167.35768460000008,4.4,174.26267819999975,178.66621729999997,178.6716557199996,0.299293999999918,179.10344209999994,179.10344209999994,n,2.0162673999998333,184.29634749999968,184.29634749999968,26,3.098,,,sub-023,35,70,700,bloc_loop.csv,2023-06-12_18h05.40.105,PainUncertainty,2022.2.5,144.01170527105006,
aigu,forte,stimuli/660Hz,stimuli/forte,,,,,,,,0,1,1,3,,,,,,,,,,,,,,,,3.1,184.29634749999968,187.3953287999998,187.39538745999963,0.30534190000025774,187.84393509999973,187.84393509999973,m,1.6457851000000119,191.90574609999976,191.90574609999976,61,2.343,,,sub-023,35,70,700,bloc_loop.csv,2023-06-12_18h05.40.105,PainUncertainty,2022.2.5,144.01170527105006,
aigu,moderee,stimuli/660Hz,stimuli/moderee,,,,,,,,0,2,2,2,,,,,,,,,,,,,,,,3.7,191.90574609999976,195.61114399999997,195.61121575999996,0.30559549999998126,196.05967109999983,196.05967109999983,None,,202.18320670000003,202.18320670000003,37,3.6,,,sub-023,35,70,700,bloc_loop.csv,2023-06-12_18h05.40.105,PainUncertainty,2022.2.5,144.01170527105006,
grave,forte,stimuli/330Hz,stimuli/forte,,,,,,,,0,3,3,1,,,,,,,,,,,,,,,,3.3,202.18320670000003,205.4873961999997,205.48739956,0.3048033000000032,205.93151450000005,205.93151450000005,m,1.2229683000000477,209.86769860000004,209.86769860000004,74,2.691,,,sub-023,35,70,700,bloc_loop.csv,2023-06-12_18h05.40.105,PainUncertainty,2022.2.5,144.01170527105006,
aigu,moderee,stimuli/660Hz,stimuli/moderee,bloc_1,prob20hthp_12trials.xlsx,4,48,20,80,0,,,,,0,0,0,0,0,0,0,9,,,,,,,,4.8,231.6415876000001,236.44273109999995,236.44374456000006,0.2994745000000876,236.88672180000003,236.88672180000003,n,1.1820949000002656,241.61583269999983,241.61583269999983,11,3.489,,,sub-023,35,70,700,bloc_loop.csv,2023-06-12_18h05.40.105,PainUncertainty,2022.2.5,144.01170527105006,
aigu,moderee,stimuli/660Hz,stimuli/moderee,bloc_1,prob20hthp_12trials.xlsx,4,48,20,80,0,,,,,0,0,0,0,0,1,1,8,,,,,,,,3.7,241.61583269999983,245.3190841999999,245.31903665999963,0.30487399999992704,245.76283299999977,245.76283299999977,n,0.7823404000000664,247.78736170000002,247.78736170000002,10,1.17,,,sub-023,35,70,700,bloc_loop.csv,2023-06-12_18h05.40.105,PainUncertainty,2022.2.5,144.01170527105006,
grave,forte,stimuli/330Hz,stimuli/forte,bloc_1,prob20hthp_12trials.xlsx,4,48,20,80,0,,,,,0,0,0,0,0,2,2,1,,,,,,,,4,247.78736170000002,251.7916581999998,251.79167515999998,0.3049494000001687,252.2377492999999,252.2377492999999,m,0.9398567999996885,255.04550530000006,255.04550530000006,66,1.795,,,sub-023,35,70,700,bloc_loop.csv,2023-06-12_18h05.40.105,PainUncertainty,2022.2.5,144.01170527105006,
aigu,moderee,stimuli/660Hz,stimuli/moderee,bloc_1,prob20hthp_12trials.xlsx,4,48,20,80,0,,,,,0,0,0,0,0,3,3,10,,,,,,,,4.2,255.04550530000006,259.25135769999997,259.25126255999965,0.3048515000000407,259.6950569999999,259.6950569999999,n,0.601147100000162,262.3326076999997,262.3326076999997,14,1.955,,,sub-023,35,70,700,bloc_loop.csv,2023-06-12_18h05.40.105,PainUncertainty,2022.2.5,144.01170527105006,
aigu,forte,stimuli/660Hz,stimuli/forte,bloc_1,prob20hthp_12trials.xlsx,4,48,20,80,0,,,,,0,0,0,0,0,4,4,11,,,,,,,,3.4,262.3326076999997,265.73764600000004,265.73770895999985,0.3052296999999271,266.1823795999999,266.1823795999999,m,1.0359091000000262,270.1659004999997,270.1659004999997,77,2.892,,,sub-023,35,70,700,bloc_loop.csv,2023-06-12_18h05.40.105,PainUncertainty,2022.2.5,144.01170527105006,
grave,forte,stimuli/330Hz,stimuli/forte,bloc_1,prob20hthp_12trials.xlsx,4,48,20,80,0,,,,,0,0,0,0,0,5,5,3,,,,,,,,3.3,270.1659004999997,273.46769459999996,273.4678038599999,0.30565729999989344,273.9142112999998,273.9142112999998,m,0.9387993000000279,277.32686699999977,277.32686699999977,74,2.404,,,sub-023,35,70,700,bloc_loop.csv,2023-06-12_18h05.40.105,PainUncertainty,2022.2.5,144.01170527105006,
grave,forte,stimuli/330Hz,stimuli/forte,bloc_1,prob20hthp_12trials.xlsx,4,48,20,80,0,,,,,0,0,0,0,0,6,6,4,,,,,,,,3.3,277.32686699999977,280.62860329999967,280.6287475599996,0.30464260000007926,281.07238629999983,281.07238629999983,n,2.211923000000297,285.25542270000005,285.25542270000005,30,1.907,,,sub-023,35,70,700,bloc_loop.csv,2023-06-12_18h05.40.105,PainUncertainty,2022.2.5,144.01170527105006,
grave,forte,stimuli/330Hz,stimuli/forte,bloc_1,prob20hthp_12trials.xlsx,4,48,20,80,0,,,,,0,0,0,0,0,7,7,2,,,,,,,,4.6,285.25542270000005,289.85859409999966,289.8586196599998,0.3053253000002769,290.30359629999975,290.30359629999975,m,1.5498029999998835,293.4728747999998,293.4728747999998,73,1.56,,,sub-023,35,70,700,bloc_loop.csv,2023-06-12_18h05.40.105,PainUncertainty,2022.2.5,144.01170527105006,
grave,forte,stimuli/330Hz,stimuli/forte,bloc_1,prob20hthp_12trials.xlsx,4,48,20,80,0,,,,,0,0,0,0,0,8,8,0,,,,,,,,3.9,293.4728747999998,297.3734374999999,297.37334576,0.3051285999999891,297.8174497,297.8174497,m,2.095328899999913,301.8329521999999,301.8329521999999,60,1.842,,,sub-023,35,70,700,bloc_loop.csv,2023-06-12_18h05.40.105,PainUncertainty,2022.2.5,144.01170527105006,
grave,moderee,stimuli/330Hz,stimuli/moderee,bloc_1,prob20hthp_12trials.xlsx,4,48,20,80,0,,,,,0,0,0,0,0,9,9,5,,,,,,,,4.8,301.8329521999999,306.6387144999999,306.63895125999977,0.3007906000002549,307.0827162999999,307.0827162999999,n,0.6146399999997811,310.04799909999974,310.04799909999974,10,2.289,,,sub-023,35,70,700,bloc_loop.csv,2023-06-12_18h05.40.105,PainUncertainty,2022.2.5,144.01170527105006,
aigu,moderee,stimuli/660Hz,stimuli/moderee,bloc_1,prob20hthp_12trials.xlsx,4,48,20,80,0,,,,,0,0,0,0,0,10,10,6,,,,,,,,4.8,310.04799909999974,314.8476778999998,314.84769375999974,0.3049707000000126,315.2918193999999,315.2918193999999,n,0.6760673000003408,318.16813409999986,318.16813409999986,28,2.137,,,sub-023,35,70,700,bloc_loop.csv,2023-06-12_18h05.40.105,PainUncertainty,2022.2.5,144.01170527105006,
aigu,moderee,stimuli/660Hz,stimuli/moderee,bloc_1,prob20hthp_12trials.xlsx,4,48,20,80,0,,,,,0,0,0,0,0,11,11,7,,,,,,,,3.3,318.16813409999986,321.4734384999997,321.47348125999986,0.30527359999996406,321.9176373999999,321.9176373999999,n,0.6906794000001355,324.4342157000001,324.4342157000001,6,1.754,,,sub-023,35,70,700,bloc_loop.csv,2023-06-12_18h05.40.105,PainUncertainty,2022.2.5,144.01170527105006,
grave,forte,stimuli/330Hz,stimuli/forte,bloc_1,prob20hthp_12trials.xlsx,4,48,20,80,0,,,,,0,0,0,0,1,0,12,4,,,,,,,,4.6,324.4342157000001,329.03683539999975,329.0369732599996,0.3020339999998214,329.48214559999997,329.48214559999997,m,0.7604968999999073,332.0600586999999,332.0600586999999,69,1.739,,,sub-023,35,70,700,bloc_loop.csv,2023-06-12_18h05.40.105,PainUncertainty,2022.2.5,144.01170527105006,
aigu,moderee,stimuli/660Hz,stimuli/moderee,bloc_1,prob20hthp_12trials.xlsx,4,48,20,80,0,,,,,0,0,0,0,1,1,13,6,,,,,,,,3.2,332.0600586999999,335.2597802999999,335.2600182599998,0.30502789999991364,335.7039101999999,335.7039101999999,n,0.6664772000003722,338.054353,338.054353,18,1.614,,,sub-023,35,70,700,bloc_loop.csv,2023-06-12_18h05.40.105,PainUncertainty,2022.2.5,144.01170527105006,
grave,forte,stimuli/330Hz,stimuli/forte,bloc_1,prob20hthp_12trials.xlsx,4,48,20,80,0,,,,,0,0,0,0,1,2,14,0,,,,,,,,4,338.054353,342.0592916999999,342.05933636,0.30501630000026125,342.5033481999999,342.5033481999999,m,0.7764630000001489,346.11111729999993,346.11111729999993,68,2.754,,,sub-023,35,70,700,bloc_loop.csv,2023-06-12_18h05.40.105,PainUncertainty,2022.2.5,144.01170527105006,
grave,moderee,stimuli/330Hz,stimuli/moderee,bloc_1,prob20hthp_12trials.xlsx,4,48,20,80,0,,,,,0,0,0,0,1,3,15,5,,,,,,,,3.3,346.11111729999993,349.4146203999999,349.4146793599997,0.30521760000010545,349.8589618000001,349.8589618000001,n,0.6563716999999087,353.70361939999975,353.70361939999975,10,3.106,,,sub-023,35,70,700,bloc_loop.csv,2023-06-12_18h05.40.105,PainUncertainty,2022.2.5,144.01170527105006,
grave,forte,stimuli/330Hz,stimuli/forte,bloc_1,prob20hthp_12trials.xlsx,4,48,20,80,0,,,,,0,0,0,0,1,4,16,3,,,,,,,,4.2,353.70361939999975,357.9084723000001,357.90845525999964,0.30495739999969373,358.3526434999999,358.3526434999999,m,0.6695689000002858,359.84218280000005,359.84218280000005,77,0.76,,,sub-023,35,70,700,bloc_loop.csv,2023-06-12_18h05.40.105,PainUncertainty,2022.2.5,144.01170527105006,
grave,forte,stimuli/330Hz,stimuli/forte,bloc_1,prob20hthp_12trials.xlsx,4,48,20,80,0,,,,,0,0,0,0,1,5,17,1,,,,,,,,4.7,359.84218280000005,364.54113800000005,364.54127826,0.3047678999996606,364.98543659999996,364.98543659999996,m,0.6819690999996055,366.52295079999976,366.52295079999976,87,0.782,,,sub-023,35,70,700,bloc_loop.csv,2023-06-12_18h05.40.105,PainUncertainty,2022.2.5,144.01170527105006,
aigu,moderee,stimuli/660Hz,stimuli/moderee,bloc_1,prob20hthp_12trials.xlsx,4,48,20,80,0,,,,,0,0,0,0,1,6,18,9,,,,,,,,3.5,366.52295079999976,370.0279465999997,370.02800665999973,0.3050447000000531,370.47201829999995,370.47201829999995,n,0.6671171000002687,373.7151220999999,373.7151220999999,2,2.524,,,sub-023,35,70,700,bloc_loop.csv,2023-06-12_18h05.40.105,PainUncertainty,2022.2.5,144.01170527105006,
aigu,moderee,stimuli/660Hz,stimuli/moderee,bloc_1,prob20hthp_12trials.xlsx,4,48,20,80,0,,,,,0,0,0,0,1,7,19,7,,,,,,,,3.2,373.7151220999999,376.91788039999983,376.91800546,0.3002272999997331,377.3624743999999,377.3624743999999,n,0.5820021999998062,379.7439832,379.7439832,2,1.719,,,sub-023,35,70,700,bloc_loop.csv,2023-06-12_18h05.40.105,PainUncertainty,2022.2.5,144.01170527105006,
grave,forte,stimuli/330Hz,stimuli/forte,bloc_1,prob20hthp_12trials.xlsx,4,48,20,80,0,,,,,0,0,0,0,1,8,20,2,,,,,,,,3.9,379.7439832,383.64784770000006,383.6482251599999,0.30009370000016133,384.0918078999998,384.0918078999998,m,0.9398997000002964,386.88776559999997,386.88776559999997,79,1.775,,,sub-023,35,70,700,bloc_loop.csv,2023-06-12_18h05.40.105,PainUncertainty,2022.2.5,144.01170527105006,
aigu,moderee,stimuli/660Hz,stimuli/moderee,bloc_1,prob20hthp_12trials.xlsx,4,48,20,80,0,,,,,0,0,0,0,1,9,21,8,,,,,,,,3.8,386.88776559999997,390.69014979999974,390.69016415999965,0.2991823999996086,391.1322836999998,391.1322836999998,n,0.712101900000107,393.74658329999966,393.74658329999966,12,1.838,,,sub-023,35,70,700,bloc_loop.csv,2023-06-12_18h05.40.105,PainUncertainty,2022.2.5,144.01170527105006,
aigu,moderee,stimuli/660Hz,stimuli/moderee,bloc_1,prob20hthp_12trials.xlsx,4,48,20,80,0,,,,,0,0,0,0,1,10,22,10,,,,,,,,5,393.74658329999966,398.74652719999995,398.7466292599996,0.3049874999996973,399.1909619999997,399.1909619999997,n,1.0782963999999993,401.6593936999998,401.6593936999998,18,1.308,,,sub-023,35,70,700,bloc_loop.csv,2023-06-12_18h05.40.105,PainUncertainty,2022.2.5,144.01170527105006,
aigu,forte,stimuli/660Hz,stimuli/forte,bloc_1,prob20hthp_12trials.xlsx,4,48,20,80,0,,,,,0,0,0,0,1,11,23,11,,,,,,,,4.5,401.6593936999998,406.1645303999999,406.1645697599996,0.30485010000029433,406.60820620000004,406.60820620000004,m,0.7737378000001627,408.72342439999966,408.72342439999966,74,1.268,,,sub-023,35,70,700,bloc_loop.csv,2023-06-12_18h05.40.105,PainUncertainty,2022.2.5,144.01170527105006,
aigu,moderee,stimuli/660Hz,stimuli/moderee,bloc_1,prob20hthp_12trials.xlsx,4,48,20,80,0,,,,,0,0,0,0,2,0,24,9,,,,,,,,3.5,408.72342439999966,412.22729789999994,412.2275420599998,0.3048834999999599,412.6714748999998,412.6714748999998,n,0.5616840000002412,415.45199709999997,415.45199709999997,5,2.171,,,sub-023,35,70,700,bloc_loop.csv,2023-06-12_18h05.40.105,PainUncertainty,2022.2.5,144.01170527105006,
grave,moderee,stimuli/330Hz,stimuli/moderee,bloc_1,prob20hthp_12trials.xlsx,4,48,20,80,0,,,,,0,0,0,0,2,1,25,5,,,,,,,,3.4,415.45199709999997,418.85354340000004,418.85358085999985,0.305253200000152,419.3045411999997,419.3045411999997,n,0.6637887000001683,422.2480433999999,422.2480433999999,12,2.205,,,sub-023,35,70,700,bloc_loop.csv,2023-06-12_18h05.40.105,PainUncertainty,2022.2.5,144.01170527105006,
grave,forte,stimuli/330Hz,stimuli/forte,bloc_1,prob20hthp_12trials.xlsx,4,48,20,80,0,,,,,0,0,0,0,2,2,26,2,,,,,,,,4.3,422.2480433999999,426.5484415000001,426.5485573599998,0.30099040000004607,426.99289009999984,426.99289009999984,m,0.5979698000001008,429.7453820999999,429.7453820999999,85,2.081,,,sub-023,35,70,700,bloc_loop.csv,2023-06-12_18h05.40.105,PainUncertainty,2022.2.5,144.01170527105006,
aigu,moderee,stimuli/660Hz,stimuli/moderee,bloc_1,prob20hthp_12trials.xlsx,4,48,20,80,0,,,,,0,0,0,0,2,3,27,6,,,,,,,,3.3,429.7453820999999,433.05130280000003,433.0497040599997,0.30481650000001537,433.4936966999999,433.4936966999999,n,0.5792506000002504,435.2900913999997,435.2900913999997,6,1.165,,,sub-023,35,70,700,bloc_loop.csv,2023-06-12_18h05.40.105,PainUncertainty,2022.2.5,144.01170527105006,
aigu,moderee,stimuli/660Hz,stimuli/moderee,bloc_1,prob20hthp_12trials.xlsx,4,48,20,80,0,,,,,0,0,0,0,2,4,28,10,,,,,,,,4.3,435.2900913999997,439.5922674999997,439.5921988599997,0.3052463999997599,440.03981239999985,440.03981239999985,n,0.6441249999998035,442.0698950000001,442.0698950000001,14,1.303,,,sub-023,35,70,700,bloc_loop.csv,2023-06-12_18h05.40.105,PainUncertainty,2022.2.5,144.01170527105006,
aigu,forte,stimuli/660Hz,stimuli/forte,bloc_1,prob20hthp_12trials.xlsx,4,48,20,80,0,,,,,0,0,0,0,2,5,29,11,,,,,,,,4.5,442.0698950000001,446.5717371999999,446.57172286,0.30512469999985115,447.01641229999996,447.01641229999996,m,0.6764023000000634,449.00639309999997,449.00639309999997,81,1.247,,,sub-023,35,70,700,bloc_loop.csv,2023-06-12_18h05.40.105,PainUncertainty,2022.2.5,144.01170527105006,
grave,forte,stimuli/330Hz,stimuli/forte,bloc_1,prob20hthp_12trials.xlsx,4,48,20,80,0,,,,,0,0,0,0,2,6,30,0,,,,,,,,3.9,449.00639309999997,452.90582259999974,452.90593615999967,0.30484919999980775,453.35024559999965,453.35024559999965,m,0.6062807000002977,455.84695740000006,455.84695740000006,85,1.831,,,sub-023,35,70,700,bloc_loop.csv,2023-06-12_18h05.40.105,PainUncertainty,2022.2.5,144.01170527105006,
grave,forte,stimuli/330Hz,stimuli/forte,bloc_1,prob20hthp_12trials.xlsx,4,48,20,80,0,,,,,0,0,0,0,2,7,31,4,,,,,,,,4.6,455.84695740000006,460.44866120000006,460.44871116,0.29926449999993565,460.8892713,460.8892713,m,0.6372228000000177,462.35546179999983,462.35546179999983,80,0.747,,,sub-023,35,70,700,bloc_loop.csv,2023-06-12_18h05.40.105,PainUncertainty,2022.2.5,144.01170527105006,
aigu,moderee,stimuli/660Hz,stimuli/moderee,bloc_1,prob20hthp_12trials.xlsx,4,48,20,80,0,,,,,0,0,0,0,2,8,32,7,,,,,,,,4,462.35546179999983,466.3610488999998,466.3592665599998,0.3008805999998003,466.8038649,466.8038649,n,0.5885785999998916,468.50849389999985,468.50849389999985,0,1.046,,,sub-023,35,70,700,bloc_loop.csv,2023-06-12_18h05.40.105,PainUncertainty,2022.2.5,144.01170527105006,
grave,forte,stimuli/330Hz,stimuli/forte,bloc_1,prob20hthp_12trials.xlsx,4,48,20,80,0,,,,,0,0,0,0,2,9,33,3,,,,,,,,3.7,468.50849389999985,472.2136058000001,472.21363545999964,0.3049722999999176,472.65781519999973,472.65781519999973,m,1.0052225999997972,476.24420280000004,476.24420280000004,81,2.532,,,sub-023,35,70,700,bloc_loop.csv,2023-06-12_18h05.40.105,PainUncertainty,2022.2.5,144.01170527105006,
grave,forte,stimuli/330Hz,stimuli/forte,bloc_1,prob20hthp_12trials.xlsx,4,48,20,80,0,,,,,0,0,0,0,2,10,34,1,,,,,,,,4.5,476.24420280000004,480.74952489999987,480.7495745599998,0.3048892000001615,481.19413140000006,481.19413140000006,m,0.713295399999879,483.74321359999976,483.74321359999976,75,1.768,,,sub-023,35,70,700,bloc_loop.csv,2023-06-12_18h05.40.105,PainUncertainty,2022.2.5,144.01170527105006,
aigu,moderee,stimuli/660Hz,stimuli/moderee,bloc_1,prob20hthp_12trials.xlsx,4,48,20,80,0,,,,,0,0,0,0,2,11,35,8,,,,,,,,4.1,483.74321359999976,487.84739249999984,487.84747856,0.30505829999992784,488.29608549999966,488.29608549999966,n,0.9027031999999053,490.82371969999986,490.82371969999986,9,1.559,,,sub-023,35,70,700,bloc_loop.csv,2023-06-12_18h05.40.105,PainUncertainty,2022.2.5,144.01170527105006,
aigu,moderee,stimuli/660Hz,stimuli/moderee,bloc_1,prob20hthp_12trials.xlsx,4,48,20,80,0,,,,,0,0,0,0,3,0,36,8,,,,,,,,4.5,490.82371969999986,495.32838549999997,495.3282805599996,0.30068100000016784,495.7722469999999,495.7722469999999,n,0.5487225000001672,498.0478853999998,498.0478853999998,8,1.664,,,sub-023,35,70,700,bloc_loop.csv,2023-06-12_18h05.40.105,PainUncertainty,2022.2.5,144.01170527105006,
aigu,forte,stimuli/660Hz,stimuli/forte,bloc_1,prob20hthp_12trials.xlsx,4,48,20,80,0,,,,,0,0,0,0,3,1,37,11,,,,,,,,4.2,498.0478853999998,502.2521044,502.2520198599999,0.30499220000001515,502.70044579999967,502.70044579999967,m,0.8798798000002535,505.5128950999997,505.5128950999997,70,1.872,,,sub-023,35,70,700,bloc_loop.csv,2023-06-12_18h05.40.105,PainUncertainty,2022.2.5,144.01170527105006,
grave,forte,stimuli/330Hz,stimuli/forte,bloc_1,prob20hthp_12trials.xlsx,4,48,20,80,0,,,,,0,0,0,0,3,2,38,0,,,,,,,,3.9,505.5128950999997,509.4126189999997,509.41274736,0.3052415000001929,509.8609778,509.8609778,m,1.281666100000166,512.980517,512.980517,74,1.768,,,sub-023,35,70,700,bloc_loop.csv,2023-06-12_18h05.40.105,PainUncertainty,2022.2.5,144.01170527105006,
grave,forte,stimuli/330Hz,stimuli/forte,bloc_1,prob20hthp_12trials.xlsx,4,48,20,80,0,,,,,0,0,0,0,3,3,39,1,,,,,,,,4.2,512.980517,517.1844120999999,517.1842900599999,0.30504389999987325,517.6287740999996,517.6287740999996,m,0.7358157000003303,520.4925805999997,520.4925805999997,66,2.052,,,sub-023,35,70,700,bloc_loop.csv,2023-06-12_18h05.40.105,PainUncertainty,2022.2.5,144.01170527105006,
aigu,moderee,stimuli/660Hz,stimuli/moderee,bloc_1,prob20hthp_12trials.xlsx,4,48,20,80,0,,,,,0,0,0,0,3,4,40,7,,,,,,,,3.6,520.4925805999997,524.0952315999998,524.0952594599997,0.3053525999998783,524.5429486999997,524.5429486999997,n,1.2134624000000258,527.7960764999998,527.7960764999998,6,1.983,,,sub-023,35,70,700,bloc_loop.csv,2023-06-12_18h05.40.105,PainUncertainty,2022.2.5,144.01170527105006,
grave,moderee,stimuli/330Hz,stimuli/moderee,bloc_1,prob20hthp_12trials.xlsx,4,48,20,80,0,,,,,0,0,0,0,3,5,41,5,,,,,,,,3.5,527.7960764999998,531.2970526999998,531.2971125599996,0.299637999999959,531.7401967999999,531.7401967999999,n,0.7587219000001824,534.7365233999999,534.7365233999999,12,2.164,,,sub-023,35,70,700,bloc_loop.csv,2023-06-12_18h05.40.105,PainUncertainty,2022.2.5,144.01170527105006,
grave,forte,stimuli/330Hz,stimuli/forte,bloc_1,prob20hthp_12trials.xlsx,4,48,20,80,0,,,,,0,0,0,0,3,6,42,4,,,,,,,,4.8,534.7365233999999,539.5410282999997,539.5411343599998,0.3050880999999208,539.9852707999999,539.9852707999999,m,0.8311631000001398,542.6312946999997,542.6312946999997,69,1.733,,,sub-023,35,70,700,bloc_loop.csv,2023-06-12_18h05.40.105,PainUncertainty,2022.2.5,144.01170527105006,
aigu,moderee,stimuli/660Hz,stimuli/moderee,bloc_1,prob20hthp_12trials.xlsx,4,48,20,80,0,,,,,0,0,0,0,3,7,43,6,,,,,,,,3.8,542.6312946999997,546.4307122999999,546.4308870599997,0.3050653999998758,546.8823388999999,546.8823388999999,n,0.6326984000002085,549.9205978999998,549.9205978999998,13,2.336,,,sub-023,35,70,700,bloc_loop.csv,2023-06-12_18h05.40.105,PainUncertainty,2022.2.5,144.01170527105006,
aigu,moderee,stimuli/660Hz,stimuli/moderee,bloc_1,prob20hthp_12trials.xlsx,4,48,20,80,0,,,,,0,0,0,0,3,8,44,9,,,,,,,,3,549.9205978999998,552.9246503999998,552.9250542599997,0.29960620000019844,553.3693493999999,553.3693493999999,n,0.7829004999998688,556.2515481,556.2515481,10,2.018,,,sub-023,35,70,700,bloc_loop.csv,2023-06-12_18h05.40.105,PainUncertainty,2022.2.5,144.01170527105006,
grave,forte,stimuli/330Hz,stimuli/forte,bloc_1,prob20hthp_12trials.xlsx,4,48,20,80,0,,,,,0,0,0,0,3,9,45,3,,,,,,,,4.6,556.2515481,560.8561433,560.8561985599998,0.3017884999999296,561.3007671,561.3007671,m,0.8347748000001047,564.1954059,564.1954059,69,1.983,,,sub-023,35,70,700,bloc_loop.csv,2023-06-12_18h05.40.105,PainUncertainty,2022.2.5,144.01170527105006,
aigu,moderee,stimuli/660Hz,stimuli/moderee,bloc_1,prob20hthp_12trials.xlsx,4,48,20,80,0,,,,,0,0,0,0,3,10,46,10,,,,,,,,3.4,564.1954059,567.5999377999997,567.6000169599996,0.30536520000032397,568.0468403,568.0468403,n,0.6799140000002808,570.8944074000001,570.8944074000001,17,2.093,,,sub-023,35,70,700,bloc_loop.csv,2023-06-12_18h05.40.105,PainUncertainty,2022.2.5,144.01170527105006,
grave,forte,stimuli/330Hz,stimuli/forte,bloc_1,prob20hthp_12trials.xlsx,4,48,20,80,0,,,,,0,0,0,0,3,11,47,2,,,,,,,,4.5,570.8944074000001,575.399852,575.39994896,0.30483330000015485,575.8438084999998,575.8438084999998,m,0.7649147000001904,577.9119139,577.9119139,72,1.234,,,sub-023,35,70,700,bloc_loop.csv,2023-06-12_18h05.40.105,PainUncertainty,2022.2.5,144.01170527105006,
grave,forte,stimuli/330Hz,stimuli/forte,bloc_2,prob50_50_4trials.xlsx,2,8,50,50,1,,,,,0,1,1,1,0,0,0,1,,,,,,,,3.9,577.9119139,581.8169478999998,581.8172100599999,0.304587999999967,582.2613452999999,582.2613452999999,m,1.2388760000003458,585.4077468999999,585.4077468999999,80,1.837,,,sub-023,35,70,700,bloc_loop.csv,2023-06-12_18h05.40.105,PainUncertainty,2022.2.5,144.01170527105006,
aigu,moderee,stimuli/660Hz,stimuli/moderee,bloc_2,prob50_50_4trials.xlsx,2,8,50,50,1,,,,,0,1,1,1,0,1,1,2,,,,,,,,3.8,585.4077468999999,589.2067285999997,589.2067901599997,0.30498249999982363,589.6555700999997,589.6555700999997,n,0.9943782000000283,593.6421126,593.6421126,4,2.92,,,sub-023,35,70,700,bloc_loop.csv,2023-06-12_18h05.40.105,PainUncertainty,2022.2.5,144.01170527105006,
aigu,forte,stimuli/660Hz,stimuli/forte,bloc_2,prob50_50_4trials.xlsx,2,8,50,50,1,,,,,0,1,1,1,0,2,2,3,,,,,,,,4.9,593.6421126,598.5412366999999,598.54143706,0.3048119999998562,598.9855709999997,598.9855709999997,m,1.0009228000003532,601.5215042999998,601.5215042999998,76,1.455,,,sub-023,35,70,700,bloc_loop.csv,2023-06-12_18h05.40.105,PainUncertainty,2022.2.5,144.01170527105006,
grave,moderee,stimuli/330Hz,stimuli/moderee,bloc_2,prob50_50_4trials.xlsx,2,8,50,50,1,,,,,0,1,1,1,0,3,3,0,,,,,,,,3,601.5215042999998,604.5209789,604.52113606,0.3052975000000515,604.9658786,604.9658786,n,0.580195300000014,607.8996260999998,607.8996260999998,6,2.297,,,sub-023,35,70,700,bloc_loop.csv,2023-06-12_18h05.40.105,PainUncertainty,2022.2.5,144.01170527105006,
grave,moderee,stimuli/330Hz,stimuli/moderee,bloc_2,prob50_50_4trials.xlsx,2,8,50,50,1,,,,,0,1,1,1,1,0,4,0,,,,,,,,4.7,607.8996260999998,612.5986083999996,612.59884486,0.30490580000014234,613.042571,613.042571,n,0.5502287999997861,615.8284540999998,615.8284540999998,10,2.155,,,sub-023,35,70,700,bloc_loop.csv,2023-06-12_18h05.40.105,PainUncertainty,2022.2.5,144.01170527105006,
grave,forte,stimuli/330Hz,stimuli/forte,bloc_2,prob50_50_4trials.xlsx,2,8,50,50,1,,,,,0,1,1,1,1,1,5,1,,,,,,,,5,615.8284540999998,620.8287178,620.82871556,0.3049964000001637,621.2727932999996,621.2727932999996,m,1.2176640000002408,624.6367544999998,624.6367544999998,71,2.08,,,sub-023,35,70,700,bloc_loop.csv,2023-06-12_18h05.40.105,PainUncertainty,2022.2.5,144.01170527105006,
aigu,forte,stimuli/660Hz,stimuli/forte,bloc_2,prob50_50_4trials.xlsx,2,8,50,50,1,,,,,0,1,1,1,1,2,6,3,,,,,,,,3.5,624.6367544999998,628.1418666,628.14193246,0.3052855000000818,628.5864136,628.5864136,m,1.0674209999997402,631.9576511,631.9576511,76,2.23,,,sub-023,35,70,700,bloc_loop.csv,2023-06-12_18h05.40.105,PainUncertainty,2022.2.5,144.01170527105006,
aigu,moderee,stimuli/660Hz,stimuli/moderee,bloc_2,prob50_50_4trials.xlsx,2,8,50,50,1,,,,,0,1,1,1,1,3,7,2,,,,,,,,3.2,631.9576511,635.1570750999999,635.15715266,0.29949630000010075,635.5994480999998,635.5994480999998,n,0.879747800000132,639.6550669999997,639.6550669999997,11,1.144,,,sub-023,35,70,700,bloc_loop.csv,2023-06-12_18h05.40.105,PainUncertainty,2022.2.5,144.01170527105006,
,,,,bloc_2,prob50_50_4trials.xlsx,2,8,50,50,1,,,,,0,1,1,1,,,,,0,0,0,0,,,,,,,,,,,,,,,,,639.6550669999997,659.6043583000001,sub-023,35,70,700,bloc_loop.csv,2023-06-12_18h05.40.105,PainUncertainty,2022.2.5,144.01170527105006,
grave,moderee,stimuli/330Hz,stimuli/moderee,bloc_3,prob80hthp_12trials.xlsx,2,24,80,20,0,,,,,0,2,2,2,0,0,0,1,,,,,,,,4.3,660.3332274999998,664.6323487999998,664.6323103599997,0.3053794000002199,665.0766905,665.0766905,n,0.7018444999998792,667.3159397999998,667.3159397999998,13,1.49,,,sub-023,35,70,700,bloc_loop.csv,2023-06-12_18h05.40.105,PainUncertainty,2022.2.5,144.01170527105006,
grave,moderee,stimuli/330Hz,stimuli/moderee,bloc_3,prob80hthp_12trials.xlsx,2,24,80,20,0,,,,,0,2,2,2,0,1,1,0,,,,,,,,3,667.3159397999998,670.3205166999996,670.3206147599998,0.30499719999988884,670.7650006999997,670.7650006999997,n,1.0297755999999936,673.8081257999997,673.8081257999997,8,1.941,,,sub-023,35,70,700,bloc_loop.csv,2023-06-12_18h05.40.105,PainUncertainty,2022.2.5,144.01170527105006,
aigu,forte,stimuli/660Hz,stimuli/forte,bloc_3,prob80hthp_12trials.xlsx,2,24,80,20,0,,,,,0,2,2,2,0,2,2,7,,,,,,,,3.2,673.8081257999997,677.0089135999997,677.0088881599999,0.3051948000002085,677.4573106999997,677.4573106999997,m,0.6626490000003287,679.4174448999997,679.4174448999997,67,1.239,,,sub-023,35,70,700,bloc_loop.csv,2023-06-12_18h05.40.105,PainUncertainty,2022.2.5,144.01170527105006,
aigu,forte,stimuli/660Hz,stimuli/forte,bloc_3,prob80hthp_12trials.xlsx,2,24,80,20,0,,,,,0,2,2,2,0,3,3,9,,,,,,,,4.5,679.4174448999997,683.9194457999997,683.9195365599998,0.3049135999999635,684.3707445999999,684.3707445999999,m,0.7795912000001408,686.0846609999999,686.0846609999999,71,0.851,,,sub-023,35,70,700,bloc_loop.csv,2023-06-12_18h05.40.105,PainUncertainty,2022.2.5,144.01170527105006,
grave,moderee,stimuli/330Hz,stimuli/moderee,bloc_3,prob80hthp_12trials.xlsx,2,24,80,20,0,,,,,0,2,2,2,0,4,4,2,,,,,,,,3.4,686.0846609999999,689.4895084,689.48959916,0.3049952999999732,689.9336349999999,689.9336349999999,n,0.5555629999998928,692.8136024999999,692.8136024999999,1,2.26,,,sub-023,35,70,700,bloc_loop.csv,2023-06-12_18h05.40.105,PainUncertainty,2022.2.5,144.01170527105006,
grave,moderee,stimuli/330Hz,stimuli/moderee,bloc_3,prob80hthp_12trials.xlsx,2,24,80,20,0,,,,,0,2,2,2,0,5,5,4,,,,,,,,4.7,692.8136024999999,697.5181493999999,697.5182017599999,0.30516949999991994,697.9623941999998,697.9623941999998,n,0.882451299999957,701.0964743,701.0964743,8,2.171,,,sub-023,35,70,700,bloc_loop.csv,2023-06-12_18h05.40.105,PainUncertainty,2022.2.5,144.01170527105006,
aigu,forte,stimuli/660Hz,stimuli/forte,bloc_3,prob80hthp_12trials.xlsx,2,24,80,20,0,,,,,0,2,2,2,0,6,6,6,,,,,,,,4.1,701.0964743,705.2001811999999,705.2002598599996,0.30006360000015775,705.6444336999998,705.6444336999998,m,0.7371871999998802,708.1428066999997,708.1428066999997,70,1.705,,,sub-023,35,70,700,bloc_loop.csv,2023-06-12_18h05.40.105,PainUncertainty,2022.2.5,144.01170527105006,
aigu,forte,stimuli/660Hz,stimuli/forte,bloc_3,prob80hthp_12trials.xlsx,2,24,80,20,0,,,,,0,2,2,2,0,7,7,8,,,,,,,,4,708.1428066999997,712.1455344000001,712.14558806,0.30461379999997007,712.5898018999997,712.5898018999997,m,0.6667867999999544,715.6903622999998,715.6903622999998,69,2.365,,,sub-023,35,70,700,bloc_loop.csv,2023-06-12_18h05.40.105,PainUncertainty,2022.2.5,144.01170527105006,
grave,moderee,stimuli/330Hz,stimuli/moderee,bloc_3,prob80hthp_12trials.xlsx,2,24,80,20,0,,,,,0,2,2,2,0,8,8,3,,,,,,,,4.3,715.6903622999998,719.9931782999997,719.9932158599999,0.30535429999963526,720.4397114999997,720.4397114999997,n,0.5855608000001666,721.9717406999998,721.9717406999998,10,0.872,,,sub-023,35,70,700,bloc_loop.csv,2023-06-12_18h05.40.105,PainUncertainty,2022.2.5,144.01170527105006,
aigu,forte,stimuli/660Hz,stimuli/forte,bloc_3,prob80hthp_12trials.xlsx,2,24,80,20,0,,,,,0,2,2,2,0,9,9,10,,,,,,,,4,721.9717406999998,725.9729890999997,725.9730803599999,0.3050462000001062,726.4174353999997,726.4174353999997,m,0.7766019000000597,729.7896547,729.7896547,73,2.517,,,sub-023,35,70,700,bloc_loop.csv,2023-06-12_18h05.40.105,PainUncertainty,2022.2.5,144.01170527105006,
aigu,moderee,stimuli/660Hz,stimuli/moderee,bloc_3,prob80hthp_12trials.xlsx,2,24,80,20,0,,,,,0,2,2,2,0,10,10,11,,,,,,,,5,729.7896547,734.7935779,734.7935923599997,0.30661049999980605,735.2435221999999,735.2435221999999,n,0.7594486000002689,738.1496597999999,738.1496597999999,7,2.072,,,sub-023,35,70,700,bloc_loop.csv,2023-06-12_18h05.40.105,PainUncertainty,2022.2.5,144.01170527105006,
grave,forte,stimuli/330Hz,stimuli/forte,bloc_3,prob80hthp_12trials.xlsx,2,24,80,20,0,,,,,0,2,2,2,0,11,11,5,,,,,,,,5,738.1496597999999,743.1492030999998,743.1491890599999,0.30033529999991515,743.5933025999998,743.5933025999998,m,0.6659590999997818,747.0693649,747.0693649,68,2.759,,,sub-023,35,70,700,bloc_loop.csv,2023-06-12_18h05.40.105,PainUncertainty,2022.2.5,144.01170527105006,
aigu,forte,stimuli/660Hz,stimuli/forte,bloc_3,prob80hthp_12trials.xlsx,2,24,80,20,0,,,,,0,2,2,2,1,0,12,6,,,,,,,,4.5,747.0693649,751.5736892,751.5738056599997,0.30473609999990003,752.0220202,752.0220202,m,0.6173034000003099,753.4301756999998,753.4301756999998,70,0.733,,,sub-023,35,70,700,bloc_loop.csv,2023-06-12_18h05.40.105,PainUncertainty,2022.2.5,144.01170527105006,
grave,forte,stimuli/330Hz,stimuli/forte,bloc_3,prob80hthp_12trials.xlsx,2,24,80,20,0,,,,,0,2,2,2,1,1,13,5,,,,,,,,3.1,753.4301756999998,756.5320637,756.5321958599997,0.3052365999997164,756.9763786999997,756.9763786999997,m,0.7740490999999565,760.4154939,760.4154939,68,2.608,,,sub-023,35,70,700,bloc_loop.csv,2023-06-12_18h05.40.105,PainUncertainty,2022.2.5,144.01170527105006,
aigu,forte,stimuli/660Hz,stimuli/forte,bloc_3,prob80hthp_12trials.xlsx,2,24,80,20,0,,,,,0,2,2,2,1,2,14,9,,,,,,,,3.4,760.4154939,763.8176822,763.8178237599999,0.3066113999998379,764.2695681999999,764.2695681999999,m,1.1194174000002022,767.1793186,767.1793186,78,1.713,,,sub-023,35,70,700,bloc_loop.csv,2023-06-12_18h05.40.105,PainUncertainty,2022.2.5,144.01170527105006,
grave,moderee,stimuli/330Hz,stimuli/moderee,bloc_3,prob80hthp_12trials.xlsx,2,24,80,20,0,,,,,0,2,2,2,1,3,15,0,,,,,,,,3.9,767.1793186,771.0826256999999,771.0824311599998,0.3053991000001588,771.5270836999998,771.5270836999998,n,1.0549713000000338,775.1874644,775.1874644,10,2.49,,,sub-023,35,70,700,bloc_loop.csv,2023-06-12_18h05.40.105,PainUncertainty,2022.2.5,144.01170527105006,
aigu,forte,stimuli/660Hz,stimuli/forte,bloc_3,prob80hthp_12trials.xlsx,2,24,80,20,0,,,,,0,2,2,2,1,4,16,8,,,,,,,,3.1,775.1874644,778.291635,778.2917320599998,0.3049866999999722,778.7358776000001,778.7358776000001,m,0.632039199999781,781.8210055999998,781.8210055999998,62,2.384,,,sub-023,35,70,700,bloc_loop.csv,2023-06-12_18h05.40.105,PainUncertainty,2022.2.5,144.01170527105006,
grave,moderee,stimuli/330Hz,stimuli/moderee,bloc_3,prob80hthp_12trials.xlsx,2,24,80,20,0,,,,,0,2,2,2,1,5,17,3,,,,,,,,3.6,781.8210055999998,785.4243895999998,785.42445816,0.3054222999999183,785.8687439999999,785.8687439999999,n,0.5316690999998173,788.6935109000001,788.6935109000001,6,2.178,,,sub-023,35,70,700,bloc_loop.csv,2023-06-12_18h05.40.105,PainUncertainty,2022.2.5,144.01170527105006,
aigu,forte,stimuli/660Hz,stimuli/forte,bloc_3,prob80hthp_12trials.xlsx,2,24,80,20,0,,,,,0,2,2,2,1,6,18,7,,,,,,,,4.7,788.6935109000001,793.3977783999999,793.3976560599998,0.3049954999996771,793.8423349,793.8423349,m,0.6689063999997416,797.0063620999999,797.0063620999999,73,2.443,,,sub-023,35,70,700,bloc_loop.csv,2023-06-12_18h05.40.105,PainUncertainty,2022.2.5,144.01170527105006,
aigu,forte,stimuli/660Hz,stimuli/forte,bloc_3,prob80hthp_12trials.xlsx,2,24,80,20,0,,,,,0,2,2,2,1,7,19,10,,,,,,,,4.4,797.0063620999999,801.4055291,801.4055396599996,0.3056249999999636,801.8549889000001,801.8549889000001,m,0.9616449999998622,804.0398643999997,804.0398643999997,85,1.151,,,sub-023,35,70,700,bloc_loop.csv,2023-06-12_18h05.40.105,PainUncertainty,2022.2.5,144.01170527105006,
grave,moderee,stimuli/330Hz,stimuli/moderee,bloc_3,prob80hthp_12trials.xlsx,2,24,80,20,0,,,,,0,2,2,2,1,8,20,2,,,,,,,,3.2,804.0398643999997,807.239482,807.2394758599997,0.30563670000037746,807.6838327,807.6838327,n,0.5338630999999623,810.3059202999998,810.3059202999998,5,2.033,,,sub-023,35,70,700,bloc_loop.csv,2023-06-12_18h05.40.105,PainUncertainty,2022.2.5,144.01170527105006,
grave,moderee,stimuli/330Hz,stimuli/moderee,bloc_3,prob80hthp_12trials.xlsx,2,24,80,20,0,,,,,0,2,2,2,1,9,21,1,,,,,,,,4.6,810.3059202999998,814.9070592999997,814.90702576,0.30524289999993925,815.3513327000001,815.3513327000001,n,0.6229370000000927,818.7783391999997,818.7783391999997,11,2.741,,,sub-023,35,70,700,bloc_loop.csv,2023-06-12_18h05.40.105,PainUncertainty,2022.2.5,144.01170527105006,
grave,moderee,stimuli/330Hz,stimuli/moderee,bloc_3,prob80hthp_12trials.xlsx,2,24,80,20,0,,,,,0,2,2,2,1,10,22,4,,,,,,,,3,818.7783391999997,821.7835491999999,821.7832268599999,0.3052486999999928,822.2277031999997,822.2277031999997,n,0.8382973000002494,825.2041838999999,825.2041838999999,9,2.082,,,sub-023,35,70,700,bloc_loop.csv,2023-06-12_18h05.40.105,PainUncertainty,2022.2.5,144.01170527105006,
aigu,moderee,stimuli/660Hz,stimuli/moderee,bloc_3,prob80hthp_12trials.xlsx,2,24,80,20,0,,,,,0,2,2,2,1,11,23,11,,,,,,,,3.3,825.2041838999999,828.5059338000001,828.50602806,0.30572140000003856,828.9552979,828.9552979,n,0.5594788999997036,830.735557,830.735557,12,1.157,,,sub-023,35,70,700,bloc_loop.csv,2023-06-12_18h05.40.105,PainUncertainty,2022.2.5,144.01170527105006,
grave,moderee,stimuli/330Hz,stimuli/moderee,bloc_4,prob50_50_4trials.xlsx,2,8,50,50,1,,,,,0,3,3,3,0,0,0,0,,,,,,,,4.4,830.735557,835.1387292999998,835.1387153599998,0.29909779999979946,835.5816999999997,835.5816999999997,n,0.7061509000000115,836.9851820999997,836.9851820999997,10,0.644,,,sub-023,35,70,700,bloc_loop.csv,2023-06-12_18h05.40.105,PainUncertainty,2022.2.5,144.01170527105006,
aigu,moderee,stimuli/660Hz,stimuli/moderee,bloc_4,prob50_50_4trials.xlsx,2,8,50,50,1,,,,,0,3,3,3,0,1,1,2,,,,,,,,4,836.9851820999997,840.9865805,840.98663376,0.3052973000003476,841.4311889999999,841.4311889999999,n,0.5543555999997807,842.6123524999998,842.6123524999998,10,0.56,,,sub-023,35,70,700,bloc_loop.csv,2023-06-12_18h05.40.105,PainUncertainty,2022.2.5,144.01170527105006,
grave,forte,stimuli/330Hz,stimuli/forte,bloc_4,prob50_50_4trials.xlsx,2,8,50,50,1,,,,,0,3,3,3,0,2,2,1,,,,,,,,3.7,842.6123524999998,846.3136383000001,846.3137728599999,0.3057111999996778,846.7613232999997,846.7613232999997,m,0.6399730999996791,849.0384639999997,849.0384639999997,71,1.575,,,sub-023,35,70,700,bloc_loop.csv,2023-06-12_18h05.40.105,PainUncertainty,2022.2.5,144.01170527105006,
aigu,forte,stimuli/660Hz,stimuli/forte,bloc_4,prob50_50_4trials.xlsx,2,8,50,50,1,,,,,0,3,3,3,0,3,3,3,,,,,,,,3.3,849.0384639999997,852.3421635999998,852.3421396599996,0.305347299999994,852.7869934,852.7869934,m,0.5513202000001911,854.4911032999998,854.4911032999998,70,1.082,,,sub-023,35,70,700,bloc_loop.csv,2023-06-12_18h05.40.105,PainUncertainty,2022.2.5,144.01170527105006,
grave,moderee,stimuli/330Hz,stimuli/moderee,bloc_4,prob50_50_4trials.xlsx,2,8,50,50,1,,,,,0,3,3,3,1,0,4,0,,,,,,,,3.9,854.4911032999998,858.3917303999997,858.3917394599997,0.30512180000005173,858.8359919,858.8359919,n,0.4905567000000701,860.9491548000001,860.9491548000001,5,1.552,,,sub-023,35,70,700,bloc_loop.csv,2023-06-12_18h05.40.105,PainUncertainty,2022.2.5,144.01170527105006,
aigu,forte,stimuli/660Hz,stimuli/forte,bloc_4,prob50_50_4trials.xlsx,2,8,50,50,1,,,,,0,3,3,3,1,1,5,3,,,,,,,,3,860.9491548000001,863.9545954999999,863.9546953599996,0.3049906999999621,864.3988737999998,864.3988737999998,m,0.5338124999998399,866.3349241999999,866.3349241999999,80,1.352,,,sub-023,35,70,700,bloc_loop.csv,2023-06-12_18h05.40.105,PainUncertainty,2022.2.5,144.01170527105006,
grave,forte,stimuli/330Hz,stimuli/forte,bloc_4,prob50_50_4trials.xlsx,2,8,50,50,1,,,,,0,3,3,3,1,2,6,1,,,,,,,,5,866.3349241999999,871.3374608999998,871.3374520599999,0.3054047000000537,871.7822031000001,871.7822031000001,m,0.6315165999999408,873.4966869,873.4966869,76,1.013,,,sub-023,35,70,700,bloc_loop.csv,2023-06-12_18h05.40.105,PainUncertainty,2022.2.5,144.01170527105006,
aigu,moderee,stimuli/660Hz,stimuli/moderee,bloc_4,prob50_50_4trials.xlsx,2,8,50,50,1,,,,,0,3,3,3,1,3,7,2,,,,,,,,4.8,873.4966869,878.2965942000001,878.2966995599999,0.3050917999999001,878.7408323,878.7408323,n,0.523588999999447,882.1947136999997,882.1947136999997,10,0.899,,,sub-023,35,70,700,bloc_loop.csv,2023-06-12_18h05.40.105,PainUncertainty,2022.2.5,144.01170527105006,
,,,,bloc_4,prob50_50_4trials.xlsx,2,8,50,50,1,,,,,0,3,3,3,,,,,0,0,0,0,,,,,,,,,,,,,,,,,882.1947136999997,897.8822774,sub-023,35,70,700,bloc_loop.csv,2023-06-12_18h05.40.105,PainUncertainty,2022.2.5,144.01170527105006,
grave,forte,stimuli/330Hz,stimuli/forte,bloc_5,prob20hthp_12trials.xlsx,2,24,20,80,0,,,,,0,4,4,4,0,0,0,0,,,,,,,,4.1,899.0434059999998,903.1467531999997,903.1468964600002,0.3051021999999648,903.5909615999999,903.5909615999999,m,0.5746670000003178,906.1418234000002,906.1418234000002,62,1.892,,,sub-023,35,70,700,bloc_loop.csv,2023-06-12_18h05.40.105,PainUncertainty,2022.2.5,144.01170527105006,
aigu,moderee,stimuli/660Hz,stimuli/moderee,bloc_5,prob20hthp_12trials.xlsx,2,24,20,80,0,,,,,0,4,4,4,0,1,1,9,,,,,,,,3.3,906.1418234000002,909.4462246000003,909.4463267599998,0.29927130000032776,909.8850407999998,909.8850407999998,n,0.5576914999996916,912.2946695999999,912.2946695999999,6,1.782,,,sub-023,35,70,700,bloc_loop.csv,2023-06-12_18h05.40.105,PainUncertainty,2022.2.5,144.01170527105006,
grave,forte,stimuli/330Hz,stimuli/forte,bloc_5,prob20hthp_12trials.xlsx,2,24,20,80,0,,,,,0,4,4,4,0,2,2,1,,,,,,,,3.6,912.2946695999999,915.8983916999996,915.8984317600001,0.3014954999998736,916.3427876999995,916.3427876999995,m,0.682083700000021,918.6714579999998,918.6714579999998,71,1.592,,,sub-023,35,70,700,bloc_loop.csv,2023-06-12_18h05.40.105,PainUncertainty,2022.2.5,144.01170527105006,
grave,forte,stimuli/330Hz,stimuli/forte,bloc_5,prob20hthp_12trials.xlsx,2,24,20,80,0,,,,,0,4,4,4,0,3,3,4,,,,,,,,5,918.6714579999998,923.6769969999996,923.6771393599996,0.3049137999996674,924.1283745999999,924.1283745999999,m,0.5278552000004311,926.2345321000003,926.2345321000003,72,1.504,,,sub-023,35,70,700,bloc_loop.csv,2023-06-12_18h05.40.105,PainUncertainty,2022.2.5,144.01170527105006,
aigu,moderee,stimuli/660Hz,stimuli/moderee,bloc_5,prob20hthp_12trials.xlsx,2,24,20,80,0,,,,,0,4,4,4,0,4,4,8,,,,,,,,4.1,926.2345321000003,930.3378143,930.3379871599994,0.2997957999996288,930.7823562000003,930.7823562000003,n,0.9649695999992218,933.2678477,933.2678477,17,1.469,,,sub-023,35,70,700,bloc_loop.csv,2023-06-12_18h05.40.105,PainUncertainty,2022.2.5,144.01170527105006,
aigu,moderee,stimuli/660Hz,stimuli/moderee,bloc_5,prob20hthp_12trials.xlsx,2,24,20,80,0,,,,,0,4,4,4,0,5,5,10,,,,,,,,3.2,933.2678477,936.4705525999998,936.4712297600003,0.3045734999996057,936.9180264999995,936.9180264999995,n,0.5298109999998815,939.8362132000002,939.8362132000002,9,2.337,,,sub-023,35,70,700,bloc_loop.csv,2023-06-12_18h05.40.105,PainUncertainty,2022.2.5,144.01170527105006,
aigu,moderee,stimuli/660Hz,stimuli/moderee,bloc_5,prob20hthp_12trials.xlsx,2,24,20,80,0,,,,,0,4,4,4,0,6,6,6,,,,,,,,4.7,939.8362132000002,944.5431753000003,944.5410903599999,0.30537159999948926,944.9874196999999,944.9874196999999,n,0.5334116999997605,947.6711284000003,947.6711284000003,11,2.087,,,sub-023,35,70,700,bloc_loop.csv,2023-06-12_18h05.40.105,PainUncertainty,2022.2.5,144.01170527105006,
grave,moderee,stimuli/330Hz,stimuli/moderee,bloc_5,prob20hthp_12trials.xlsx,2,24,20,80,0,,,,,0,4,4,4,0,7,7,5,,,,,,,,4.7,947.6711284000003,952.3748753999998,952.37493166,0.3051740000000791,952.8192129999998,952.8192129999998,n,1.094126700000288,955.0563213999994,955.0563213999994,22,1.066,,,sub-023,35,70,700,bloc_loop.csv,2023-06-12_18h05.40.105,PainUncertainty,2022.2.5,144.01170527105006,
aigu,forte,stimuli/660Hz,stimuli/forte,bloc_5,prob20hthp_12trials.xlsx,2,24,20,80,0,,,,,0,4,4,4,0,8,8,11,,,,,,,,4.1,955.0563213999994,959.1605088999995,959.16054466,0.3048921999998129,959.6045847999994,959.6045847999994,m,0.7110259999994923,961.7051861999998,961.7051861999998,75,1.323,,,sub-023,35,70,700,bloc_loop.csv,2023-06-12_18h05.40.105,PainUncertainty,2022.2.5,144.01170527105006,
grave,forte,stimuli/330Hz,stimuli/forte,bloc_5,prob20hthp_12trials.xlsx,2,24,20,80,0,,,,,0,4,4,4,0,9,9,3,,,,,,,,3.7,961.7051861999998,965.4043575999995,965.40448736,0.30509559999973135,965.8485957000003,965.8485957000003,m,0.5573420000005171,968.5639824999998,968.5639824999998,66,2.102,,,sub-023,35,70,700,bloc_loop.csv,2023-06-12_18h05.40.105,PainUncertainty,2022.2.5,144.01170527105006,
grave,forte,stimuli/330Hz,stimuli/forte,bloc_5,prob20hthp_12trials.xlsx,2,24,20,80,0,,,,,0,4,4,4,0,10,10,2,,,,,,,,3.7,968.5639824999998,972.2662429000002,972.2664962599996,0.29939550000017334,972.7112442999996,972.7112442999996,m,0.552767099999528,974.9268308000001,974.9268308000001,80,1.587,,,sub-023,35,70,700,bloc_loop.csv,2023-06-12_18h05.40.105,PainUncertainty,2022.2.5,144.01170527105006,
aigu,moderee,stimuli/660Hz,stimuli/moderee,bloc_5,prob20hthp_12trials.xlsx,2,24,20,80,0,,,,,0,4,4,4,0,11,11,7,,,,,,,,3.3,974.9268308000001,978.2322939999995,978.2322880599999,0.3049627000000328,978.6763411000002,978.6763411000002,n,0.9541838000000098,981.9125776000001,981.9125776000001,4,2.197,,,sub-023,35,70,700,bloc_loop.csv,2023-06-12_18h05.40.105,PainUncertainty,2022.2.5,144.01170527105006,
grave,forte,stimuli/330Hz,stimuli/forte,bloc_5,prob20hthp_12trials.xlsx,2,24,20,80,0,,,,,0,4,4,4,1,0,12,0,,,,,,,,3.5,981.9125776000001,985.4135262,985.4136106600002,0.30498590000024706,985.8615273999994,985.8615273999994,m,0.5802111999996669,987.5231670000003,987.5231670000003,77,1.012,,,sub-023,35,70,700,bloc_loop.csv,2023-06-12_18h05.40.105,PainUncertainty,2022.2.5,144.01170527105006,
aigu,moderee,stimuli/660Hz,stimuli/moderee,bloc_5,prob20hthp_12trials.xlsx,2,24,20,80,0,,,,,0,4,4,4,1,1,13,8,,,,,,,,4.5,987.5231670000003,992.0254509999995,992.02544566,0.30575190000035946,992.4735002999996,992.4735002999996,n,0.49550890000000436,994.4455719999996,994.4455719999996,15,1.406,,,sub-023,35,70,700,bloc_loop.csv,2023-06-12_18h05.40.105,PainUncertainty,2022.2.5,144.01170527105006,
grave,forte,stimuli/330Hz,stimuli/forte,bloc_5,prob20hthp_12trials.xlsx,2,24,20,80,0,,,,,0,4,4,4,1,2,14,1,,,,,,,,3.5,994.4455719999996,997.9497387000001,997.9497373600001,0.30530090000047494,998.3941822999996,998.3941822999996,m,0.5994979000001877,1000.9980747,1000.9980747,77,1.941,,,sub-023,35,70,700,bloc_loop.csv,2023-06-12_18h05.40.105,PainUncertainty,2022.2.5,144.01170527105006,
grave,forte,stimuli/330Hz,stimuli/forte,bloc_5,prob20hthp_12trials.xlsx,2,24,20,80,0,,,,,0,4,4,4,1,3,15,2,,,,,,,,4.5,1000.9980747,1005.4992070999997,1005.4992985599996,0.30127059999995254,1005.9437399999997,1005.9437399999997,m,1.0000910000003387,1008.2877200000003,1008.2877200000003,81,1.289,,,sub-023,35,70,700,bloc_loop.csv,2023-06-12_18h05.40.105,PainUncertainty,2022.2.5,144.01170527105006,
grave,forte,stimuli/330Hz,stimuli/forte,bloc_5,prob20hthp_12trials.xlsx,2,24,20,80,0,,,,,0,4,4,4,1,4,16,4,,,,,,,,4,1008.2877200000003,1012.2917378000002,1012.2917575599998,0.3051660000000993,1012.7358604000001,1012.7358604000001,m,0.684660299999905,1014.5559561999999,1014.5559561999999,76,1.056,,,sub-023,35,70,700,bloc_loop.csv,2023-06-12_18h05.40.105,PainUncertainty,2022.2.5,144.01170527105006,
aigu,moderee,stimuli/660Hz,stimuli/moderee,bloc_5,prob20hthp_12trials.xlsx,2,24,20,80,0,,,,,0,4,4,4,1,5,17,6,,,,,,,,4.8,1014.5559561999999,1019.3554948999999,1019.3553714599997,0.305163399999401,1019.8027069,1019.8027069,n,0.7141658999994434,1022.2134694999995,1022.2134694999995,12,1.615,,,sub-023,35,70,700,bloc_loop.csv,2023-06-12_18h05.40.105,PainUncertainty,2022.2.5,144.01170527105006,
grave,forte,stimuli/330Hz,stimuli/forte,bloc_5,prob20hthp_12trials.xlsx,2,24,20,80,0,,,,,0,4,4,4,1,6,18,3,,,,,,,,3.1,1022.2134694999995,1025.3141663999995,1025.3142275599998,0.30000749999999243,1025.7585497999999,1025.7585497999999,m,0.5907904000000599,1027.9519817999999,1027.9519817999999,83,1.525,,,sub-023,35,70,700,bloc_loop.csv,2023-06-12_18h05.40.105,PainUncertainty,2022.2.5,144.01170527105006,
grave,moderee,stimuli/330Hz,stimuli/moderee,bloc_5,prob20hthp_12trials.xlsx,2,24,20,80,0,,,,,0,4,4,4,1,7,19,5,,,,,,,,3.3,1027.9519817999999,1031.2523531999996,1031.25264586,0.30525030000080733,1031.6997261999995,1031.6997261999995,n,0.5309451999996782,1034.2812007000002,1034.2812007000002,9,1.987,,,sub-023,35,70,700,bloc_loop.csv,2023-06-12_18h05.40.105,PainUncertainty,2022.2.5,144.01170527105006,
aigu,moderee,stimuli/660Hz,stimuli/moderee,bloc_5,prob20hthp_12trials.xlsx,2,24,20,80,0,,,,,0,4,4,4,1,8,20,9,,,,,,,,3.2,1034.2812007000002,1037.4822057000001,1037.4824755599998,0.30483080000067275,1037.9266429999998,1037.9266429999998,n,0.5473176999998941,1040.0675675000002,1040.0675675000002,11,1.538,,,sub-023,35,70,700,bloc_loop.csv,2023-06-12_18h05.40.105,PainUncertainty,2022.2.5,144.01170527105006,
aigu,moderee,stimuli/660Hz,stimuli/moderee,bloc_5,prob20hthp_12trials.xlsx,2,24,20,80,0,,,,,0,4,4,4,1,9,21,7,,,,,,,,4.3,1040.0675675000002,1044.3721926999997,1044.3720237599996,0.30531169999994745,1044.8162260999998,1044.8162260999998,n,0.6031339000005573,1046.8937860999995,1046.8937860999995,9,1.408,,,sub-023,35,70,700,bloc_loop.csv,2023-06-12_18h05.40.105,PainUncertainty,2022.2.5,144.01170527105006,
aigu,forte,stimuli/660Hz,stimuli/forte,bloc_5,prob20hthp_12trials.xlsx,2,24,20,80,0,,,,,0,4,4,4,1,10,22,11,,,,,,,,3.4,1046.8937860999995,1050.2961460999995,1050.2963353600003,0.29911899999933667,1050.7342651,1050.7342651,m,0.4745295999996415,1052.2503819000003,1052.2503819000003,80,0.961,,,sub-023,35,70,700,bloc_loop.csv,2023-06-12_18h05.40.105,PainUncertainty,2022.2.5,144.01170527105006,
aigu,moderee,stimuli/660Hz,stimuli/moderee,bloc_5,prob20hthp_12trials.xlsx,2,24,20,80,0,,,,,0,4,4,4,1,11,23,10,,,,,,,,3.6,1052.2503819000003,1055.8527334,1055.85296676,0.30469190000076196,1056.2966073999996,1056.2966073999996,n,0.49961860000030356,1058.3403065000002,1058.3403065000002,13,1.483,,,sub-023,35,70,700,bloc_loop.csv,2023-06-12_18h05.40.105,PainUncertainty,2022.2.5,144.01170527105006,
aigu,moderee,stimuli/660Hz,stimuli/moderee,bloc_6,prob50_50_4trials.xlsx,2,8,50,50,0,,,,,0,5,5,5,0,0,0,2,,,,,,,,4.4,1058.3403065000002,1062.7422028,1062.74227596,0.3049464999994598,1063.1863373999995,1063.1863373999995,n,0.5515678000006119,1065.5804323000002,1065.5804323000002,11,1.78,,,sub-023,35,70,700,bloc_loop.csv,2023-06-12_18h05.40.105,PainUncertainty,2022.2.5,144.01170527105006,
grave,moderee,stimuli/330Hz,stimuli/moderee,bloc_6,prob50_50_4trials.xlsx,2,8,50,50,0,,,,,0,5,5,5,0,1,1,0,,,,,,,,4.3,1065.5804323000002,1069.8824133999997,1069.88262936,0.3057232000001022,1070.3312281999997,1070.3312281999997,n,0.4893325999996705,1071.6240675,1071.6240675,13,0.719,,,sub-023,35,70,700,bloc_loop.csv,2023-06-12_18h05.40.105,PainUncertainty,2022.2.5,144.01170527105006,
grave,forte,stimuli/330Hz,stimuli/forte,bloc_6,prob50_50_4trials.xlsx,2,8,50,50,0,,,,,0,5,5,5,0,2,2,1,,,,,,,,4.1,1071.6240675,1075.7297755,1075.7298883600001,0.30536639999991166,1076.1739716000002,1076.1739716000002,m,0.477821999999378,1079.2646657999994,1079.2646657999994,68,2.553,,,sub-023,35,70,700,bloc_loop.csv,2023-06-12_18h05.40.105,PainUncertainty,2022.2.5,144.01170527105006,
aigu,forte,stimuli/660Hz,stimuli/forte,bloc_6,prob50_50_4trials.xlsx,2,8,50,50,0,,,,,0,5,5,5,0,3,3,3,,,,,,,,4.4,1079.2646657999994,1083.6682076999996,1083.66830876,0.3049602999999479,1084.1124788999996,1084.1124788999996,m,0.5592926000003899,1085.8034185999995,1085.8034185999995,71,1.061,,,sub-023,35,70,700,bloc_loop.csv,2023-06-12_18h05.40.105,PainUncertainty,2022.2.5,144.01170527105006,
grave,moderee,stimuli/330Hz,stimuli/moderee,bloc_6,prob50_50_4trials.xlsx,2,8,50,50,0,,,,,0,5,5,5,1,0,4,0,,,,,,,,3.9,1085.8034185999995,1089.7036321999994,1089.7037038599997,0.30505640000046697,1090.147903,1090.147903,n,0.41877769999928205,1091.8135921000003,1091.8135921000003,10,1.183,,,sub-023,35,70,700,bloc_loop.csv,2023-06-12_18h05.40.105,PainUncertainty,2022.2.5,144.01170527105006,
aigu,moderee,stimuli/660Hz,stimuli/moderee,bloc_6,prob50_50_4trials.xlsx,2,8,50,50,0,,,,,0,5,5,5,1,1,5,2,,,,,,,,3.4,1091.8135921000003,1095.2185497,1095.2186315599997,0.3049412999998822,1095.6628777999995,1095.6628777999995,n,1.0708415000003697,1098.8299850000003,1098.8299850000003,8,2.025,,,sub-023,35,70,700,bloc_loop.csv,2023-06-12_18h05.40.105,PainUncertainty,2022.2.5,144.01170527105006,
grave,forte,stimuli/330Hz,stimuli/forte,bloc_6,prob50_50_4trials.xlsx,2,8,50,50,0,,,,,0,5,5,5,1,2,6,1,,,,,,,,3.8,1098.8299850000003,1102.628992,1102.62898816,0.300373999999465,1103.0738420999996,1103.0738420999996,m,0.641852000000199,1105.6885062000001,1105.6885062000001,74,1.907,,,sub-023,35,70,700,bloc_loop.csv,2023-06-12_18h05.40.105,PainUncertainty,2022.2.5,144.01170527105006,
aigu,forte,stimuli/660Hz,stimuli/forte,bloc_6,prob50_50_4trials.xlsx,2,8,50,50,0,,,,,0,5,5,5,1,3,7,3,,,,,,,,3.1,1105.6885062000001,1108.7897194999996,1108.7897718600002,0.299997600000097,1109.2342252999997,1109.2342252999997,m,0.5982960999995157,1112.0177470999997,1112.0177470999997,83,2.13,,,sub-023,35,70,700,bloc_loop.csv,2023-06-12_18h05.40.105,PainUncertainty,2022.2.5,144.01170527105006,
aigu,forte,stimuli/660Hz,stimuli/forte,bloc_7,prob80hthp_12trials.xlsx,2,24,80,20,1,,,,,0,6,6,6,0,0,0,7,,,,,,,,3,1112.0177470999997,1115.0192480999995,1115.0193566599996,0.29999690000022383,1115.4643440999998,1115.4643440999998,m,0.4485288999999284,1118.1744050999996,1118.1744050999996,74,2.185,,,sub-023,35,70,700,bloc_loop.csv,2023-06-12_18h05.40.105,PainUncertainty,2022.2.5,144.01170527105006,
grave,moderee,stimuli/330Hz,stimuli/moderee,bloc_7,prob80hthp_12trials.xlsx,2,24,80,20,1,,,,,0,6,6,6,0,1,1,2,,,,,,,,4.9,1118.1744050999996,1123.0756966999998,1123.0761017600003,0.3046323999997185,1123.5199314000001,1123.5199314000001,n,0.5085757000001649,1125.5912106999995,1125.5912106999995,8,1.491,,,sub-023,35,70,700,bloc_loop.csv,2023-06-12_18h05.40.105,PainUncertainty,2022.2.5,144.01170527105006,
grave,forte,stimuli/330Hz,stimuli/forte,bloc_7,prob80hthp_12trials.xlsx,2,24,80,20,1,,,,,0,6,6,6,0,2,2,5,,,,,,,,4.3,1125.5912106999995,1129.8964028,1129.8966353600003,0.2990368999999191,1130.3371201999998,1130.3371201999998,m,0.5491415999999845,1132.7680829,1132.7680829,78,1.777,,,sub-023,35,70,700,bloc_loop.csv,2023-06-12_18h05.40.105,PainUncertainty,2022.2.5,144.01170527105006,
aigu,forte,stimuli/660Hz,stimuli/forte,bloc_7,prob80hthp_12trials.xlsx,2,24,80,20,1,,,,,0,6,6,6,0,3,3,9,,,,,,,,4.2,1132.7680829,1136.9736299999995,1136.9736942599998,0.304949299999862,1137.4201308000002,1137.4201308000002,m,0.5234795000001213,1138.7132629999996,1138.7132629999996,70,0.691,,,sub-023,35,70,700,bloc_loop.csv,2023-06-12_18h05.40.105,PainUncertainty,2022.2.5,144.01170527105006,
grave,moderee,stimuli/330Hz,stimuli/moderee,bloc_7,prob80hthp_12trials.xlsx,2,24,80,20,1,,,,,0,6,6,6,0,4,4,1,,,,,,,,3.2,1138.7132629999996,1141.9185478,1141.9185683600003,0.30480200000056357,1142.3624701999997,1142.3624701999997,n,0.483303600000454,1144.5805322999995,1144.5805322999995,9,1.67,,,sub-023,35,70,700,bloc_loop.csv,2023-06-12_18h05.40.105,PainUncertainty,2022.2.5,144.01170527105006,
aigu,moderee,stimuli/660Hz,stimuli/moderee,bloc_7,prob80hthp_12trials.xlsx,2,24,80,20,1,,,,,0,6,6,6,0,5,5,11,,,,,,,,4.2,1144.5805322999995,1148.7801893999995,1148.7802347599995,0.29914749999989,1149.2223699999995,1149.2223699999995,n,0.5613049999997202,1151.1029485999998,1151.1029485999998,11,1.248,,,sub-023,35,70,700,bloc_loop.csv,2023-06-12_18h05.40.105,PainUncertainty,2022.2.5,144.01170527105006,
grave,moderee,stimuli/330Hz,stimuli/moderee,bloc_7,prob80hthp_12trials.xlsx,2,24,80,20,1,,,,,0,6,6,6,0,6,6,0,,,,,,,,3.4,1151.1029485999998,1154.5030082000003,1154.50301266,0.3051648999999088,1154.9474542999997,1154.9474542999997,n,0.4178426000003128,1156.9387723,1156.9387723,15,1.496,,,sub-023,35,70,700,bloc_loop.csv,2023-06-12_18h05.40.105,PainUncertainty,2022.2.5,144.01170527105006,
aigu,forte,stimuli/660Hz,stimuli/forte,bloc_7,prob80hthp_12trials.xlsx,2,24,80,20,1,,,,,0,6,6,6,0,7,7,10,,,,,,,,3.7,1156.9387723,1160.6426701,1160.64282916,0.3052821999999651,1161.0910379999996,1161.0910379999996,m,0.4936890999993011,1162.7395553999995,1162.7395553999995,69,1.087,,,sub-023,35,70,700,bloc_loop.csv,2023-06-12_18h05.40.105,PainUncertainty,2022.2.5,144.01170527105006,
grave,moderee,stimuli/330Hz,stimuli/moderee,bloc_7,prob80hthp_12trials.xlsx,2,24,80,20,1,,,,,0,6,6,6,0,8,8,3,,,,,,,,4.4,1162.7395553999995,1167.1434358999995,1167.1436816600003,0.30488509999941016,1167.5876794999995,1167.5876794999995,n,0.5497897999998713,1170.5250260000003,1170.5250260000003,13,2.331,,,sub-023,35,70,700,bloc_loop.csv,2023-06-12_18h05.40.105,PainUncertainty,2022.2.5,144.01170527105006,
grave,moderee,stimuli/330Hz,stimuli/moderee,bloc_7,prob80hthp_12trials.xlsx,2,24,80,20,1,,,,,0,6,6,6,0,9,9,4,,,,,,,,4.3,1170.5250260000003,1174.8249418999994,1174.8248427599997,0.3057096000002275,1175.2725652999998,1175.2725652999998,n,0.46014679999962027,1176.8387529000001,1176.8387529000001,10,1.032,,,sub-023,35,70,700,bloc_loop.csv,2023-06-12_18h05.40.105,PainUncertainty,2022.2.5,144.01170527105006,
aigu,forte,stimuli/660Hz,stimuli/forte,bloc_7,prob80hthp_12trials.xlsx,2,24,80,20,1,,,,,0,6,6,6,0,10,10,6,,,,,,,,3.7,1176.8387529000001,1180.5408050999995,1180.5409230600003,0.30502789999991364,1180.9851411999998,1180.9851411999998,m,0.50550499999963,1182.7388315999997,1182.7388315999997,78,1.191,,,sub-023,35,70,700,bloc_loop.csv,2023-06-12_18h05.40.105,PainUncertainty,2022.2.5,144.01170527105006,
aigu,forte,stimuli/660Hz,stimuli/forte,bloc_7,prob80hthp_12trials.xlsx,2,24,80,20,1,,,,,0,6,6,6,0,11,11,8,,,,,,,,4.3,1182.7388315999997,1187.0416335,1187.0417330599998,0.30493680000017775,1187.4857482999996,1187.4857482999996,m,0.4793410999996013,1189.3253200999998,1189.3253200999998,80,1.288,,,sub-023,35,70,700,bloc_loop.csv,2023-06-12_18h05.40.105,PainUncertainty,2022.2.5,144.01170527105006,
grave,moderee,stimuli/330Hz,stimuli/moderee,bloc_7,prob80hthp_12trials.xlsx,2,24,80,20,1,,,,,0,6,6,6,1,0,12,3,,,,,,,,4.9,1189.3253200999998,1194.2305283999995,1194.2308049600001,0.30455150000034337,1194.674758,1194.674758,n,0.43287800000007337,1196.3436659,1196.3436659,11,1.163,,,sub-023,35,70,700,bloc_loop.csv,2023-06-12_18h05.40.105,PainUncertainty,2022.2.5,144.01170527105006,
aigu,forte,stimuli/660Hz,stimuli/forte,bloc_7,prob80hthp_12trials.xlsx,2,24,80,20,1,,,,,0,6,6,6,1,1,13,8,,,,,,,,4,1196.3436659,1200.3494974999994,1200.34957626,0.29973750000044674,1200.7935742,1200.7935742,m,0.5048294999992322,1202.8166578,1202.8166578,81,1.449,,,sub-023,35,70,700,bloc_loop.csv,2023-06-12_18h05.40.105,PainUncertainty,2022.2.5,144.01170527105006,
grave,moderee,stimuli/330Hz,stimuli/moderee,bloc_7,prob80hthp_12trials.xlsx,2,24,80,20,1,,,,,0,6,6,6,1,2,14,2,,,,,,,,3.4,1202.8166578,1206.2177118,1206.2177426599997,0.3049277999998594,1206.6638984,1206.6638984,n,0.42098180000039065,1209.4353587999994,1209.4353587999994,9,2.281,,,sub-023,35,70,700,bloc_loop.csv,2023-06-12_18h05.40.105,PainUncertainty,2022.2.5,144.01170527105006,
aigu,forte,stimuli/660Hz,stimuli/forte,bloc_7,prob80hthp_12trials.xlsx,2,24,80,20,1,,,,,0,6,6,6,1,3,15,9,,,,,,,,4.7,1209.4353587999994,1214.1351188999997,1214.13523776,0.3050880999999208,1214.5795859,1214.5795859,m,0.6602232999998705,1216.4511898,1216.4511898,66,1.162,,,sub-023,35,70,700,bloc_loop.csv,2023-06-12_18h05.40.105,PainUncertainty,2022.2.5,144.01170527105006,
grave,forte,stimuli/330Hz,stimuli/forte,bloc_7,prob80hthp_12trials.xlsx,2,24,80,20,1,,,,,0,6,6,6,1,4,16,5,,,,,,,,4,1216.4511898,1220.4552819,1220.4555163600003,0.3049797000003309,1220.8996545999998,1220.8996545999998,m,0.5872174999999515,1222.5594918999996,1222.5594918999996,80,0.996,,,sub-023,35,70,700,bloc_loop.csv,2023-06-12_18h05.40.105,PainUncertainty,2022.2.5,144.01170527105006,
grave,moderee,stimuli/330Hz,stimuli/moderee,bloc_7,prob80hthp_12trials.xlsx,2,24,80,20,1,,,,,0,6,6,6,1,5,17,4,,,,,,,,3.1,1222.5594918999996,1225.6648317999998,1225.6648239600004,0.30499130000043806,1226.1126556,1226.1126556,n,0.5048369000001003,1227.9452888999995,1227.9452888999995,13,1.26,,,sub-023,35,70,700,bloc_loop.csv,2023-06-12_18h05.40.105,PainUncertainty,2022.2.5,144.01170527105006,
grave,moderee,stimuli/330Hz,stimuli/moderee,bloc_7,prob80hthp_12trials.xlsx,2,24,80,20,1,,,,,0,6,6,6,1,6,18,1,,,,,,,,4.2,1227.9452888999995,1232.1511708999997,1232.1512450599998,0.30518599999959406,1232.5956341,1232.5956341,n,0.49294940000027054,1235.1234167000002,1235.1234167000002,18,1.969,,,sub-023,35,70,700,bloc_loop.csv,2023-06-12_18h05.40.105,PainUncertainty,2022.2.5,144.01170527105006,
aigu,forte,stimuli/660Hz,stimuli/forte,bloc_7,prob80hthp_12trials.xlsx,2,24,80,20,1,,,,,0,6,6,6,1,7,19,7,,,,,,,,4.2,1235.1234167000002,1239.3257045,1239.3257753599996,0.3014266000000134,1239.7703867999999,1239.7703867999999,m,0.6162194999992607,1241.7733239999998,1241.7733239999998,74,1.308,,,sub-023,35,70,700,bloc_loop.csv,2023-06-12_18h05.40.105,PainUncertainty,2022.2.5,144.01170527105006,
aigu,moderee,stimuli/660Hz,stimuli/moderee,bloc_7,prob80hthp_12trials.xlsx,2,24,80,20,1,,,,,0,6,6,6,1,8,20,11,,,,,,,,4.1,1241.7733239999998,1245.8750111,1245.87516826,0.3052753000001758,1246.3192306,1246.3192306,n,0.5578295000000253,1249.6394250000003,1249.6394250000003,8,2.68,,,sub-023,35,70,700,bloc_loop.csv,2023-06-12_18h05.40.105,PainUncertainty,2022.2.5,144.01170527105006,
aigu,forte,stimuli/660Hz,stimuli/forte,bloc_7,prob80hthp_12trials.xlsx,2,24,80,20,1,,,,,0,6,6,6,1,9,21,10,,,,,,,,5,1249.6394250000003,1254.6399362000002,1254.6400140600003,0.3051304999999047,1255.0912674,1255.0912674,m,0.7042159000006905,1257.9976784,1257.9976784,78,2.142,,,sub-023,35,70,700,bloc_loop.csv,2023-06-12_18h05.40.105,PainUncertainty,2022.2.5,144.01170527105006,
aigu,forte,stimuli/660Hz,stimuli/forte,bloc_7,prob80hthp_12trials.xlsx,2,24,80,20,1,,,,,0,6,6,6,1,10,22,6,,,,,,,,4.6,1257.9976784,1262.5992182,1262.5992413600002,0.3051357000003918,1263.0433493,1263.0433493,m,1.0137226000001647,1265.7534365000001,1265.7534365000001,66,1.614,,,sub-023,35,70,700,bloc_loop.csv,2023-06-12_18h05.40.105,PainUncertainty,2022.2.5,144.01170527105006,
grave,moderee,stimuli/330Hz,stimuli/moderee,bloc_7,prob80hthp_12trials.xlsx,2,24,80,20,1,,,,,0,6,6,6,1,11,23,0,,,,,,,,4.7,1265.7534365000001,1270.4542283,1270.4542844599996,0.3054443999999421,1270.9058458,1270.9058458,n,0.6204243999995924,1275.7780377,1275.7780377,15,2.22,,,sub-023,35,70,700,bloc_loop.csv,2023-06-12_18h05.40.105,PainUncertainty,2022.2.5,144.01170527105006,
,,,,bloc_7,prob80hthp_12trials.xlsx,2,24,80,20,1,,,,,0,6,6,6,,,,,0,0,0,0,,,,,,,,,,,,,,,,,1275.7780377,1291.6372822000003,sub-023,35,70,700,bloc_loop.csv,2023-06-12_18h05.40.105,PainUncertainty,2022.2.5,144.01170527105006,
grave,moderee,stimuli/330Hz,stimuli/moderee,bloc_8,prob50_50_4trials.xlsx,3,12,50,50,0,,,,,0,7,7,7,0,0,0,0,,,,,,,,3.3,1292.8638524999997,1296.1657403999998,1296.16584586,0.304911400000492,1296.6099116999994,1296.6099116999994,n,0.582389200000307,1299.1624296,1299.1624296,13,1.893,,,sub-023,35,70,700,bloc_loop.csv,2023-06-12_18h05.40.105,PainUncertainty,2022.2.5,144.01170527105006,
aigu,forte,stimuli/660Hz,stimuli/forte,bloc_8,prob50_50_4trials.xlsx,3,12,50,50,0,,,,,0,7,7,7,0,1,1,3,,,,,,,,3.1,1299.1624296,1302.2637041999997,1302.26380346,0.3050231999995958,1302.7103655,1302.7103655,m,0.4612654999996266,1304.9002963000003,1304.9002963000003,69,1.657,,,sub-023,35,70,700,bloc_loop.csv,2023-06-12_18h05.40.105,PainUncertainty,2022.2.5,144.01170527105006,
aigu,moderee,stimuli/660Hz,stimuli/moderee,bloc_8,prob50_50_4trials.xlsx,3,12,50,50,0,,,,,0,7,7,7,0,2,2,2,,,,,,,,4.8,1304.9002963000003,1309.7021296000003,1309.70215426,0.3052951999998186,1310.1466966999997,1310.1466966999997,n,0.5361970999997538,1312.397035,1312.397035,9,1.629,,,sub-023,35,70,700,bloc_loop.csv,2023-06-12_18h05.40.105,PainUncertainty,2022.2.5,144.01170527105006,
grave,forte,stimuli/330Hz,stimuli/forte,bloc_8,prob50_50_4trials.xlsx,3,12,50,50,0,,,,,0,7,7,7,0,3,3,1,,,,,,,,3,1312.397035,1315.3973174000002,1315.3973434599998,0.3048855999995794,1315.8417656000001,1315.8417656000001,m,0.5617035999998734,1317.3509242999999,1317.3509242999999,72,0.893,,,sub-023,35,70,700,bloc_loop.csv,2023-06-12_18h05.40.105,PainUncertainty,2022.2.5,144.01170527105006,
grave,forte,stimuli/330Hz,stimuli/forte,bloc_8,prob50_50_4trials.xlsx,3,12,50,50,0,,,,,0,7,7,7,1,0,4,1,,,,,,,,3.2,1317.3509242999999,1320.5510027,1320.55100386,0.3047867999994196,1320.9947854000002,1320.9947854000002,m,0.7567383000000518,1323.489243,1323.489243,75,1.684,,,sub-023,35,70,700,bloc_loop.csv,2023-06-12_18h05.40.105,PainUncertainty,2022.2.5,144.01170527105006,
aigu,forte,stimuli/660Hz,stimuli/forte,bloc_8,prob50_50_4trials.xlsx,3,12,50,50,0,,,,,0,7,7,7,1,1,5,3,,,,,,,,4.3,1323.489243,1327.7945690999995,1327.7946204599998,0.3050549999998111,1328.2388009999995,1328.2388009999995,m,0.5022551999995812,1329.4701415,1329.4701415,80,0.649,,,sub-023,35,70,700,bloc_loop.csv,2023-06-12_18h05.40.105,PainUncertainty,2022.2.5,144.01170527105006,
aigu,moderee,stimuli/660Hz,stimuli/moderee,bloc_8,prob50_50_4trials.xlsx,3,12,50,50,0,,,,,0,7,7,7,1,2,6,2,,,,,,,,4,1329.4701415,1333.4758899999997,1333.47596836,0.29919969999991736,1333.9183783999997,1333.9183783999997,n,0.5643283000003976,1336.1178588000002,1336.1178588000002,9,1.573,,,sub-023,35,70,700,bloc_loop.csv,2023-06-12_18h05.40.105,PainUncertainty,2022.2.5,144.01170527105006,
grave,moderee,stimuli/330Hz,stimuli/moderee,bloc_8,prob50_50_4trials.xlsx,3,12,50,50,0,,,,,0,7,7,7,1,3,7,0,,,,,,,,3.7,1336.1178588000002,1339.8168430999995,1339.8169939599998,0.3048610000005283,1340.2613386000003,1340.2613386000003,n,0.5172895999999128,1342.5445379000003,1342.5445379000003,16,1.685,,,sub-023,35,70,700,bloc_loop.csv,2023-06-12_18h05.40.105,PainUncertainty,2022.2.5,144.01170527105006,
aigu,forte,stimuli/660Hz,stimuli/forte,bloc_8,prob50_50_4trials.xlsx,3,12,50,50,0,,,,,0,7,7,7,2,0,8,3,,,,,,,,3.9,1342.5445379000003,1346.4494974999998,1346.4495787600003,0.30511310000019876,1346.8942459999998,1346.8942459999998,m,0.702185599999666,1349.7051222,1349.7051222,71,2.05,,,sub-023,35,70,700,bloc_loop.csv,2023-06-12_18h05.40.105,PainUncertainty,2022.2.5,144.01170527105006,
grave,forte,stimuli/330Hz,stimuli/forte,bloc_8,prob50_50_4trials.xlsx,3,12,50,50,0,,,,,0,7,7,7,2,1,9,1,,,,,,,,4.2,1349.7051222,1353.9087125999995,1353.9087609599997,0.3055287999995926,1354.3575128000002,1354.3575128000002,m,0.5820271999996294,1356.2765865000001,1356.2765865000001,86,1.255,,,sub-023,35,70,700,bloc_loop.csv,2023-06-12_18h05.40.105,PainUncertainty,2022.2.5,144.01170527105006,
aigu,moderee,stimuli/660Hz,stimuli/moderee,bloc_8,prob50_50_4trials.xlsx,3,12,50,50,0,,,,,0,7,7,7,2,2,10,2,,,,,,,,5,1356.2765865000001,1361.2803819,1361.2780447600003,0.3052418999996007,1361.7254662999994,1361.7254662999994,n,0.4739064000000326,1364.2845335000002,1364.2845335000002,12,2.032,,,sub-023,35,70,700,bloc_loop.csv,2023-06-12_18h05.40.105,PainUncertainty,2022.2.5,144.01170527105006,
grave,moderee,stimuli/330Hz,stimuli/moderee,bloc_8,prob50_50_4trials.xlsx,3,12,50,50,0,,,,,0,7,7,7,2,3,11,0,,,,,,,,4.7,1364.2845335000002,1368.9872158999997,1368.98721996,0.3048441000000821,1369.4312487999996,1369.4312487999996,n,0.5120856999997159,1371.5252576000003,1371.5252576000003,12,1.518,,,sub-023,35,70,700,bloc_loop.csv,2023-06-12_18h05.40.105,PainUncertainty,2022.2.5,144.01170527105006,
aigu,moderee,stimuli/660Hz,stimuli/moderee,bloc_9,prob20hthp_12trials.xlsx,3,36,80,20,0,,,,,0,8,8,8,0,0,0,9,,,,,,,,3.2,1371.5252576000003,1374.7307811,1374.7307591599997,0.3048207000001639,1375.175687,1375.175687,n,0.5166009999998096,1377.1203163,1377.1203163,12,1.352,,,sub-023,35,70,700,bloc_loop.csv,2023-06-12_18h05.40.105,PainUncertainty,2022.2.5,144.01170527105006,
grave,forte,stimuli/330Hz,stimuli/forte,bloc_9,prob20hthp_12trials.xlsx,3,36,80,20,0,,,,,0,8,8,8,0,1,1,1,,,,,,,,3.4,1377.1203163,1380.5229985999995,1380.5229537600003,0.3055477999996583,1380.9714426,1380.9714426,m,0.7189008999998805,1383.0038795,1383.0038795,75,1.246,,,sub-023,35,70,700,bloc_loop.csv,2023-06-12_18h05.40.105,PainUncertainty,2022.2.5,144.01170527105006,
aigu,moderee,stimuli/660Hz,stimuli/moderee,bloc_9,prob20hthp_12trials.xlsx,3,36,80,20,0,,,,,0,8,8,8,0,2,2,6,,,,,,,,5,1383.0038795,1388.003439,1388.0037773600002,0.3045834999993531,1388.4544882999999,1388.4544882999999,n,0.4804696000005606,1390.2780739,1390.2780739,16,1.268,,,sub-023,35,70,700,bloc_loop.csv,2023-06-12_18h05.40.105,PainUncertainty,2022.2.5,144.01170527105006,
aigu,forte,stimuli/660Hz,stimuli/forte,bloc_9,prob20hthp_12trials.xlsx,3,36,80,20,0,,,,,0,8,8,8,0,3,3,11,,,,,,,,3.8,1390.2780739,1394.0801186999997,1394.0801183600001,0.3053413999996337,1394.5246723,1394.5246723,m,0.5648553999994874,1397.7749640000002,1397.7749640000002,70,2.608,,,sub-023,35,70,700,bloc_loop.csv,2023-06-12_18h05.40.105,PainUncertainty,2022.2.5,144.01170527105006,
aigu,moderee,stimuli/660Hz,stimuli/moderee,bloc_9,prob20hthp_12trials.xlsx,3,36,80,20,0,,,,,0,8,8,8,0,4,4,7,,,,,,,,3.5,1397.7749640000002,1401.2760687999998,1401.2760413600004,0.3046198000001823,1401.7197760999998,1401.7197760999998,n,0.49404220000042187,1404.9041154999995,1404.9041154999995,14,2.599,,,sub-023,35,70,700,bloc_loop.csv,2023-06-12_18h05.40.105,PainUncertainty,2022.2.5,144.01170527105006,
grave,forte,stimuli/330Hz,stimuli/forte,bloc_9,prob20hthp_12trials.xlsx,3,36,80,20,0,,,,,0,8,8,8,0,5,5,2,,,,,,,,4.3,1404.9041154999995,1409.2082048000002,1409.2075400600002,0.30100690000017494,1409.6519134,1409.6519134,m,0.5707294000008005,1413.0874042999994,1413.0874042999994,80,2.802,,,sub-023,35,70,700,bloc_loop.csv,2023-06-12_18h05.40.105,PainUncertainty,2022.2.5,144.01170527105006,
grave,forte,stimuli/330Hz,stimuli/forte,bloc_9,prob20hthp_12trials.xlsx,3,36,80,20,0,,,,,0,8,8,8,0,6,6,4,,,,,,,,4.9,1413.0874042999994,1417.9928080999998,1417.9928117599998,0.3050633000002563,1418.4370321999995,1418.4370321999995,m,0.6240108999995755,1421.0495647999996,1421.0495647999996,74,1.913,,,sub-023,35,70,700,bloc_loop.csv,2023-06-12_18h05.40.105,PainUncertainty,2022.2.5,144.01170527105006,
grave,moderee,stimuli/330Hz,stimuli/moderee,bloc_9,prob20hthp_12trials.xlsx,3,36,80,20,0,,,,,0,8,8,8,0,7,7,5,,,,,,,,5,1421.0495647999996,1426.0491905,1426.0492718600003,0.3049530999996932,1426.4933685999995,1426.4933685999995,n,0.5137048000001414,1427.9877537000002,1427.9877537000002,10,0.9,,,sub-023,35,70,700,bloc_loop.csv,2023-06-12_18h05.40.105,PainUncertainty,2022.2.5,144.01170527105006,
grave,forte,stimuli/330Hz,stimuli/forte,bloc_9,prob20hthp_12trials.xlsx,3,36,80,20,0,,,,,0,8,8,8,0,8,8,3,,,,,,,,4.3,1427.9877537000002,1432.2929605,1432.2930622600002,0.3054025000001275,1432.7412014000001,1432.7412014000001,m,0.6252186999995502,1435.2920292999997,1435.2920292999997,77,1.843,,,sub-023,35,70,700,bloc_loop.csv,2023-06-12_18h05.40.105,PainUncertainty,2022.2.5,144.01170527105006,
aigu,moderee,stimuli/660Hz,stimuli/moderee,bloc_9,prob20hthp_12trials.xlsx,3,36,80,20,0,,,,,0,8,8,8,0,9,9,10,,,,,,,,4.5,1435.2920292999997,1439.7939889999998,1439.7939355599997,0.3049740999995265,1440.2383210999997,1440.2383210999997,n,0.5281891000008727,1442.916279,1442.916279,12,2.094,,,sub-023,35,70,700,bloc_loop.csv,2023-06-12_18h05.40.105,PainUncertainty,2022.2.5,144.01170527105006,
aigu,moderee,stimuli/660Hz,stimuli/moderee,bloc_9,prob20hthp_12trials.xlsx,3,36,80,20,0,,,,,0,8,8,8,0,10,10,8,,,,,,,,4.3,1442.916279,1447.2186204999998,1447.2186278599997,0.30493569999998726,1447.6625892000002,1447.6625892000002,n,0.5133653999996568,1450.4628744000001,1450.4628744000001,13,2.221,,,sub-023,35,70,700,bloc_loop.csv,2023-06-12_18h05.40.105,PainUncertainty,2022.2.5,144.01170527105006,
grave,forte,stimuli/330Hz,stimuli/forte,bloc_9,prob20hthp_12trials.xlsx,3,36,80,20,0,,,,,0,8,8,8,0,11,11,0,,,,,,,,3.4,1450.4628744000001,1453.8651123,1453.8651985599995,0.3055370000001858,1454.3139171000003,1454.3139171000003,m,0.6427176000001964,1457.8466184,1457.8466184,77,2.824,,,sub-023,35,70,700,bloc_loop.csv,2023-06-12_18h05.40.105,PainUncertainty,2022.2.5,144.01170527105006,
grave,forte,stimuli/330Hz,stimuli/forte,bloc_9,prob20hthp_12trials.xlsx,3,36,80,20,0,,,,,0,8,8,8,1,0,12,3,,,,,,,,3.6,1457.8466184,1461.4495721000003,1461.4496112599995,0.30508069999996223,1461.8980315,1461.8980315,m,1.7333644999994249,1465.0106553999995,1465.0106553999995,62,1.295,,,sub-023,35,70,700,bloc_loop.csv,2023-06-12_18h05.40.105,PainUncertainty,2022.2.5,144.01170527105006,
aigu,moderee,stimuli/660Hz,stimuli/moderee,bloc_9,prob20hthp_12trials.xlsx,3,36,80,20,0,,,,,0,8,8,8,1,1,13,9,,,,,,,,4.5,1465.0106553999995,1469.5127664000001,1469.5127847600002,0.3051010999997743,1469.9573875999995,1469.9573875999995,n,0.5856097000000773,1472.3149176999996,1472.3149176999996,13,1.691,,,sub-023,35,70,700,bloc_loop.csv,2023-06-12_18h05.40.105,PainUncertainty,2022.2.5,144.01170527105006,
grave,forte,stimuli/330Hz,stimuli/forte,bloc_9,prob20hthp_12trials.xlsx,3,36,80,20,0,,,,,0,8,8,8,1,2,14,4,,,,,,,,5,1472.3149176999996,1477.31948,1477.3195552599996,0.3049258999999438,1477.7633628000003,1477.7633628000003,m,0.5758048000002418,1480.1803166999998,1480.1803166999998,75,1.76,,,sub-023,35,70,700,bloc_loop.csv,2023-06-12_18h05.40.105,PainUncertainty,2022.2.5,144.01170527105006,
aigu,moderee,stimuli/660Hz,stimuli/moderee,bloc_9,prob20hthp_12trials.xlsx,3,36,80,20,0,,,,,0,8,8,8,1,3,15,8,,,,,,,,4.9,1480.1803166999998,1485.0846172000001,1485.08440836,0.30516309999984514,1485.5320683,1485.5320683,n,0.4992544000001544,1487.1331062,1487.1331062,14,1.025,,,sub-023,35,70,700,bloc_loop.csv,2023-06-12_18h05.40.105,PainUncertainty,2022.2.5,144.01170527105006,
grave,forte,stimuli/330Hz,stimuli/forte,bloc_9,prob20hthp_12trials.xlsx,3,36,80,20,0,,,,,0,8,8,8,1,4,16,2,,,,,,,,4.2,1487.1331062,1491.3351878000003,1491.3351778599995,0.30527150000034453,1491.7829472000003,1491.7829472000003,m,0.5601030000002538,1493.8309985999995,1493.8309985999995,68,1.413,,,sub-023,35,70,700,bloc_loop.csv,2023-06-12_18h05.40.105,PainUncertainty,2022.2.5,144.01170527105006,
aigu,moderee,stimuli/660Hz,stimuli/moderee,bloc_9,prob20hthp_12trials.xlsx,3,36,80,20,0,,,,,0,8,8,8,1,5,17,7,,,,,,,,4.2,1493.8309985999995,1498.0299875,1498.0303699600004,0.30474799999956304,1498.4742041,1498.4742041,n,0.40836559999979727,1500.0167903000001,1500.0167903000001,16,1.073,,,sub-023,35,70,700,bloc_loop.csv,2023-06-12_18h05.40.105,PainUncertainty,2022.2.5,144.01170527105006,
grave,moderee,stimuli/330Hz,stimuli/moderee,bloc_9,prob20hthp_12trials.xlsx,3,36,80,20,0,,,,,0,8,8,8,1,6,18,5,,,,,,,,4,1500.0167903000001,1504.0168575999996,1504.0169256599997,0.30497079999986454,1504.4614824999999,1504.4614824999999,n,0.5279024999995272,1506.5085099999997,1506.5085099999997,14,1.456,,,sub-023,35,70,700,bloc_loop.csv,2023-06-12_18h05.40.105,PainUncertainty,2022.2.5,144.01170527105006,
aigu,moderee,stimuli/660Hz,stimuli/moderee,bloc_9,prob20hthp_12trials.xlsx,3,36,80,20,0,,,,,0,8,8,8,1,7,19,10,,,,,,,,3.4,1506.5085099999997,1509.9132712,1509.9133431599998,0.3052182999999786,1510.360267,1510.360267,n,0.38084269999990283,1512.5183736999998,1512.5183736999998,12,1.698,,,sub-023,35,70,700,bloc_loop.csv,2023-06-12_18h05.40.105,PainUncertainty,2022.2.5,144.01170527105006,
grave,forte,stimuli/330Hz,stimuli/forte,bloc_9,prob20hthp_12trials.xlsx,3,36,80,20,0,,,,,0,8,8,8,1,8,20,0,,,,,,,,3.7,1512.5183736999998,1516.2197428,1516.21983916,0.30490869999994175,1516.6683790999996,1516.6683790999996,m,0.5820968000002722,1518.2715397000002,1518.2715397000002,70,0.955,,,sub-023,35,70,700,bloc_loop.csv,2023-06-12_18h05.40.105,PainUncertainty,2022.2.5,144.01170527105006,
aigu,forte,stimuli/660Hz,stimuli/forte,bloc_9,prob20hthp_12trials.xlsx,3,36,80,20,0,,,,,0,8,8,8,1,9,21,11,,,,,,,,4.6,1518.2715397000002,1522.8732892999997,1522.8734489599997,0.30487430000084714,1523.3173274,1523.3173274,m,0.5806416000000354,1525.8021616999995,1525.8021616999995,72,1.824,,,sub-023,35,70,700,bloc_loop.csv,2023-06-12_18h05.40.105,PainUncertainty,2022.2.5,144.01170527105006,
aigu,moderee,stimuli/660Hz,stimuli/moderee,bloc_9,prob20hthp_12trials.xlsx,3,36,80,20,0,,,,,0,8,8,8,1,10,22,6,,,,,,,,3.6,1525.8021616999995,1529.4017758999998,1529.4018774600004,0.30518750000010186,1529.8463357,1529.8463357,n,0.4873830999999882,1531.5883040999997,1531.5883040999997,16,1.184,,,sub-023,35,70,700,bloc_loop.csv,2023-06-12_18h05.40.105,PainUncertainty,2022.2.5,144.01170527105006,
grave,forte,stimuli/330Hz,stimuli/forte,bloc_9,prob20hthp_12trials.xlsx,3,36,80,20,0,,,,,0,8,8,8,1,11,23,1,,,,,,,,3.5,1531.5883040999997,1535.0899315999995,1535.08994236,0.30518149999988964,1535.5392371999997,1535.5392371999997,m,1.0174299999994219,1537.6945747,1537.6945747,80,1.057,,,sub-023,35,70,700,bloc_loop.csv,2023-06-12_18h05.40.105,PainUncertainty,2022.2.5,144.01170527105006,
aigu,moderee,stimuli/660Hz,stimuli/moderee,bloc_9,prob20hthp_12trials.xlsx,3,36,80,20,0,,,,,0,8,8,8,2,0,24,6,,,,,,,,3.6,1537.6945747,1541.2989969,1541.29908716,0.30502179999984946,1541.7432149999995,1541.7432149999995,n,0.3756669999997939,1543.3851901999997,1543.3851901999997,14,1.203,,,sub-023,35,70,700,bloc_loop.csv,2023-06-12_18h05.40.105,PainUncertainty,2022.2.5,144.01170527105006,
grave,moderee,stimuli/330Hz,stimuli/moderee,bloc_9,prob20hthp_12trials.xlsx,3,36,80,20,0,,,,,0,8,8,8,2,1,25,5,,,,,,,,3.1,1543.3851901999997,1546.487505,1546.48761376,0.30465389999972103,1546.9318817000003,1546.9318817000003,n,0.5395142000002124,1550.1181292,1550.1181292,11,2.567,,,sub-023,35,70,700,bloc_loop.csv,2023-06-12_18h05.40.105,PainUncertainty,2022.2.5,144.01170527105006,
aigu,forte,stimuli/660Hz,stimuli/forte,bloc_9,prob20hthp_12trials.xlsx,3,36,80,20,0,,,,,0,8,8,8,2,2,26,11,,,,,,,,3,1550.1181292,1553.1199144000002,1553.11996366,0.30523470000025554,1553.5646078999998,1553.5646078999998,m,0.5286031999999068,1555.3596719999996,1555.3596719999996,76,1.185,,,sub-023,35,70,700,bloc_loop.csv,2023-06-12_18h05.40.105,PainUncertainty,2022.2.5,144.01170527105006,
aigu,moderee,stimuli/660Hz,stimuli/moderee,bloc_9,prob20hthp_12trials.xlsx,3,36,80,20,0,,,,,0,8,8,8,2,3,27,7,,,,,,,,4.1,1555.3596719999996,1559.4610357000001,1559.4610859600002,0.30484230000001844,1559.9051727999995,1559.9051727999995,n,0.43166250000058426,1562.1840316999997,1562.1840316999997,17,1.788,,,sub-023,35,70,700,bloc_loop.csv,2023-06-12_18h05.40.105,PainUncertainty,2022.2.5,144.01170527105006,
aigu,moderee,stimuli/660Hz,stimuli/moderee,bloc_9,prob20hthp_12trials.xlsx,3,36,80,20,0,,,,,0,8,8,8,2,4,28,8,,,,,,,,4.7,1562.1840316999997,1566.8855034999997,1566.8857303600003,0.29914240000016434,1567.3262497999995,1567.3262497999995,n,0.4974841000007473,1569.0913635999996,1569.0913635999996,14,1.185,,,sub-023,35,70,700,bloc_loop.csv,2023-06-12_18h05.40.105,PainUncertainty,2022.2.5,144.01170527105006,
grave,forte,stimuli/330Hz,stimuli/forte,bloc_9,prob20hthp_12trials.xlsx,3,36,80,20,0,,,,,0,8,8,8,2,5,29,3,,,,,,,,3.1,1569.0913635999996,1572.1916226000003,1572.19189856,0.3046836000003168,1572.6358966999996,1572.6358966999996,m,0.5823746999999457,1574.6205399,1574.6205399,73,1.34,,,sub-023,35,70,700,bloc_loop.csv,2023-06-12_18h05.40.105,PainUncertainty,2022.2.5,144.01170527105006,
grave,forte,stimuli/330Hz,stimuli/forte,bloc_9,prob20hthp_12trials.xlsx,3,36,80,20,0,,,,,0,8,8,8,2,6,30,2,,,,,,,,3.8,1574.6205399,1578.4216623000002,1578.4217045600003,0.304897300000448,1578.8657886,1578.8657886,m,0.5690526000003047,1580.4738380999997,1580.4738380999997,75,0.963,,,sub-023,35,70,700,bloc_loop.csv,2023-06-12_18h05.40.105,PainUncertainty,2022.2.5,144.01170527105006,
aigu,moderee,stimuli/660Hz,stimuli/moderee,bloc_9,prob20hthp_12trials.xlsx,3,36,80,20,0,,,,,0,8,8,8,2,7,31,10,,,,,,,,3.6,1580.4738380999997,1584.0750073,1584.07506866,0.3054775000000518,1584.5232940999995,1584.5232940999995,n,0.530014299999948,1586.1144753999997,1586.1144753999997,10,0.997,,,sub-023,35,70,700,bloc_loop.csv,2023-06-12_18h05.40.105,PainUncertainty,2022.2.5,144.01170527105006,
grave,forte,stimuli/330Hz,stimuli/forte,bloc_9,prob20hthp_12trials.xlsx,3,36,80,20,0,,,,,0,8,8,8,2,8,32,4,,,,,,,,4.6,1586.1144753999997,1590.7147309000002,1590.7147513599998,0.29967040000065026,1591.159372,1591.159372,m,0.5750123000002532,1592.8294925999999,1592.8294925999999,75,1.032,,,sub-023,35,70,700,bloc_loop.csv,2023-06-12_18h05.40.105,PainUncertainty,2022.2.5,144.01170527105006,
grave,forte,stimuli/330Hz,stimuli/forte,bloc_9,prob20hthp_12trials.xlsx,3,36,80,20,0,,,,,0,8,8,8,2,9,33,1,,,,,,,,4.1,1592.8294925999999,1596.9311230000003,1596.9310668599996,0.30534130000069126,1597.3788312999995,1597.3788312999995,m,0.604689899999812,1599.6858635999997,1599.6858635999997,71,1.642,,,sub-023,35,70,700,bloc_loop.csv,2023-06-12_18h05.40.105,PainUncertainty,2022.2.5,144.01170527105006,
grave,forte,stimuli/330Hz,stimuli/forte,bloc_9,prob20hthp_12trials.xlsx,3,36,80,20,0,,,,,0,8,8,8,2,10,34,0,,,,,,,,4.5,1599.6858635999997,1604.1888534,1604.18875436,0.30518599999959406,1604.6369398999996,1604.6369398999996,m,0.7003934000008485,1608.2718415,1608.2718415,55,2.851,,,sub-023,35,70,700,bloc_loop.csv,2023-06-12_18h05.40.105,PainUncertainty,2022.2.5,144.01170527105006,
aigu,moderee,stimuli/660Hz,stimuli/moderee,bloc_9,prob20hthp_12trials.xlsx,3,36,80,20,0,,,,,0,8,8,8,2,11,35,9,,,,,,,,3.5,1608.2718415,1611.7727451,1611.7728049599996,0.30553340000005846,1612.2216705,1612.2216705,n,0.5477763000003506,1614.1598198000002,1614.1598198000002,16,1.365,,,sub-023,35,70,700,bloc_loop.csv,2023-06-12_18h05.40.105,PainUncertainty,2022.2.5,144.01170527105006,
