series.thisRepN,series.thisTrialN,series.thisN,series.thisIndex,Ramp.thisRepN,Ramp.thisTrialN,Ramp.thisN,Ramp.thisIndex,rand_shocks.thisRepN,rand_shocks.thisTrialN,rand_shocks.thisN,rand_shocks.thisIndex,wait1_dur,intensity,text_7.started,text_12.started,key_resp_8.started,key_resp_8.keys,key_resp_8.rt,text_3.started,text_3.stopped,text_4.started,text_4.stopped,main_text.started,confirm_text.started,rating,ratingScale.response,ratingScale.rt,text_2.started,key_resp_3.started,key_resp_3.keys,key_resp_3.rt,text_9.started,key_resp_7.started,key_resp_7.keys,key_resp_7.rt,main_text_rand.started,confirm_rand.started,scale_wasmoved,rating_rand_.response,rating_rand_.rt,participant,debug,fail_ma,max_ma,nramps,date,expName,psychopyVersion,frameRate,
0,0,0,0,0,0,0,0,,,,,2.2,10,338.90026080000007,338.96195290000014,338.96195290000014,p,2.847486299999673,341.8228554000002,344.02441580000004,344.02441580000004,345.0538987,350.85697740000023,350.85697740000023,7,7,5.805,350.85697740000023,350.85697740000023,y,2.7294239999996535,,,,,,,,,,sub-023,0,750,700,3,2023-06-12_17h52.20.458,painuncertainty_calibration,2022.2.5,144.1609759117173,
0,0,0,0,1,0,1,0,,,,,2.1,20,353.6194787000004,353.69925980000016,353.69925980000016,p,0.5184158999995816,354.2271920000003,356.33191750000015,356.33191750000015,357.3488183000004,364.9207173,364.9207173,20,20,7.572,364.9207173,364.9207173,y,5.240772599999673,,,,,,,,,,sub-023,0,750,700,3,2023-06-12_17h52.20.458,painuncertainty_calibration,2022.2.5,144.1609759117173,
0,0,0,0,2,0,2,0,,,,,2.1,30,370.21194220000007,370.2777648000001,370.2777648000001,p,0.4603668999993715,370.75000320000026,372.85467510000035,372.85467510000035,373.8708435000003,377.40842420000035,377.40842420000035,17,17,3.538,377.40842420000035,377.40842420000035,y,2.954052099999444,,,,,,,,,,sub-023,0,750,700,3,2023-06-12_17h52.20.458,painuncertainty_calibration,2022.2.5,144.1609759117173,
0,0,0,0,3,0,3,0,,,,,2.5,40,380.39378190000025,380.4733996,380.4733996,p,0.5200642999998308,381.0011181,383.50165590000006,383.50165590000006,384.51682100000016,387.6458425000001,387.6458425000001,25,25,3.129,387.6458425000001,387.6458425000001,y,2.796491699999933,,,,,,,,,,sub-023,0,750,700,3,2023-06-12_17h52.20.458,painuncertainty_calibration,2022.2.5,144.1609759117173,
0,0,0,0,4,0,4,0,,,,,2.2,50,390.4807568000001,390.5583931000001,390.5583931000001,p,0.5078567999994448,391.0790757,393.2804788000003,393.2804788000003,394.29856500000005,398.74428920000037,398.74428920000037,40,40,4.447,398.74428920000037,398.74428920000037,y,2.7693256999996265,,,,,,,,,,sub-023,0,750,700,3,2023-06-12_17h52.20.458,painuncertainty_calibration,2022.2.5,144.1609759117173,
0,0,0,0,5,0,5,0,,,,,2.0,60,401.5733074,401.6288158000002,401.6288158000002,p,0.7090029999999388,402.3516144,404.35135990000026,404.35135990000026,405.3690211000003,408.61508030000005,408.61508030000005,60,60,3.247,408.61508030000005,408.61508030000005,y,3.362884099999974,,,,,,,,,,sub-023,0,750,700,3,2023-06-12_17h52.20.458,painuncertainty_calibration,2022.2.5,144.1609759117173,
0,0,0,0,6,0,6,0,,,,,2.2,70,412.0266948000003,412.0954465,412.0954465,p,0.5226536999994096,412.63035690000015,414.8319254000003,414.8319254000003,415.84869400000025,421.75397440000006,421.75397440000006,62,62,5.906,421.75397440000006,421.75397440000006,y,3.3113980999996784,,,,,,,,,,sub-023,0,750,700,3,2023-06-12_17h52.20.458,painuncertainty_calibration,2022.2.5,144.1609759117173,
0,0,0,0,7,0,7,0,,,,,2.0,80,425.10210380000035,425.18021130000034,425.18021130000034,p,0.5896343999997953,425.7773693000004,427.77776570000015,427.77776570000015,428.79335149999997,431.5958440000004,431.5958440000004,77,77,2.803,431.5958440000004,431.5958440000004,n,1.5176562999999987,,,,,,,,,,sub-023,0,750,700,3,2023-06-12_17h52.20.458,painuncertainty_calibration,2022.2.5,144.1609759117173,
0,0,0,0,,,,,,,,,,,,,,,,,,,,,,,,,,,,,,,,,,,,,,sub-023,0,750,700,3,2023-06-12_17h52.20.458,painuncertainty_calibration,2022.2.5,144.1609759117173,
1,0,1,0,0,0,0,0,,,,,2.2,10,444.1869766,444.25209300000006,444.25209300000006,p,0.7812063999995189,445.04364780000014,447.24535170000036,447.24535170000036,448.26165740000033,449.9941160000003,449.9941160000003,0,0,1.733,449.9941160000003,449.9941160000003,y,0.8231749999995372,,,,,,,,,,sub-023,0,750,700,3,2023-06-12_17h52.20.458,painuncertainty_calibration,2022.2.5,144.1609759117173,
1,0,1,0,1,0,1,0,,,,,2.1,20,450.85229070000014,450.9333458000001,450.9333458000001,p,0.34898159999966083,451.2959751000003,453.3989878000002,453.3989878000002,,457.2377974000001,457.2377974000001,6,6,2.821,457.2377974000001,457.2377974000001,y,0.8039106999995056,,,,,,,,,,sub-023,0,750,700,3,2023-06-12_17h52.20.458,painuncertainty_calibration,2022.2.5,144.1609759117173,
1,0,1,0,2,0,2,0,,,,,2.3,30,458.0791214000001,458.1566748,458.1566748,p,0.43665459999965606,458.6008042000003,460.90677330000017,460.90677330000017,461.9224943000004,468.12065870000015,468.12065870000015,8,8,6.2,468.12065870000015,468.12065870000015,y,0.8650169999996251,,,,,,,,,,sub-023,0,750,700,3,2023-06-12_17h52.20.458,painuncertainty_calibration,2022.2.5,144.1609759117173,
1,0,1,0,3,0,3,0,,,,,2.2,40,469.02679130000024,469.10212960000035,469.10212960000035,p,0.3474156999996012,469.45677060000025,471.65817990000005,471.65817990000005,472.67619600000035,474.9412534000003,474.9412534000003,13,13,2.266,474.9412534000003,474.9412534000003,y,1.0529364999997597,,,,,,,,,,sub-023,0,750,700,3,2023-06-12_17h52.20.458,painuncertainty_calibration,2022.2.5,144.1609759117173,
1,0,1,0,4,0,4,0,,,,,2.5,50,476.0604254,476.11042180000004,476.11042180000004,p,0.36339659999975993,476.4852686000004,478.98539040000014,478.98539040000014,480.0016356000001,483.91436420000036,483.91436420000036,25,25,3.914,483.91436420000036,483.91436420000036,y,1.3831458999993629,,,,,,,,,,sub-023,0,750,700,3,2023-06-12_17h52.20.458,painuncertainty_calibration,2022.2.5,144.1609759117173,
1,0,1,0,5,0,5,0,,,,,2.2,60,485.34777490000033,485.4101351000004,485.4101351000004,p,0.38366929999938293,485.8058605000001,488.0071790000002,488.0071790000002,489.0236133000003,492.8200336,492.8200336,39,39,3.796,492.8200336,492.8200336,y,1.126064199999746,,,,,,,,,,sub-023,0,750,700,3,2023-06-12_17h52.20.458,painuncertainty_calibration,2022.2.5,144.1609759117173,
1,0,1,0,6,0,6,0,,,,,2.0,70,493.99429929999997,494.0635865000004,494.0635865000004,p,0.353822499999751,494.4246678000004,496.4252207000004,496.4252207000004,497.4423955000002,499.8955022,499.8955022,61,61,2.454,499.8955022,499.8955022,y,2.138484099999914,,,,,,,,,,sub-023,0,750,700,3,2023-06-12_17h52.20.458,painuncertainty_calibration,2022.2.5,144.1609759117173,
1,0,1,0,7,0,7,0,,,,,2.4,80,502.08355070000016,502.1479010000003,502.1479010000003,p,0.4059239999996862,502.56448309999996,504.96791600000006,504.96791600000006,505.9845102000004,508.7855593000004,508.7855593000004,74,74,2.802,508.7855593000004,508.7855593000004,n,1.24069019999979,,,,,,,,,,sub-023,0,750,700,3,2023-06-12_17h52.20.458,painuncertainty_calibration,2022.2.5,144.1609759117173,
1,0,1,0,,,,,,,,,,,,,,,,,,,,,,,,,,,,,,,,,,,,,,sub-023,0,750,700,3,2023-06-12_17h52.20.458,painuncertainty_calibration,2022.2.5,144.1609759117173,
2,0,2,0,0,0,0,0,,,,,2.2,10,513.0177190000004,513.0940840000003,513.0940840000003,p,1.6916729999998097,514.7951735000001,516.9968474000002,516.9968474000002,518.0129474,520.4690189000003,520.4690189000003,0,0,2.455,520.4690189000003,520.4690189000003,y,2.812693599999875,,,,,,,,,,sub-023,0,750,700,3,2023-06-12_17h52.20.458,painuncertainty_calibration,2022.2.5,144.1609759117173,
2,0,2,0,1,0,1,0,,,,,2.4,20,523.3272407000004,523.3937617000001,523.3937617000001,p,0.3277333999999428,523.7338363000003,526.1369842000004,526.1369842000004,,529.9964072000002,529.9964072000002,9,9,2.845,529.9964072000002,529.9964072000002,y,1.3414335999996183,,,,,,,,,,sub-023,0,750,700,3,2023-06-12_17h52.20.458,painuncertainty_calibration,2022.2.5,144.1609759117173,
2,0,2,0,2,0,2,0,,,,,2.1,30,531.3823407,531.4499906000001,531.4499906000001,p,0.32729799999970055,531.7838361000004,533.8878301,533.8878301,534.9031585000002,537.3513564,537.3513564,11,11,2.449,537.3513564,537.3513564,y,0.9705026999995425,,,,,,,,,,sub-023,0,750,700,3,2023-06-12_17h52.20.458,painuncertainty_calibration,2022.2.5,144.1609759117173,
2,0,2,0,3,0,3,0,,,,,2.3,40,538.3690533000004,538.4375232000002,538.4375232000002,p,0.34002509999982067,538.7846126000004,541.0900443,541.0900443,542.1067179000001,545.6512462000001,545.6512462000001,22,22,3.546,545.6512462000001,545.6512462000001,y,1.0305766999995285,,,,,,,,,,sub-023,0,750,700,3,2023-06-12_17h52.20.458,painuncertainty_calibration,2022.2.5,144.1609759117173,
2,0,2,0,4,0,4,0,,,,,2.1,50,546.7286730000001,546.7999452000004,546.7999452000004,p,0.5295038999997814,547.3407681000003,549.4458707000003,549.4458707000003,550.4612284,555.1948346000004,555.1948346000004,38,38,4.734,555.1948346000004,555.1948346000004,y,0.742792599999575,,,,,,,,,,sub-023,0,750,700,3,2023-06-12_17h52.20.458,painuncertainty_calibration,2022.2.5,144.1609759117173,
2,0,2,0,5,0,5,0,,,,,2.5,60,555.9988034000003,556.0503457,556.0503457,p,0.3915041000000201,556.4537285000001,558.953262,558.953262,559.9684647000004,563.1121019000002,563.1121019000002,44,44,3.143,563.1121019000002,563.1121019000002,y,0.8736415999997007,,,,,,,,,,sub-023,0,750,700,3,2023-06-12_17h52.20.458,painuncertainty_calibration,2022.2.5,144.1609759117173,
2,0,2,0,6,0,6,0,,,,,2.1,70,564.0395041000002,564.0999768000001,564.0999768000001,p,0.5657726999997976,564.6772720000004,566.7807434000001,566.7807434000001,567.7978943000003,570.7657031000003,570.7657031000003,60,60,2.97,570.7657031000003,570.7657031000003,y,1.1564245999998093,,,,,,,,,,sub-023,0,750,700,3,2023-06-12_17h52.20.458,painuncertainty_calibration,2022.2.5,144.1609759117173,
2,0,2,0,7,0,7,0,,,,,2.0,80,571.9676704000003,572.0384187,572.0384187,p,0.4994255999995403,572.5452336000003,574.5460980000003,574.5460980000003,575.5634672000001,577.2467696000003,577.2467696000003,80,80,1.683,577.2467696000003,577.2467696000003,n,1.2191476999996667,,,,,,,,,,sub-023,0,750,700,3,2023-06-12_17h52.20.458,painuncertainty_calibration,2022.2.5,144.1609759117173,
2,0,2,0,,,,,,,,,,,,,,,,,,,,,,,,,,,,,,,,,,,,,,sub-023,0,750,700,3,2023-06-12_17h52.20.458,painuncertainty_calibration,2022.2.5,144.1609759117173,
,,,,,,,,0,0,0,0,3.0,62,,,,,,592.6587102000003,595.6591593000003,595.6591593000003,596.6761908000003,,,63,,,,,,,591.1658006000002,591.1658006000002,p,1.4841566999998577,598.6951961,598.6951961,0,63,1.962,sub-023,0,750,700,3,2023-06-12_17h52.20.458,painuncertainty_calibration,2022.2.5,144.1609759117173,
,,,,,,,,1,0,1,0,3.0,75,,,,,,599.6596575000003,602.6602707000002,602.6602707000002,603.6756303000002,,,88,,,,,,,598.6951961,598.6951961,p,0.9541276999998445,606.0645915,606.0645915,1,88,2.337,sub-023,0,750,700,3,2023-06-12_17h52.20.458,painuncertainty_calibration,2022.2.5,144.1609759117173,
,,,,,,,,2,0,2,0,3.0,57,,,,,,606.8343870000003,609.8347823000004,609.8347823000004,610.8503976000002,,,50,,,,,,,606.0645915,606.0645915,p,0.761576999999761,614.0556789000002,614.0556789000002,1,50,3.157,sub-023,0,750,700,3,2023-06-12_17h52.20.458,painuncertainty_calibration,2022.2.5,144.1609759117173,
,,,,,,,,3,0,3,0,3.0,71,,,,,,614.7105282000002,617.7105583000002,617.7105583000002,618.7269105,,,88,,,,,,,614.0556789000002,614.0556789000002,p,0.6424886999998307,621.8062041000003,621.8062041000003,1,88,3.033,sub-023,0,750,700,3,2023-06-12_17h52.20.458,painuncertainty_calibration,2022.2.5,144.1609759117173,
,,,,,,,,4,0,4,0,3.0,48,,,,,,622.3776262000001,625.3781344000004,625.3781344000004,626.3959769000003,,,21,,,,,,,621.8062041000003,621.8062041000003,p,0.5631496999994852,630.9190773,630.9190773,1,21,4.476,sub-023,0,750,700,3,2023-06-12_17h52.20.458,painuncertainty_calibration,2022.2.5,144.1609759117173,
,,,,,,,,5,0,5,0,3.0,20,,,,,,631.6913463000001,634.6917068000002,634.6917068000002,635.7079374,,,0,,,,,,,630.9190773,630.9190773,p,0.762561399999413,636.9782985000002,636.9782985000002,1,0,1.233,sub-023,0,750,700,3,2023-06-12_17h52.20.458,painuncertainty_calibration,2022.2.5,144.1609759117173,
,,,,,,,,6,0,6,0,3.0,29,,,,,,637.6365176000004,640.6371151000003,640.6371151000003,641.6524309000001,,,12,,,,,,,636.9782985000002,636.9782985000002,p,0.647297499999695,644.5542420000002,644.5542420000002,1,12,2.866,sub-023,0,750,700,3,2023-06-12_17h52.20.458,painuncertainty_calibration,2022.2.5,144.1609759117173,
,,,,,,,,7,0,7,0,3.0,25,,,,,,645.2419365000001,648.2423409000003,648.2423409000003,649.2584002000003,,,2,,,,,,,644.5542420000002,644.5542420000002,p,0.6797308999998677,651.3330312000003,651.3330312000003,1,2,2.032,sub-023,0,750,700,3,2023-06-12_17h52.20.458,painuncertainty_calibration,2022.2.5,144.1609759117173,
,,,,,,,,8,0,8,0,3.0,66,,,,,,651.8678243000004,654.8677966,654.8677966,655.8840408000001,,,73,,,,,,,651.3330312000003,651.3330312000003,p,0.5250451999995676,659.2450331,659.2450331,1,73,3.31,sub-023,0,750,700,3,2023-06-12_17h52.20.458,painuncertainty_calibration,2022.2.5,144.1609759117173,
,,,,,,,,9,0,9,0,3.0,38,,,,,,660.1739743000003,663.1745405000001,663.1745405000001,664.1919226,,,23,,,,,,,659.2450331,659.2450331,p,0.9167356999996628,666.2292838000003,666.2292838000003,1,23,1.995,sub-023,0,750,700,3,2023-06-12_17h52.20.458,painuncertainty_calibration,2022.2.5,144.1609759117173,
,,,,,,,,10,0,10,0,3.0,34,,,,,,666.8483711000003,669.8488422,669.8488422,670.8655630000003,,,16,,,,,,,666.2292838000003,666.2292838000003,p,0.6118985999996767,672.2085361000004,672.2085361000004,1,16,1.288,sub-023,0,750,700,3,2023-06-12_17h52.20.458,painuncertainty_calibration,2022.2.5,144.1609759117173,
,,,,,,,,11,0,11,0,3.0,52,,,,,,672.7867550000001,675.7871909,675.7871909,676.8051263000002,,,64,,,,,,,672.2085361000004,672.2085361000004,p,0.5694776999994247,678.4578554,678.4578554,1,64,1.607,sub-023,0,750,700,3,2023-06-12_17h52.20.458,painuncertainty_calibration,2022.2.5,144.1609759117173,
,,,,,,,,12,0,12,0,3.0,43,,,,,,679.0443526000004,682.0448659000003,682.0448659000003,,,,32,,,,,,,678.4578554,678.4578554,p,0.5753733999999895,686.8496816000002,686.8496816000002,1,32,3.745,sub-023,0,750,700,3,2023-06-12_17h52.20.458,painuncertainty_calibration,2022.2.5,144.1609759117173,
,,,,,,,,13,0,13,0,3.0,80,,,,,,687.3996685000002,690.3999830000002,690.3999830000002,691.4179510000004,,,91,,,,,,,686.8496816000002,686.8496816000002,p,0.5364520999996785,693.2106819,693.2106819,1,91,1.795,sub-023,0,750,700,3,2023-06-12_17h52.20.458,painuncertainty_calibration,2022.2.5,144.1609759117173,
