cue_,stimulus_,cue_fichier,stimulus_fichier,block_name,block_trials_file,block_n_reps,block_ntrials,block_prob_highP_highT,block_prob_highP_lowT,block_pause_after,Bloc_essai.thisRepN,Bloc_essai.thisTrialN,Bloc_essai.thisN,Bloc_essai.thisIndex,blocks.thisRepN,blocks.thisTrialN,blocks.thisN,blocks.thisIndex,trials.thisRepN,trials.thisTrialN,trials.thisN,trials.thisIndex,pause_loop.thisRepN,pause_loop.thisTrialN,pause_loop.thisN,pause_loop.thisIndex,key_resp_5.started,start_calib.started,key_resp_2.started,ISI_duration,pause.started,pause.stopped,cue.started,ISI.started,choice_pain.started,Choice.started,choice_pain.keys,choice_pain.rt,main_text.started,confirm_text.started,ratingScale.response,ratingScale.rt,choice_pain.stopped,Choice.stopped,key_resp_3.started,key_resp_6.started,participant,low_ma,high_ma,failsafe_ma,block_file,date,expName,psychopyVersion,frameRate,
aigu,forte,stimuli/660Hz,stimuli/forte,,,,,,,,0,0,0,3,,,,,,,,,,,,,29.79479029999993,205.0490734,294.9405333999998,3.5,298.47203729999956,301.9861936999996,301.9898768299999,0.3029148999999052,302.42231019999963,302.42231019999963,m,1.3993578000004163,305.9312743999999,305.9312743999999,12,2.046,,,,,sub-064,105,185,700,bloc_loop.csv,2023-11-02_11h34.03.244,PainUncertainty,2022.2.5,142.8140946080057,
grave,moderee,stimuli/330Hz,stimuli/moderee,,,,,,,,0,1,1,0,,,,,,,,,,,,,,,,3.6,305.9312743999999,309.5349705999997,309.53952051999954,0.30175710000003164,309.9781515999998,309.9781515999998,None,,315.7012341999998,315.7012341999998,24,3.218,312.4459125999997,312.4459125999997,,,sub-064,105,185,700,bloc_loop.csv,2023-11-02_11h34.03.244,PainUncertainty,2022.2.5,142.8140946080057,
aigu,moderee,stimuli/660Hz,stimuli/moderee,,,,,,,,0,2,2,2,,,,,,,,,,,,,,,,4.9,315.7012341999998,320.60324569999966,320.6033215099998,0.3048625000001266,321.0475551999998,321.0475551999998,None,,326.28244129999985,326.28244129999985,27,2.733,323.5167269999997,323.5167269999997,,,sub-064,105,185,700,bloc_loop.csv,2023-11-02_11h34.03.244,PainUncertainty,2022.2.5,142.8140946080057,
grave,forte,stimuli/330Hz,stimuli/forte,,,,,,,,0,3,3,1,,,,,,,,,,,,,,,,4.8,326.28244129999985,331.0842349999998,331.0842054099995,0.3046179999996639,331.5279636999999,331.5279636999999,None,,337.0615687999998,337.0615687999998,36,3.066,333.996901,333.996901,,,sub-064,105,185,700,bloc_loop.csv,2023-11-02_11h34.03.244,PainUncertainty,2022.2.5,142.8140946080057,
aigu,moderee,stimuli/660Hz,stimuli/moderee,bloc_1,prob20hthp_12trials.xlsx,4,48,20,80,0,,,,,0,0,0,0,0,0,0,6,,,,,,,,3.8,389.78245419999985,393.58441219999986,393.5843438099997,0.3049801000001935,394.0284423999997,394.0284423999997,n,1.842003100000511,399.5169980999999,399.5169980999999,10,3.579,,,,,sub-064,105,185,700,bloc_loop.csv,2023-11-02_11h34.03.244,PainUncertainty,2022.2.5,142.8140946080057,
grave,forte,stimuli/330Hz,stimuli/forte,bloc_1,prob20hthp_12trials.xlsx,4,48,20,80,0,,,,,0,0,0,0,0,1,1,4,,,,,,,,4.5,399.5169980999999,404.01646459999984,404.0164398099997,0.30509410000013304,404.46032849999983,404.46032849999983,m,1.2184286000006068,408.62976879999997,408.62976879999997,33,2.893,,,,,sub-064,105,185,700,bloc_loop.csv,2023-11-02_11h34.03.244,PainUncertainty,2022.2.5,142.8140946080057,
grave,forte,stimuli/330Hz,stimuli/forte,bloc_1,prob20hthp_12trials.xlsx,4,48,20,80,0,,,,,0,0,0,0,0,2,2,1,,,,,,,,3.9,408.62976879999997,412.5314364999999,412.53120270999955,0.2992244000001847,412.97205559999975,412.97205559999975,m,0.9989676000004692,417.0379576999999,417.0379576999999,39,3.004,,,,,sub-064,105,185,700,bloc_loop.csv,2023-11-02_11h34.03.244,PainUncertainty,2022.2.5,142.8140946080057,
aigu,moderee,stimuli/660Hz,stimuli/moderee,bloc_1,prob20hthp_12trials.xlsx,4,48,20,80,0,,,,,0,0,0,0,0,3,3,9,,,,,,,,3.7,417.0379576999999,420.74038589999964,420.7404400099996,0.2995616000002883,421.1853544999999,421.1853544999999,None,,426.58218829999987,426.58218829999987,17,2.9,423.6520343999996,423.6520343999996,,,sub-064,105,185,700,bloc_loop.csv,2023-11-02_11h34.03.244,PainUncertainty,2022.2.5,142.8140946080057,
grave,forte,stimuli/330Hz,stimuli/forte,bloc_1,prob20hthp_12trials.xlsx,4,48,20,80,0,,,,,0,0,0,0,0,4,4,3,,,,,,,,4.3,426.58218829999987,430.88744359999964,430.8874233099997,0.3048623999998199,431.3360273999997,431.3360273999997,m,0.9958308000004763,434.6403989999999,434.6403989999999,35,2.248,,,,,sub-064,105,185,700,bloc_loop.csv,2023-11-02_11h34.03.244,PainUncertainty,2022.2.5,142.8140946080057,
grave,forte,stimuli/330Hz,stimuli/forte,bloc_1,prob20hthp_12trials.xlsx,4,48,20,80,0,,,,,0,0,0,0,0,5,5,2,,,,,,,,3.3,434.6403989999999,437.94396449999977,437.94403960999955,0.30482050000000527,438.3919512999996,438.3919512999996,m,1.1905576000003748,443.0183892,443.0183892,39,3.371,,,,,sub-064,105,185,700,bloc_loop.csv,2023-11-02_11h34.03.244,PainUncertainty,2022.2.5,142.8140946080057,
grave,forte,stimuli/330Hz,stimuli/forte,bloc_1,prob20hthp_12trials.xlsx,4,48,20,80,0,,,,,0,0,0,0,0,6,6,0,,,,,,,,3.1,443.0183892,446.11888329999965,446.11903430999985,0.3060162000001583,446.566515,446.566515,m,1.7909370000002127,452.6899655999996,452.6899655999996,39,4.275,,,,,sub-064,105,185,700,bloc_loop.csv,2023-11-02_11h34.03.244,PainUncertainty,2022.2.5,142.8140946080057,
aigu,moderee,stimuli/660Hz,stimuli/moderee,bloc_1,prob20hthp_12trials.xlsx,4,48,20,80,0,,,,,0,0,0,0,0,7,7,8,,,,,,,,3.1,452.6899655999996,455.79401129999997,455.79433291,0.30478820000007545,456.2408717999997,456.2408717999997,n,1.0578126000004886,460.1861984999996,460.1861984999996,14,2.83,,,,,sub-064,105,185,700,bloc_loop.csv,2023-11-02_11h34.03.244,PainUncertainty,2022.2.5,142.8140946080057,
grave,moderee,stimuli/330Hz,stimuli/moderee,bloc_1,prob20hthp_12trials.xlsx,4,48,20,80,0,,,,,0,0,0,0,0,8,8,5,,,,,,,,4.7,460.1861984999996,464.89205669999956,464.8921327099998,0.30457039999964763,465.33572449999974,465.33572449999974,n,1.1602138000002924,470.0499513999998,470.0499513999998,17,3.502,,,,,sub-064,105,185,700,bloc_loop.csv,2023-11-02_11h34.03.244,PainUncertainty,2022.2.5,142.8140946080057,
aigu,moderee,stimuli/660Hz,stimuli/moderee,bloc_1,prob20hthp_12trials.xlsx,4,48,20,80,0,,,,,0,0,0,0,0,9,9,7,,,,,,,,3.6,470.0499513999998,473.6496903999996,473.64958850999994,0.3050435000000107,474.0980099999997,474.0980099999997,m,2.1805434000002606,480.4730701999997,480.4730701999997,21,4.144,,,,,sub-064,105,185,700,bloc_loop.csv,2023-11-02_11h34.03.244,PainUncertainty,2022.2.5,142.8140946080057,
aigu,forte,stimuli/660Hz,stimuli/forte,bloc_1,prob20hthp_12trials.xlsx,4,48,20,80,0,,,,,0,0,0,0,0,10,10,11,,,,,,,,4.5,480.4730701999997,484.97743139999966,484.97746190999953,0.3050745000000461,485.42177919999995,485.42177919999995,m,1.1934804000006807,490.57700529999966,490.57700529999966,41,3.9,,,,,sub-064,105,185,700,bloc_loop.csv,2023-11-02_11h34.03.244,PainUncertainty,2022.2.5,142.8140946080057,
aigu,moderee,stimuli/660Hz,stimuli/moderee,bloc_1,prob20hthp_12trials.xlsx,4,48,20,80,0,,,,,0,0,0,0,0,11,11,10,,,,,,,,3.9,490.57700529999966,494.47843129999956,494.4785430099997,0.3050460000004023,494.9226354999996,494.9226354999996,n,1.4308091000007153,499.81720149999956,499.81720149999956,14,3.405,,,,,sub-064,105,185,700,bloc_loop.csv,2023-11-02_11h34.03.244,PainUncertainty,2022.2.5,142.8140946080057,
aigu,moderee,stimuli/660Hz,stimuli/moderee,bloc_1,prob20hthp_12trials.xlsx,4,48,20,80,0,,,,,0,0,0,0,1,0,12,6,,,,,,,,4.9,499.81720149999956,504.72294859999965,504.72279510999954,0.30496169999969425,505.1709781999998,505.1709781999998,None,,510.27281129999983,510.27281129999983,18,2.593,,,,,sub-064,105,185,700,bloc_loop.csv,2023-11-02_11h34.03.244,PainUncertainty,2022.2.5,142.8140946080057,
aigu,moderee,stimuli/660Hz,stimuli/moderee,bloc_1,prob20hthp_12trials.xlsx,4,48,20,80,0,,,,,0,0,0,0,1,1,13,10,,,,,,,,4.8,510.27281129999983,515.0782285999999,515.0781631099995,0.3054486999999426,515.5264135999996,515.5264135999996,None,,521.8788084999996,521.8788084999996,15,3.85,,,,,sub-064,105,185,700,bloc_loop.csv,2023-11-02_11h34.03.244,PainUncertainty,2022.2.5,142.8140946080057,
aigu,moderee,stimuli/660Hz,stimuli/moderee,bloc_1,prob20hthp_12trials.xlsx,4,48,20,80,0,,,,,0,0,0,0,1,2,14,7,,,,,,,,4.8,521.8788084999996,526.6838238999999,526.6837775099999,0.3008903999998438,527.1284355999996,527.1284355999996,m,1.3711462000005668,531.6472726999996,531.6472726999996,26,3.094,,,,,sub-064,105,185,700,bloc_loop.csv,2023-11-02_11h34.03.244,PainUncertainty,2022.2.5,142.8140946080057,
grave,forte,stimuli/330Hz,stimuli/forte,bloc_1,prob20hthp_12trials.xlsx,4,48,20,80,0,,,,,0,0,0,0,1,3,15,2,,,,,,,,3.1,531.6472726999996,534.7473163,534.7472702099996,0.2999075000002449,535.1921691999996,535.1921691999996,m,1.625920600000427,541.6534233999996,541.6534233999996,38,4.768,,,,,sub-064,105,185,700,bloc_loop.csv,2023-11-02_11h34.03.244,PainUncertainty,2022.2.5,142.8140946080057,
grave,moderee,stimuli/330Hz,stimuli/moderee,bloc_1,prob20hthp_12trials.xlsx,4,48,20,80,0,,,,,0,0,0,0,1,4,16,5,,,,,,,,4.6,541.6534233999996,546.2556133999997,546.2556035099998,0.3054900000001908,546.7033837999998,546.7033837999998,m,1.4212759000001824,551.3106155999999,551.3106155999999,32,3.116,,,,,sub-064,105,185,700,bloc_loop.csv,2023-11-02_11h34.03.244,PainUncertainty,2022.2.5,142.8140946080057,
grave,forte,stimuli/330Hz,stimuli/forte,bloc_1,prob20hthp_12trials.xlsx,4,48,20,80,0,,,,,0,0,0,0,1,5,17,1,,,,,,,,5,551.3106155999999,556.3127326999997,556.3126778099996,0.3003549000000021,556.7571784999996,556.7571784999996,m,1.9013564000006227,562.1480521999997,562.1480521999997,34,3.434,,,,,sub-064,105,185,700,bloc_loop.csv,2023-11-02_11h34.03.244,PainUncertainty,2022.2.5,142.8140946080057,
aigu,moderee,stimuli/660Hz,stimuli/moderee,bloc_1,prob20hthp_12trials.xlsx,4,48,20,80,0,,,,,0,0,0,0,1,6,18,9,,,,,,,,3.1,562.1480521999997,565.2511992999998,565.25112551,0.3050620999997591,565.6951784999997,565.6951784999997,n,1.8954609000006712,571.1968736999997,571.1968736999997,14,3.546,,,,,sub-064,105,185,700,bloc_loop.csv,2023-11-02_11h34.03.244,PainUncertainty,2022.2.5,142.8140946080057,
grave,forte,stimuli/330Hz,stimuli/forte,bloc_1,prob20hthp_12trials.xlsx,4,48,20,80,0,,,,,0,0,0,0,1,7,19,0,,,,,,,,4.8,571.1968736999997,576.0025840999997,576.0025520099999,0.30478080000011687,576.4466227999997,576.4466227999997,m,1.900293000000147,580.4534392999999,580.4534392999999,37,2.046,,,,,sub-064,105,185,700,bloc_loop.csv,2023-11-02_11h34.03.244,PainUncertainty,2022.2.5,142.8140946080057,
grave,forte,stimuli/330Hz,stimuli/forte,bloc_1,prob20hthp_12trials.xlsx,4,48,20,80,0,,,,,0,0,0,0,1,8,20,3,,,,,,,,4.3,580.4534392999999,584.7534469999996,584.7534693099998,0.30504990000008547,585.1976169999998,585.1976169999998,m,1.34885740000027,590.3965068999996,590.3965068999996,36,3.789,,,,,sub-064,105,185,700,bloc_loop.csv,2023-11-02_11h34.03.244,PainUncertainty,2022.2.5,142.8140946080057,
grave,forte,stimuli/330Hz,stimuli/forte,bloc_1,prob20hthp_12trials.xlsx,4,48,20,80,0,,,,,0,0,0,0,1,9,21,4,,,,,,,,4.1,590.3965068999996,594.4976208999997,594.4974894099997,0.30529859999978726,594.9416974999999,594.9416974999999,m,2.310827500000414,600.8373145999999,600.8373145999999,40,3.518,,,,,sub-064,105,185,700,bloc_loop.csv,2023-11-02_11h34.03.244,PainUncertainty,2022.2.5,142.8140946080057,
aigu,moderee,stimuli/660Hz,stimuli/moderee,bloc_1,prob20hthp_12trials.xlsx,4,48,20,80,0,,,,,0,0,0,0,1,10,22,8,,,,,,,,3.3,600.8373145999999,604.1375650999998,604.1375632099999,0.30532469999980094,604.5817260999997,604.5817260999997,n,2.3037897000003795,609.2621505999996,609.2621505999996,15,2.316,,,,,sub-064,105,185,700,bloc_loop.csv,2023-11-02_11h34.03.244,PainUncertainty,2022.2.5,142.8140946080057,
aigu,forte,stimuli/660Hz,stimuli/forte,bloc_1,prob20hthp_12trials.xlsx,4,48,20,80,0,,,,,0,0,0,0,1,11,23,11,,,,,,,,4.7,609.2621505999996,613.9653265999996,613.9651852099997,0.3052013999999872,614.4094284999996,614.4094284999996,m,1.2461991000004673,618.7411087999999,618.7411087999999,40,3.032,,,,,sub-064,105,185,700,bloc_loop.csv,2023-11-02_11h34.03.244,PainUncertainty,2022.2.5,142.8140946080057,
grave,forte,stimuli/330Hz,stimuli/forte,bloc_1,prob20hthp_12trials.xlsx,4,48,20,80,0,,,,,0,0,0,0,2,0,24,2,,,,,,,,4.6,618.7411087999999,623.3418191999999,623.3417998099995,0.30142430000023523,623.7862522999999,623.7862522999999,None,,628.3027702999998,628.3027702999998,30,2.011,626.2542183999999,626.2542183999999,,,sub-064,105,185,700,bloc_loop.csv,2023-11-02_11h34.03.244,PainUncertainty,2022.2.5,142.8140946080057,
grave,forte,stimuli/330Hz,stimuli/forte,bloc_1,prob20hthp_12trials.xlsx,4,48,20,80,0,,,,,0,0,0,0,2,1,25,3,,,,,,,,4.2,628.3027702999998,632.5027612999997,632.5025700099997,0.3005440000001727,632.9470130999998,632.9470130999998,None,,639.5573004999997,639.5573004999997,38,4.109,635.4145951999999,635.4145951999999,,,sub-064,105,185,700,bloc_loop.csv,2023-11-02_11h34.03.244,PainUncertainty,2022.2.5,142.8140946080057,
aigu,moderee,stimuli/660Hz,stimuli/moderee,bloc_1,prob20hthp_12trials.xlsx,4,48,20,80,0,,,,,0,0,0,0,2,2,26,10,,,,,,,,3.2,639.5573004999997,642.7607920999999,642.7607634099996,0.30487489999995887,643.2047986999996,643.2047986999996,n,1.116730700000062,647.3255485,647.3255485,12,2.956,,,,,sub-064,105,185,700,bloc_loop.csv,2023-11-02_11h34.03.244,PainUncertainty,2022.2.5,142.8140946080057,
aigu,moderee,stimuli/660Hz,stimuli/moderee,bloc_1,prob20hthp_12trials.xlsx,4,48,20,80,0,,,,,0,0,0,0,2,3,27,6,,,,,,,,4.6,647.3255485,651.9284242999997,651.9299598099998,0.30371599999989485,652.3769034999996,652.3769034999996,None,,658.9959808999997,658.9959808999997,14,4.122,,,,,sub-064,105,185,700,bloc_loop.csv,2023-11-02_11h34.03.244,PainUncertainty,2022.2.5,142.8140946080057,
aigu,forte,stimuli/660Hz,stimuli/forte,bloc_1,prob20hthp_12trials.xlsx,4,48,20,80,0,,,,,0,0,0,0,2,4,28,11,,,,,,,,3.3,658.9959808999997,662.2974389999999,662.2976655099998,0.3051108999998178,662.7439106999996,662.7439106999996,m,1.193982600000254,665.9825078999997,665.9825078999997,37,1.976,,,,,sub-064,105,185,700,bloc_loop.csv,2023-11-02_11h34.03.244,PainUncertainty,2022.2.5,142.8140946080057,
grave,forte,stimuli/330Hz,stimuli/forte,bloc_1,prob20hthp_12trials.xlsx,4,48,20,80,0,,,,,0,0,0,0,2,5,29,4,,,,,,,,4.9,665.9825078999997,670.8817532999997,670.8819327099997,0.3049334000002091,671.3260060999996,671.3260060999996,m,1.883811400000468,677.3960553999996,677.3960553999996,37,4.122,,,,,sub-064,105,185,700,bloc_loop.csv,2023-11-02_11h34.03.244,PainUncertainty,2022.2.5,142.8140946080057,
aigu,moderee,stimuli/660Hz,stimuli/moderee,bloc_1,prob20hthp_12trials.xlsx,4,48,20,80,0,,,,,0,0,0,0,2,6,30,8,,,,,,,,4,677.3960553999996,681.3977732999997,681.3971821099996,0.30534399999987727,681.8413220999996,681.8413220999996,n,1.084272200000214,687.8508689999999,687.8508689999999,7,4.872,,,,,sub-064,105,185,700,bloc_loop.csv,2023-11-02_11h34.03.244,PainUncertainty,2022.2.5,142.8140946080057,
grave,forte,stimuli/330Hz,stimuli/forte,bloc_1,prob20hthp_12trials.xlsx,4,48,20,80,0,,,,,0,0,0,0,2,7,31,1,,,,,,,,3.3,687.8508689999999,691.1551783999998,691.1550708099995,0.3052392999998119,691.6361599999996,691.6361599999996,m,1.7358556000003773,696.3252700999997,696.3252700999997,46,2.895,,,,,sub-064,105,185,700,bloc_loop.csv,2023-11-02_11h34.03.244,PainUncertainty,2022.2.5,142.8140946080057,
grave,forte,stimuli/330Hz,stimuli/forte,bloc_1,prob20hthp_12trials.xlsx,4,48,20,80,0,,,,,0,0,0,0,2,8,32,0,,,,,,,,3.9,696.3252700999997,700.2257321999996,700.2256769099996,0.30528739999999743,700.6700136999998,700.6700136999998,m,1.635479800000212,705.4056081999997,705.4056081999997,39,3.038,,,,,sub-064,105,185,700,bloc_loop.csv,2023-11-02_11h34.03.244,PainUncertainty,2022.2.5,142.8140946080057,
aigu,moderee,stimuli/660Hz,stimuli/moderee,bloc_1,prob20hthp_12trials.xlsx,4,48,20,80,0,,,,,0,0,0,0,2,9,33,9,,,,,,,,4.3,705.4056081999997,709.7059374999999,709.70595591,0.3054680999998709,710.1504182999997,710.1504182999997,n,1.2860082000006514,715.2374636999998,715.2374636999998,6,3.733,,,,,sub-064,105,185,700,bloc_loop.csv,2023-11-02_11h34.03.244,PainUncertainty,2022.2.5,142.8140946080057,
aigu,moderee,stimuli/660Hz,stimuli/moderee,bloc_1,prob20hthp_12trials.xlsx,4,48,20,80,0,,,,,0,0,0,0,2,10,34,7,,,,,,,,3.6,715.2374636999998,718.8412275999999,718.8395814099996,0.3049548000003597,719.2874188999999,719.2874188999999,n,1.743362000000161,723.5666442999996,723.5666442999996,13,2.481,,,,,sub-064,105,185,700,bloc_loop.csv,2023-11-02_11h34.03.244,PainUncertainty,2022.2.5,142.8140946080057,
grave,moderee,stimuli/330Hz,stimuli/moderee,bloc_1,prob20hthp_12trials.xlsx,4,48,20,80,0,,,,,0,0,0,0,2,11,35,5,,,,,,,,3.5,723.5666442999996,727.0691843999998,727.0692462099997,0.30545800000027157,727.5134807,727.5134807,None,,731.8144417999997,731.8144417999997,9,1.802,729.9813667999997,729.9813667999997,,,sub-064,105,185,700,bloc_loop.csv,2023-11-02_11h34.03.244,PainUncertainty,2022.2.5,142.8140946080057,
aigu,moderee,stimuli/660Hz,stimuli/moderee,bloc_1,prob20hthp_12trials.xlsx,4,48,20,80,0,,,,,0,0,0,0,3,0,36,7,,,,,,,,5,731.8144417999997,736.8134892999997,736.8136732099998,0.30510880000019824,737.2614869999998,737.2614869999998,n,2.2984611000006225,743.2448219999997,743.2448219999997,13,3.629,,,,,sub-064,105,185,700,bloc_loop.csv,2023-11-02_11h34.03.244,PainUncertainty,2022.2.5,142.8140946080057,
aigu,moderee,stimuli/660Hz,stimuli/moderee,bloc_1,prob20hthp_12trials.xlsx,4,48,20,80,0,,,,,0,0,0,0,3,1,37,8,,,,,,,,5,743.2448219999997,748.2458238999998,748.2458597099995,0.30496739999989586,748.6934738999998,748.6934738999998,None,,755.6346834999999,755.6346834999999,14,4.443,,,,,sub-064,105,185,700,bloc_loop.csv,2023-11-02_11h34.03.244,PainUncertainty,2022.2.5,142.8140946080057,
aigu,forte,stimuli/660Hz,stimuli/forte,bloc_1,prob20hthp_12trials.xlsx,4,48,20,80,0,,,,,0,0,0,0,3,2,38,11,,,,,,,,4.8,755.6346834999999,760.4347918999997,760.4358825099999,0.3041514000001371,760.8810199999998,760.8810199999998,m,0.736500800000158,765.3395516999999,765.3395516999999,43,3.664,,,,,sub-064,105,185,700,bloc_loop.csv,2023-11-02_11h34.03.244,PainUncertainty,2022.2.5,142.8140946080057,
grave,forte,stimuli/330Hz,stimuli/forte,bloc_1,prob20hthp_12trials.xlsx,4,48,20,80,0,,,,,0,0,0,0,3,3,39,1,,,,,,,,3.1,765.3395516999999,768.4426884999998,768.4425562099997,0.3010881000000154,768.8870809999999,768.8870809999999,m,0.8366976000006616,772.1652522999998,772.1652522999998,41,2.379,,,,,sub-064,105,185,700,bloc_loop.csv,2023-11-02_11h34.03.244,PainUncertainty,2022.2.5,142.8140946080057,
grave,forte,stimuli/330Hz,stimuli/forte,bloc_1,prob20hthp_12trials.xlsx,4,48,20,80,0,,,,,0,0,0,0,3,4,40,4,,,,,,,,3.3,772.1652522999998,775.4709871,775.4709837099996,0.30513040000005276,775.915082,775.915082,m,0.9315122000002702,779.3426781999997,779.3426781999997,43,2.435,,,,,sub-064,105,185,700,bloc_loop.csv,2023-11-02_11h34.03.244,PainUncertainty,2022.2.5,142.8140946080057,
grave,moderee,stimuli/330Hz,stimuli/moderee,bloc_1,prob20hthp_12trials.xlsx,4,48,20,80,0,,,,,0,0,0,0,3,5,41,5,,,,,,,,4.6,779.3426781999997,783.9444878999998,783.9444588099997,0.3049678999996104,784.3885069999997,784.3885069999997,n,1.617338600000494,789.5096438999999,789.5096438999999,13,3.448,,,,,sub-064,105,185,700,bloc_loop.csv,2023-11-02_11h34.03.244,PainUncertainty,2022.2.5,142.8140946080057,
aigu,moderee,stimuli/660Hz,stimuli/moderee,bloc_1,prob20hthp_12trials.xlsx,4,48,20,80,0,,,,,0,0,0,0,3,6,42,6,,,,,,,,4.6,789.5096438999999,794.1123986999996,794.1123513099998,0.304819999999836,794.5562445999999,794.5562445999999,n,2.160715500000606,800.6699792999998,800.6699792999998,15,3.898,,,,,sub-064,105,185,700,bloc_loop.csv,2023-11-02_11h34.03.244,PainUncertainty,2022.2.5,142.8140946080057,
grave,forte,stimuli/330Hz,stimuli/forte,bloc_1,prob20hthp_12trials.xlsx,4,48,20,80,0,,,,,0,0,0,0,3,7,43,0,,,,,,,,4.9,800.6699792999998,805.5726692999997,805.5723394099997,0.301058699999885,806.0170067999998,806.0170067999998,m,1.458513800000219,809.4768159999999,809.4768159999999,42,1.948,,,,,sub-064,105,185,700,bloc_loop.csv,2023-11-02_11h34.03.244,PainUncertainty,2022.2.5,142.8140946080057,
aigu,moderee,stimuli/660Hz,stimuli/moderee,bloc_1,prob20hthp_12trials.xlsx,4,48,20,80,0,,,,,0,0,0,0,3,8,44,10,,,,,,,,3.8,809.4768159999999,813.2810946999998,813.2811236099998,0.3048767999998745,813.7253022999998,813.7253022999998,n,1.926596800000425,818.9888068999999,818.9888068999999,19,3.276,,,,,sub-064,105,185,700,bloc_loop.csv,2023-11-02_11h34.03.244,PainUncertainty,2022.2.5,142.8140946080057,
aigu,moderee,stimuli/660Hz,stimuli/moderee,bloc_1,prob20hthp_12trials.xlsx,4,48,20,80,0,,,,,0,0,0,0,3,9,45,9,,,,,,,,4.8,818.9888068999999,823.7897521999998,823.7896702099998,0.30545059999985824,824.2381381999999,824.2381381999999,n,1.031855500000347,828.7259308999996,828.7259308999996,12,3.393,,,,,sub-064,105,185,700,bloc_loop.csv,2023-11-02_11h34.03.244,PainUncertainty,2022.2.5,142.8140946080057,
grave,forte,stimuli/330Hz,stimuli/forte,bloc_1,prob20hthp_12trials.xlsx,4,48,20,80,0,,,,,0,0,0,0,3,10,46,2,,,,,,,,4.6,828.7259308999996,833.3253115999996,833.3253104099996,0.30533939999986615,833.7740497,833.7740497,m,0.8854680000008557,837.3574816999999,837.3574816999999,48,2.642,,,,,sub-064,105,185,700,bloc_loop.csv,2023-11-02_11h34.03.244,PainUncertainty,2022.2.5,142.8140946080057,
grave,forte,stimuli/330Hz,stimuli/forte,bloc_1,prob20hthp_12trials.xlsx,4,48,20,80,0,,,,,0,0,0,0,3,11,47,3,,,,,,,,4.4,837.3574816999999,841.7567329999997,841.7567332099999,0.30493490000026213,842.2008890999996,842.2008890999996,m,0.9098088000005191,845.5749133999998,845.5749133999998,45,2.398,,,,,sub-064,105,185,700,bloc_loop.csv,2023-11-02_11h34.03.244,PainUncertainty,2022.2.5,142.8140946080057,
grave,moderee,stimuli/330Hz,stimuli/moderee,bloc_2,prob50_50_4trials.xlsx,2,8,50,50,1,,,,,0,1,1,1,0,0,0,0,,,,,,,,3.1,845.5749133999998,848.6742215999998,848.6741819099999,0.3054913000000852,849.1257348999998,849.1257348999998,m,1.604063500000393,853.3435003999998,853.3435003999998,34,2.559,,,,,sub-064,105,185,700,bloc_loop.csv,2023-11-02_11h34.03.244,PainUncertainty,2022.2.5,142.8140946080057,
grave,forte,stimuli/330Hz,stimuli/forte,bloc_2,prob50_50_4trials.xlsx,2,8,50,50,1,,,,,0,1,1,1,0,1,1,1,,,,,,,,4.4,853.3435003999998,857.7448061,857.7447849099996,0.30511710000018866,858.1891373999997,858.1891373999997,m,1.0576146000003064,862.5042595999998,862.5042595999998,36,3.2,,,,,sub-064,105,185,700,bloc_loop.csv,2023-11-02_11h34.03.244,PainUncertainty,2022.2.5,142.8140946080057,
aigu,forte,stimuli/660Hz,stimuli/forte,bloc_2,prob50_50_4trials.xlsx,2,8,50,50,1,,,,,0,1,1,1,0,2,2,3,,,,,,,,3.5,862.5042595999998,866.0097629999996,866.0096854099999,0.3052001000000928,866.4539747999997,866.4539747999997,m,0.9780408000005991,870.6250034,870.6250034,39,3.142,,,,,sub-064,105,185,700,bloc_loop.csv,2023-11-02_11h34.03.244,PainUncertainty,2022.2.5,142.8140946080057,
aigu,moderee,stimuli/660Hz,stimuli/moderee,bloc_2,prob50_50_4trials.xlsx,2,8,50,50,1,,,,,0,1,1,1,0,3,3,2,,,,,,,,4.1,870.6250034,874.7263576999999,874.7264090099999,0.30499330000020564,875.1742255999998,875.1742255999998,n,1.7616115000000718,879.0021837999998,879.0021837999998,22,2.003,,,,,sub-064,105,185,700,bloc_loop.csv,2023-11-02_11h34.03.244,PainUncertainty,2022.2.5,142.8140946080057,
aigu,moderee,stimuli/660Hz,stimuli/moderee,bloc_2,prob50_50_4trials.xlsx,2,8,50,50,1,,,,,0,1,1,1,1,0,4,2,,,,,,,,4.2,879.0021837999998,883.2062784,883.2063151099998,0.3049271999998382,883.6509222,883.6509222,n,1.6879165000004832,886.9326999,886.9326999,13,1.545,,,,,sub-064,105,185,700,bloc_loop.csv,2023-11-02_11h34.03.244,PainUncertainty,2022.2.5,142.8140946080057,
aigu,forte,stimuli/660Hz,stimuli/forte,bloc_2,prob50_50_4trials.xlsx,2,8,50,50,1,,,,,0,1,1,1,1,1,5,3,,,,,,,,3.2,886.9326999,890.1377290999999,890.1375929099996,0.3052882999995745,890.5855336999998,890.5855336999998,m,1.2617925000004107,894.8294819999996,894.8294819999996,40,2.913,,,,,sub-064,105,185,700,bloc_loop.csv,2023-11-02_11h34.03.244,PainUncertainty,2022.2.5,142.8140946080057,
grave,moderee,stimuli/330Hz,stimuli/moderee,bloc_2,prob50_50_4trials.xlsx,2,8,50,50,1,,,,,0,1,1,1,1,2,6,0,,,,,,,,4.8,894.8294819999996,899.6318165999996,899.6318194099996,0.3048315000000912,900.0760779999996,900.0760779999996,n,1.8713921000007758,904.9969901,904.9969901,19,2.997,,,,,sub-064,105,185,700,bloc_loop.csv,2023-11-02_11h34.03.244,PainUncertainty,2022.2.5,142.8140946080057,
grave,forte,stimuli/330Hz,stimuli/forte,bloc_2,prob50_50_4trials.xlsx,2,8,50,50,1,,,,,0,1,1,1,1,3,7,1,,,,,,,,3.8,904.9969901,908.7998553999996,908.79986901,0.3048932000001514,909.2440493999998,909.2440493999998,m,1.3162316000002647,915.1180648999998,915.1180648999998,41,2.524,,,,,sub-064,105,185,700,bloc_loop.csv,2023-11-02_11h34.03.244,PainUncertainty,2022.2.5,142.8140946080057,
,,,,bloc_2,prob50_50_4trials.xlsx,2,8,50,50,1,,,,,0,1,1,1,,,,,0,0,0,0,,,,,,,,,,,,,,,,,,,915.1180648999998,983.4821049999996,sub-064,105,185,700,bloc_loop.csv,2023-11-02_11h34.03.244,PainUncertainty,2022.2.5,142.8140946080057,
aigu,forte,stimuli/660Hz,stimuli/forte,bloc_3,prob80hthp_12trials.xlsx,2,24,80,20,0,,,,,0,2,2,2,0,0,0,9,,,,,,,,3.8,984.9483043999999,988.7539151999999,988.7538399099996,0.30498309999984485,989.1977727999997,989.1977727999997,m,1.0017688000007183,992.7941471999998,992.7941471999998,37,2.539,,,,,sub-064,105,185,700,bloc_loop.csv,2023-11-02_11h34.03.244,PainUncertainty,2022.2.5,142.8140946080057,
aigu,forte,stimuli/660Hz,stimuli/forte,bloc_3,prob80hthp_12trials.xlsx,2,24,80,20,0,,,,,0,2,2,2,0,1,1,6,,,,,,,,3.4,992.7941471999998,996.1993269999998,996.1992752099997,0.30639289999999164,996.6486166999998,996.6486166999998,m,0.8911906000003,998.8862629999999,998.8862629999999,40,1.29,,,,,sub-064,105,185,700,bloc_loop.csv,2023-11-02_11h34.03.244,PainUncertainty,2022.2.5,142.8140946080057,
grave,moderee,stimuli/330Hz,stimuli/moderee,bloc_3,prob80hthp_12trials.xlsx,2,24,80,20,0,,,,,0,2,2,2,0,2,2,4,,,,,,,,3.9,998.8862629999999,1002.7900434999997,1002.7899465099996,0.30567729999984294,1003.2387210999996,1003.2387210999996,n,0.8528971000005185,1005.3449073999996,1005.3449073999996,10,1.191,,,,,sub-064,105,185,700,bloc_loop.csv,2023-11-02_11h34.03.244,PainUncertainty,2022.2.5,142.8140946080057,
grave,moderee,stimuli/330Hz,stimuli/moderee,bloc_3,prob80hthp_12trials.xlsx,2,24,80,20,0,,,,,0,2,2,2,0,3,3,0,,,,,,,,4.2,1005.3449073999996,1009.5476732999996,1009.5479477099999,0.30487330000005386,1009.9918519999997,1009.9918519999997,n,1.3164238000003934,1014.2643159999998,1014.2643159999998,11,2.896,,,,,sub-064,105,185,700,bloc_loop.csv,2023-11-02_11h34.03.244,PainUncertainty,2022.2.5,142.8140946080057,
aigu,moderee,stimuli/660Hz,stimuli/moderee,bloc_3,prob80hthp_12trials.xlsx,2,24,80,20,0,,,,,0,2,2,2,0,4,4,11,,,,,,,,4.4,1014.2643159999998,1018.6668199999999,1018.6668061099996,0.3052864999999656,1019.1116001999999,1019.1116001999999,n,2.121488300000692,1024.4492139,1024.4492139,17,3.157,,,,,sub-064,105,185,700,bloc_loop.csv,2023-11-02_11h34.03.244,PainUncertainty,2022.2.5,142.8140946080057,
aigu,forte,stimuli/660Hz,stimuli/forte,bloc_3,prob80hthp_12trials.xlsx,2,24,80,20,0,,,,,0,2,2,2,0,5,5,10,,,,,,,,3.2,1024.4492139,1027.6543969999998,1027.65450541,0.30471920000036334,1028.0984952999997,1028.0984952999997,m,0.9731225000004997,1031.2131363999997,1031.2131363999997,44,2.075,,,,,sub-064,105,185,700,bloc_loop.csv,2023-11-02_11h34.03.244,PainUncertainty,2022.2.5,142.8140946080057,
aigu,forte,stimuli/660Hz,stimuli/forte,bloc_3,prob80hthp_12trials.xlsx,2,24,80,20,0,,,,,0,2,2,2,0,6,6,7,,,,,,,,3,1031.2131363999997,1034.2174348999997,1034.21738971,0.3050409000002219,1034.6619532,1034.6619532,m,0.8813411000005544,1036.6937813,1036.6937813,50,1.1,,,,,sub-064,105,185,700,bloc_loop.csv,2023-11-02_11h34.03.244,PainUncertainty,2022.2.5,142.8140946080057,
grave,forte,stimuli/330Hz,stimuli/forte,bloc_3,prob80hthp_12trials.xlsx,2,24,80,20,0,,,,,0,2,2,2,0,7,7,5,,,,,,,,3.8,1036.6937813,1040.4958324999998,1040.4958553099998,0.3050680999999713,1040.9399904999996,1040.9399904999996,m,1.0149221000006037,1044.2555659,1044.2555659,44,2.248,,,,,sub-064,105,185,700,bloc_loop.csv,2023-11-02_11h34.03.244,PainUncertainty,2022.2.5,142.8140946080057,
grave,moderee,stimuli/330Hz,stimuli/moderee,bloc_3,prob80hthp_12trials.xlsx,2,24,80,20,0,,,,,0,2,2,2,0,8,8,3,,,,,,,,4.1,1044.2555659,1048.3578857999996,1048.3578606099998,0.3054964999996628,1048.8093212999997,1048.8093212999997,n,1.5962716000003638,1053.0805730999996,1053.0805730999996,14,2.615,,,,,sub-064,105,185,700,bloc_loop.csv,2023-11-02_11h34.03.244,PainUncertainty,2022.2.5,142.8140946080057,
grave,moderee,stimuli/330Hz,stimuli/moderee,bloc_3,prob80hthp_12trials.xlsx,2,24,80,20,0,,,,,0,2,2,2,0,9,9,2,,,,,,,,3.6,1053.0805730999996,1056.6852682999997,1056.68549641,0.30519860000003973,1057.1339399999997,1057.1339399999997,n,0.9115715000002638,1061.5715206,1061.5715206,14,3.47,,,,,sub-064,105,185,700,bloc_loop.csv,2023-11-02_11h34.03.244,PainUncertainty,2022.2.5,142.8140946080057,
grave,moderee,stimuli/330Hz,stimuli/moderee,bloc_3,prob80hthp_12trials.xlsx,2,24,80,20,0,,,,,0,2,2,2,0,10,10,1,,,,,,,,4.9,1061.5715206,1066.4715763999998,1066.47332991,0.3002320000000509,1066.9168995,1066.9168995,n,1.6874758000003567,1069.9625551999998,1069.9625551999998,10,1.3,,,,,sub-064,105,185,700,bloc_loop.csv,2023-11-02_11h34.03.244,PainUncertainty,2022.2.5,142.8140946080057,
aigu,forte,stimuli/660Hz,stimuli/forte,bloc_3,prob80hthp_12trials.xlsx,2,24,80,20,0,,,,,0,2,2,2,0,11,11,8,,,,,,,,4.2,1069.9625551999998,1074.1668695999997,1074.16700551,0.3051170999997339,1074.6127391,1074.6127391,m,0.963533400000415,1078.4051298,1078.4051298,46,2.773,,,,,sub-064,105,185,700,bloc_loop.csv,2023-11-02_11h34.03.244,PainUncertainty,2022.2.5,142.8140946080057,
aigu,forte,stimuli/660Hz,stimuli/forte,bloc_3,prob80hthp_12trials.xlsx,2,24,80,20,0,,,,,0,2,2,2,1,0,12,7,,,,,,,,3.7,1078.4051298,1082.1050412,1082.10497621,0.3053178999998636,1082.5527960999998,1082.5527960999998,m,1.0602687000005062,1084.8156629999999,1084.8156629999999,40,1.136,,,,,sub-064,105,185,700,bloc_loop.csv,2023-11-02_11h34.03.244,PainUncertainty,2022.2.5,142.8140946080057,
grave,moderee,stimuli/330Hz,stimuli/moderee,bloc_3,prob80hthp_12trials.xlsx,2,24,80,20,0,,,,,0,2,2,2,1,1,13,4,,,,,,,,3.2,1084.8156629999999,1088.0154163999996,1088.01548561,0.304932000000008,1088.4595627999997,1088.4595627999997,n,1.7310153000003083,1091.9284344999996,1091.9284344999996,20,1.685,,,,,sub-064,105,185,700,bloc_loop.csv,2023-11-02_11h34.03.244,PainUncertainty,2022.2.5,142.8140946080057,
aigu,forte,stimuli/660Hz,stimuli/forte,bloc_3,prob80hthp_12trials.xlsx,2,24,80,20,0,,,,,0,2,2,2,1,2,14,10,,,,,,,,4.2,1091.9284344999996,1096.1274105999996,1096.12745441,0.3051295000000209,1096.5757497999998,1096.5757497999998,m,1.3060686000003443,1100.5607819999996,1100.5607819999996,43,2.63,,,,,sub-064,105,185,700,bloc_loop.csv,2023-11-02_11h34.03.244,PainUncertainty,2022.2.5,142.8140946080057,
aigu,moderee,stimuli/660Hz,stimuli/moderee,bloc_3,prob80hthp_12trials.xlsx,2,24,80,20,0,,,,,0,2,2,2,1,3,15,11,,,,,,,,3.7,1100.5607819999996,1104.2604488999996,1104.26039131,0.3051404999996521,1104.7084264999999,1104.7084264999999,n,1.0851609000005737,1107.5328018999999,1107.5328018999999,16,1.678,,,,,sub-064,105,185,700,bloc_loop.csv,2023-11-02_11h34.03.244,PainUncertainty,2022.2.5,142.8140946080057,
grave,moderee,stimuli/330Hz,stimuli/moderee,bloc_3,prob80hthp_12trials.xlsx,2,24,80,20,0,,,,,0,2,2,2,1,4,16,1,,,,,,,,4.6,1107.5328018999999,1112.1366610999999,1112.13669951,0.3050474000001486,1112.5843513999998,1112.5843513999998,n,1.6908604000004743,1117.8742109,1117.8742109,14,3.541,,,,,sub-064,105,185,700,bloc_loop.csv,2023-11-02_11h34.03.244,PainUncertainty,2022.2.5,142.8140946080057,
grave,moderee,stimuli/330Hz,stimuli/moderee,bloc_3,prob80hthp_12trials.xlsx,2,24,80,20,0,,,,,0,2,2,2,1,5,17,3,,,,,,,,3.3,1117.8742109,1121.1790483999998,1121.17905171,0.3051295999998729,1121.630463,1121.630463,n,1.8175703000006251,1125.2923911999997,1125.2923911999997,15,1.768,,,,,sub-064,105,185,700,bloc_loop.csv,2023-11-02_11h34.03.244,PainUncertainty,2022.2.5,142.8140946080057,
aigu,forte,stimuli/660Hz,stimuli/forte,bloc_3,prob80hthp_12trials.xlsx,2,24,80,20,0,,,,,0,2,2,2,1,6,18,6,,,,,,,,3.5,1125.2923911999997,1128.7979968,1128.7980957099996,0.30490529999997307,1129.2424785999997,1129.2424785999997,m,1.555340100000194,1133.6384355999999,1133.6384355999999,41,2.767,,,,,sub-064,105,185,700,bloc_loop.csv,2023-11-02_11h34.03.244,PainUncertainty,2022.2.5,142.8140946080057,
grave,moderee,stimuli/330Hz,stimuli/moderee,bloc_3,prob80hthp_12trials.xlsx,2,24,80,20,0,,,,,0,2,2,2,1,7,19,2,,,,,,,,3.4,1133.6384355999999,1137.0420821999996,1137.0419981099997,0.30502549999982875,1137.4862380999998,1137.4862380999998,n,1.114011400000436,1142.6226466999997,1142.6226466999997,16,3.956,,,,,sub-064,105,185,700,bloc_loop.csv,2023-11-02_11h34.03.244,PainUncertainty,2022.2.5,142.8140946080057,
aigu,forte,stimuli/660Hz,stimuli/forte,bloc_3,prob80hthp_12trials.xlsx,2,24,80,20,0,,,,,0,2,2,2,1,8,20,8,,,,,,,,3.4,1142.6226466999997,1146.0221993999999,1146.02223841,0.30486089999976684,1146.4664208,1146.4664208,m,0.9006313000004411,1149.4162626999996,1149.4162626999996,38,1.997,,,,,sub-064,105,185,700,bloc_loop.csv,2023-11-02_11h34.03.244,PainUncertainty,2022.2.5,142.8140946080057,
grave,forte,stimuli/330Hz,stimuli/forte,bloc_3,prob80hthp_12trials.xlsx,2,24,80,20,0,,,,,0,2,2,2,1,9,21,5,,,,,,,,4.4,1149.4162626999996,1153.8217679,1153.82180791,0.3048975000001519,1154.2659403999996,1154.2659403999996,m,1.1079575000003388,1158.0190592999998,1158.0190592999998,39,2.58,,,,,sub-064,105,185,700,bloc_loop.csv,2023-11-02_11h34.03.244,PainUncertainty,2022.2.5,142.8140946080057,
grave,moderee,stimuli/330Hz,stimuli/moderee,bloc_3,prob80hthp_12trials.xlsx,2,24,80,20,0,,,,,0,2,2,2,1,10,22,0,,,,,,,,3.3,1158.0190592999998,1161.3226777999998,1161.3226988099998,0.305037899999661,1161.7670303999998,1161.7670303999998,n,2.0222905000005085,1167.0340293,1167.0340293,9,3.177,,,,,sub-064,105,185,700,bloc_loop.csv,2023-11-02_11h34.03.244,PainUncertainty,2022.2.5,142.8140946080057,
aigu,forte,stimuli/660Hz,stimuli/forte,bloc_3,prob80hthp_12trials.xlsx,2,24,80,20,0,,,,,0,2,2,2,1,11,23,9,,,,,,,,3.7,1167.0340293,1170.7336249,1170.73356481,0.3050956000001861,1171.1780762999997,1171.1780762999997,m,0.9682391000005737,1175.3618506999996,1175.3618506999996,42,3.156,,,,,sub-064,105,185,700,bloc_loop.csv,2023-11-02_11h34.03.244,PainUncertainty,2022.2.5,142.8140946080057,
grave,moderee,stimuli/330Hz,stimuli/moderee,bloc_4,prob50_50_4trials.xlsx,2,8,50,50,1,,,,,0,3,3,3,0,0,0,0,,,,,,,,4,1175.3618506999996,1179.3671167999996,1179.3673174099997,0.3049221999999645,1179.8139241,1179.8139241,n,1.6336238000003505,1183.3551874,1183.3551874,24,1.851,,,,,sub-064,105,185,700,bloc_loop.csv,2023-11-02_11h34.03.244,PainUncertainty,2022.2.5,142.8140946080057,
grave,forte,stimuli/330Hz,stimuli/forte,bloc_4,prob50_50_4trials.xlsx,2,8,50,50,1,,,,,0,3,3,3,0,1,1,1,,,,,,,,3.6,1183.3551874,1186.9577986,1186.9580587099997,0.30471510000006674,1187.4019546,1187.4019546,m,1.14467440000044,1191.0290034,1191.0290034,46,2.428,,,,,sub-064,105,185,700,bloc_loop.csv,2023-11-02_11h34.03.244,PainUncertainty,2022.2.5,142.8140946080057,
aigu,moderee,stimuli/660Hz,stimuli/moderee,bloc_4,prob50_50_4trials.xlsx,2,8,50,50,1,,,,,0,3,3,3,0,2,2,2,,,,,,,,5,1191.0290034,1196.0282902999998,1196.02817231,0.3051220000002104,1196.4724760999998,1196.4724760999998,n,1.2589512000004106,1199.3099598,1199.3099598,24,1.511,,,,,sub-064,105,185,700,bloc_loop.csv,2023-11-02_11h34.03.244,PainUncertainty,2022.2.5,142.8140946080057,
aigu,forte,stimuli/660Hz,stimuli/forte,bloc_4,prob50_50_4trials.xlsx,2,8,50,50,1,,,,,0,3,3,3,0,3,3,3,,,,,,,,3.8,1199.3099598,1203.1123291999997,1203.11230421,0.30509399999982634,1203.5565431999999,1203.5565431999999,m,1.2864756000008128,1207.5432496999997,1207.5432496999997,36,2.643,,,,,sub-064,105,185,700,bloc_loop.csv,2023-11-02_11h34.03.244,PainUncertainty,2022.2.5,142.8140946080057,
aigu,forte,stimuli/660Hz,stimuli/forte,bloc_4,prob50_50_4trials.xlsx,2,8,50,50,1,,,,,0,3,3,3,1,0,4,3,,,,,,,,3.5,1207.5432496999997,1211.0437970999997,1211.04389401,0.30508080000026894,1211.4918776999998,1211.4918776999998,m,1.1097447000006468,1216.0801493,1216.0801493,41,3.42,,,,,sub-064,105,185,700,bloc_loop.csv,2023-11-02_11h34.03.244,PainUncertainty,2022.2.5,142.8140946080057,
grave,moderee,stimuli/330Hz,stimuli/moderee,bloc_4,prob50_50_4trials.xlsx,2,8,50,50,1,,,,,0,3,3,3,1,1,5,0,,,,,,,,4.1,1216.0801493,1220.1837944999997,1220.18380761,0.3049231999998483,1220.6280665999998,1220.6280665999998,n,1.0887519000002612,1225.2590852999997,1225.2590852999997,11,3.476,,,,,sub-064,105,185,700,bloc_loop.csv,2023-11-02_11h34.03.244,PainUncertainty,2022.2.5,142.8140946080057,
grave,forte,stimuli/330Hz,stimuli/forte,bloc_4,prob50_50_4trials.xlsx,2,8,50,50,1,,,,,0,3,3,3,1,2,6,1,,,,,,,,4.1,1225.2590852999997,1229.3585252999997,1229.3585911099997,0.3049046000000999,1229.8026266999996,1229.8026266999996,m,1.2831612000004498,1233.5869820999997,1233.5869820999997,38,2.435,,,,,sub-064,105,185,700,bloc_loop.csv,2023-11-02_11h34.03.244,PainUncertainty,2022.2.5,142.8140946080057,
aigu,moderee,stimuli/660Hz,stimuli/moderee,bloc_4,prob50_50_4trials.xlsx,2,8,50,50,1,,,,,0,3,3,3,1,3,7,2,,,,,,,,3.7,1233.5869820999997,1237.2902875,1237.29034561,0.3052437999999711,1237.7380076999998,1237.7380076999998,n,1.1607577000004312,1244.6895397999997,1244.6895397999997,7,3.761,,,,,sub-064,105,185,700,bloc_loop.csv,2023-11-02_11h34.03.244,PainUncertainty,2022.2.5,142.8140946080057,
,,,,bloc_4,prob50_50_4trials.xlsx,2,8,50,50,1,,,,,0,3,3,3,,,,,0,0,0,0,,,,,,,,,,,,,,,,,,,1244.6895397999997,1274.0725407999998,sub-064,105,185,700,bloc_loop.csv,2023-11-02_11h34.03.244,PainUncertainty,2022.2.5,142.8140946080057,
aigu,moderee,stimuli/660Hz,stimuli/moderee,bloc_5,prob20hthp_12trials.xlsx,2,24,20,80,0,,,,,0,4,4,4,0,0,0,7,,,,,,,,4.5,1279.2934673999998,1283.7961001999997,1283.79624231,0.3049375999999029,1284.2448937999998,1284.2448937999998,n,0.8818972000003669,1288.7863670999996,1288.7863670999996,8,3.6,,,,,sub-064,105,185,700,bloc_loop.csv,2023-11-02_11h34.03.244,PainUncertainty,2022.2.5,142.8140946080057,
aigu,moderee,stimuli/660Hz,stimuli/moderee,bloc_5,prob20hthp_12trials.xlsx,2,24,20,80,0,,,,,0,4,4,4,0,1,1,10,,,,,,,,3,1288.7863670999996,1291.7895174999999,1291.78955651,0.3055511000002298,1292.2378114999997,1292.2378114999997,n,0.872118500000397,1296.9718129999997,1296.9718129999997,10,3.795,,,,,sub-064,105,185,700,bloc_loop.csv,2023-11-02_11h34.03.244,PainUncertainty,2022.2.5,142.8140946080057,
grave,forte,stimuli/330Hz,stimuli/forte,bloc_5,prob20hthp_12trials.xlsx,2,24,20,80,0,,,,,0,4,4,4,0,2,2,2,,,,,,,,3.1,1296.9718129999997,1300.0752284999999,1300.0752547099999,0.30541589999984353,1300.5244908999998,1300.5244908999998,m,1.3053668000006837,1305.0627900999998,1305.0627900999998,41,3.171,,,,,sub-064,105,185,700,bloc_loop.csv,2023-11-02_11h34.03.244,PainUncertainty,2022.2.5,142.8140946080057,
aigu,forte,stimuli/660Hz,stimuli/forte,bloc_5,prob20hthp_12trials.xlsx,2,24,20,80,0,,,,,0,4,4,4,0,3,3,11,,,,,,,,4.2,1305.0627900999998,1309.2641217999999,1309.26412001,0.30043909999994867,1309.7085702999998,1309.7085702999998,m,1.1023910000003525,1313.7569841,1313.7569841,43,2.892,,,,,sub-064,105,185,700,bloc_loop.csv,2023-11-02_11h34.03.244,PainUncertainty,2022.2.5,142.8140946080057,
grave,forte,stimuli/330Hz,stimuli/forte,bloc_5,prob20hthp_12trials.xlsx,2,24,20,80,0,,,,,0,4,4,4,0,4,4,1,,,,,,,,3,1313.7569841,1316.7576867999996,1316.75776741,0.3049799999998868,1317.2020949999996,1317.2020949999996,m,1.6616668000001482,1320.8394276999998,1320.8394276999998,44,1.92,,,,,sub-064,105,185,700,bloc_loop.csv,2023-11-02_11h34.03.244,PainUncertainty,2022.2.5,142.8140946080057,
aigu,moderee,stimuli/660Hz,stimuli/moderee,bloc_5,prob20hthp_12trials.xlsx,2,24,20,80,0,,,,,0,4,4,4,0,5,5,6,,,,,,,,4.4,1320.8394276999998,1325.2449659,1325.2447360099998,0.30517950000012206,1325.6888932999996,1325.6888932999996,n,1.1631281000004492,1330.9432481999997,1330.9432481999997,9,4.039,,,,,sub-064,105,185,700,bloc_loop.csv,2023-11-02_11h34.03.244,PainUncertainty,2022.2.5,142.8140946080057,
grave,forte,stimuli/330Hz,stimuli/forte,bloc_5,prob20hthp_12trials.xlsx,2,24,20,80,0,,,,,0,4,4,4,0,6,6,3,,,,,,,,4.5,1330.9432481999997,1335.4473310999997,1335.4473364099997,0.30571569999983694,1335.8948604999996,1335.8948604999996,m,1.4127227000003586,1338.9066749999997,1338.9066749999997,46,1.538,,,,,sub-064,105,185,700,bloc_loop.csv,2023-11-02_11h34.03.244,PainUncertainty,2022.2.5,142.8140946080057,
aigu,moderee,stimuli/660Hz,stimuli/moderee,bloc_5,prob20hthp_12trials.xlsx,2,24,20,80,0,,,,,0,4,4,4,0,7,7,9,,,,,,,,4.5,1338.9066749999997,1343.4067338,1343.40692121,0.3048380999998699,1343.8550019999998,1343.8550019999998,n,1.4580587000000378,1348.0485182999996,1348.0485182999996,8,2.684,,,,,sub-064,105,185,700,bloc_loop.csv,2023-11-02_11h34.03.244,PainUncertainty,2022.2.5,142.8140946080057,
grave,forte,stimuli/330Hz,stimuli/forte,bloc_5,prob20hthp_12trials.xlsx,2,24,20,80,0,,,,,0,4,4,4,0,8,8,0,,,,,,,,3.9,1348.0485182999996,1351.9493682999996,1351.9493582099997,0.3050293999999667,1352.3938639999997,1352.3938639999997,m,2.233404500000688,1356.4265063999997,1356.4265063999997,34,1.734,,,,,sub-064,105,185,700,bloc_loop.csv,2023-11-02_11h34.03.244,PainUncertainty,2022.2.5,142.8140946080057,
aigu,moderee,stimuli/660Hz,stimuli/moderee,bloc_5,prob20hthp_12trials.xlsx,2,24,20,80,0,,,,,0,4,4,4,0,9,9,8,,,,,,,,4,1356.4265063999997,1360.4299649999998,1360.4299181099998,0.30612120000023424,1360.8776177,1360.8776177,n,0.9821470000006229,1363.9416084,1363.9416084,11,2.017,,,,,sub-064,105,185,700,bloc_loop.csv,2023-11-02_11h34.03.244,PainUncertainty,2022.2.5,142.8140946080057,
grave,forte,stimuli/330Hz,stimuli/forte,bloc_5,prob20hthp_12trials.xlsx,2,24,20,80,0,,,,,0,4,4,4,0,10,10,4,,,,,,,,4.2,1363.9416084,1368.145724,1368.1456490099997,0.30511109999997643,1368.5898074999996,1368.5898074999996,m,2.10136010000042,1373.1488680999996,1373.1488680999996,35,2.392,,,,,sub-064,105,185,700,bloc_loop.csv,2023-11-02_11h34.03.244,PainUncertainty,2022.2.5,142.8140946080057,
grave,moderee,stimuli/330Hz,stimuli/moderee,bloc_5,prob20hthp_12trials.xlsx,2,24,20,80,0,,,,,0,4,4,4,0,11,11,5,,,,,,,,4.8,1373.1488680999996,1377.9523691,1377.95239681,0.3050969000000805,1378.3965214999998,1378.3965214999998,n,0.9470356000006177,1382.7554228999998,1382.7554228999998,4,3.35,,,,,sub-064,105,185,700,bloc_loop.csv,2023-11-02_11h34.03.244,PainUncertainty,2022.2.5,142.8140946080057,
aigu,moderee,stimuli/660Hz,stimuli/moderee,bloc_5,prob20hthp_12trials.xlsx,2,24,20,80,0,,,,,0,4,4,4,1,0,12,10,,,,,,,,3.8,1382.7554228999998,1386.5575150999998,1386.55758791,0.3055374999999003,1387.0065720999996,1387.0065720999996,n,1.0333563000003778,1392.0436685,1392.0436685,6,3.94,,,,,sub-064,105,185,700,bloc_loop.csv,2023-11-02_11h34.03.244,PainUncertainty,2022.2.5,142.8140946080057,
grave,moderee,stimuli/330Hz,stimuli/moderee,bloc_5,prob20hthp_12trials.xlsx,2,24,20,80,0,,,,,0,4,4,4,1,1,13,5,,,,,,,,3.2,1392.0436685,1395.2460136,1395.24608181,0.30521909999970376,1395.6903201999999,1395.6903201999999,n,1.1963522000000921,1399.1418439,1399.1418439,5,2.19,,,,,sub-064,105,185,700,bloc_loop.csv,2023-11-02_11h34.03.244,PainUncertainty,2022.2.5,142.8140946080057,
aigu,moderee,stimuli/660Hz,stimuli/moderee,bloc_5,prob20hthp_12trials.xlsx,2,24,20,80,0,,,,,0,4,4,4,1,2,14,6,,,,,,,,4.5,1399.1418439,1403.6428718999996,1403.6429710099999,0.30497890000015104,1404.0870808,1404.0870808,n,1.7252956000006634,1409.2773198,1409.2773198,6,3.4,,,,,sub-064,105,185,700,bloc_loop.csv,2023-11-02_11h34.03.244,PainUncertainty,2022.2.5,142.8140946080057,
grave,forte,stimuli/330Hz,stimuli/forte,bloc_5,prob20hthp_12trials.xlsx,2,24,20,80,0,,,,,0,4,4,4,1,3,15,2,,,,,,,,5,1409.2773198,1414.2831499,1414.28322121,0.304765899999893,1414.7273409999998,1414.7273409999998,m,1.7081471000005877,1419.3963147999998,1419.3963147999998,44,2.913,,,,,sub-064,105,185,700,bloc_loop.csv,2023-11-02_11h34.03.244,PainUncertainty,2022.2.5,142.8140946080057,
grave,forte,stimuli/330Hz,stimuli/forte,bloc_5,prob20hthp_12trials.xlsx,2,24,20,80,0,,,,,0,4,4,4,1,4,16,0,,,,,,,,5,1419.3963147999998,1424.3959259999997,1424.3959395099998,0.30457150000029287,1424.8434805999996,1424.8434805999996,m,1.409069400000135,1429.0381011,1429.0381011,40,2.72,,,,,sub-064,105,185,700,bloc_loop.csv,2023-11-02_11h34.03.244,PainUncertainty,2022.2.5,142.8140946080057,
grave,forte,stimuli/330Hz,stimuli/forte,bloc_5,prob20hthp_12trials.xlsx,2,24,20,80,0,,,,,0,4,4,4,1,5,17,4,,,,,,,,3.4,1429.0381011,1432.4379099999996,1432.4380790099997,0.30509540000002744,1432.8821893,1432.8821893,m,1.8078237000004265,1437.3670883,1437.3670883,42,2.608,,,,,sub-064,105,185,700,bloc_loop.csv,2023-11-02_11h34.03.244,PainUncertainty,2022.2.5,142.8140946080057,
aigu,moderee,stimuli/660Hz,stimuli/moderee,bloc_5,prob20hthp_12trials.xlsx,2,24,20,80,0,,,,,0,4,4,4,1,6,18,8,,,,,,,,4.3,1437.3670883,1441.6685764,1441.66976761,0.3038830999998936,1442.1124925,1442.1124925,n,1.2531027000004542,1447.9810372999996,1447.9810372999996,7,4.56,,,,,sub-064,105,185,700,bloc_loop.csv,2023-11-02_11h34.03.244,PainUncertainty,2022.2.5,142.8140946080057,
aigu,forte,stimuli/660Hz,stimuli/forte,bloc_5,prob20hthp_12trials.xlsx,2,24,20,80,0,,,,,0,4,4,4,1,7,19,11,,,,,,,,4.7,1447.9810372999996,1452.6837671999997,1452.68374131,0.3054335000001629,1453.1313103999996,1453.1313103999996,m,1.3469911000001957,1458.0543184999997,1458.0543184999997,46,3.518,,,,,sub-064,105,185,700,bloc_loop.csv,2023-11-02_11h34.03.244,PainUncertainty,2022.2.5,142.8140946080057,
aigu,moderee,stimuli/660Hz,stimuli/moderee,bloc_5,prob20hthp_12trials.xlsx,2,24,20,80,0,,,,,0,4,4,4,1,8,20,7,,,,,,,,4,1458.0543184999997,1462.0595690999999,1462.0595833099999,0.3053893999999673,1462.5077465999998,1462.5077465999998,None,,1467.3087127999997,1467.3087127999997,35,2.296,,,,,sub-064,105,185,700,bloc_loop.csv,2023-11-02_11h34.03.244,PainUncertainty,2022.2.5,142.8140946080057,
grave,forte,stimuli/330Hz,stimuli/forte,bloc_5,prob20hthp_12trials.xlsx,2,24,20,80,0,,,,,0,4,4,4,1,9,21,3,,,,,,,,3.3,1467.3087127999997,1470.6094027,1470.6094142099998,0.3052247000000534,1471.0569741999998,1471.0569741999998,m,1.26260960000036,1474.8872496,1474.8872496,48,2.504,,,,,sub-064,105,185,700,bloc_loop.csv,2023-11-02_11h34.03.244,PainUncertainty,2022.2.5,142.8140946080057,
aigu,moderee,stimuli/660Hz,stimuli/moderee,bloc_5,prob20hthp_12trials.xlsx,2,24,20,80,0,,,,,0,4,4,4,1,10,22,9,,,,,,,,4.8,1474.8872496,1479.6865965999996,1479.6866150099997,0.3049338999999236,1480.1307348999999,1480.1307348999999,n,1.6816997000005358,1484.8309556999998,1484.8309556999998,15,2.95,,,,,sub-064,105,185,700,bloc_loop.csv,2023-11-02_11h34.03.244,PainUncertainty,2022.2.5,142.8140946080057,
grave,forte,stimuli/330Hz,stimuli/forte,bloc_5,prob20hthp_12trials.xlsx,2,24,20,80,0,,,,,0,4,4,4,1,11,23,1,,,,,,,,3.7,1484.8309556999998,1488.5348786999998,1488.5349931099997,0.30529040000010355,1488.9835738999996,1488.9835738999996,m,1.3948398000006819,1492.8064436999998,1492.8064436999998,48,2.364,,,,,sub-064,105,185,700,bloc_loop.csv,2023-11-02_11h34.03.244,PainUncertainty,2022.2.5,142.8140946080057,
grave,forte,stimuli/330Hz,stimuli/forte,bloc_6,prob50_50_4trials.xlsx,2,8,50,50,0,,,,,0,5,5,5,0,0,0,1,,,,,,,,4.6,1492.8064436999998,1497.4108392999997,1497.4108544099997,0.3051895999997214,1497.8552161999996,1497.8552161999996,m,1.3003763000001527,1501.2487063999997,1501.2487063999997,47,2.024,,,,,sub-064,105,185,700,bloc_loop.csv,2023-11-02_11h34.03.244,PainUncertainty,2022.2.5,142.8140946080057,
grave,moderee,stimuli/330Hz,stimuli/moderee,bloc_6,prob50_50_4trials.xlsx,2,8,50,50,0,,,,,0,5,5,5,0,1,1,0,,,,,,,,4.3,1501.2487063999997,1505.5511229999997,1505.5510749099997,0.30050649999975576,1505.9954014999998,1505.9954014999998,n,1.6357394000006025,1510.3115841999997,1510.3115841999997,17,2.621,,,,,sub-064,105,185,700,bloc_loop.csv,2023-11-02_11h34.03.244,PainUncertainty,2022.2.5,142.8140946080057,
aigu,moderee,stimuli/660Hz,stimuli/moderee,bloc_6,prob50_50_4trials.xlsx,2,8,50,50,0,,,,,0,5,5,5,0,2,2,2,,,,,,,,4.3,1510.3115841999997,1514.6143972,1514.6143628099996,0.30491440000014336,1515.0628785,1515.0628785,n,1.49288930000057,1521.3761922999997,1521.3761922999997,10,4.753,,,,,sub-064,105,185,700,bloc_loop.csv,2023-11-02_11h34.03.244,PainUncertainty,2022.2.5,142.8140946080057,
aigu,forte,stimuli/660Hz,stimuli/forte,bloc_6,prob50_50_4trials.xlsx,2,8,50,50,0,,,,,0,5,5,5,0,3,3,3,,,,,,,,3.8,1521.3761922999997,1525.1781623999996,1525.1781559099998,0.30512339999995675,1525.6222691999997,1525.6222691999997,m,1.2911092000003919,1530.7749003,1530.7749003,44,3.808,,,,,sub-064,105,185,700,bloc_loop.csv,2023-11-02_11h34.03.244,PainUncertainty,2022.2.5,142.8140946080057,
aigu,moderee,stimuli/660Hz,stimuli/moderee,bloc_6,prob50_50_4trials.xlsx,2,8,50,50,0,,,,,0,5,5,5,1,0,4,2,,,,,,,,4.2,1530.7749003,1534.9780156999996,1534.9781112099997,0.3047606000000087,1535.4244422999996,1535.4244422999996,n,1.2499533000004703,1538.9438544,1538.9438544,10,2.21,,,,,sub-064,105,185,700,bloc_loop.csv,2023-11-02_11h34.03.244,PainUncertainty,2022.2.5,142.8140946080057,
aigu,forte,stimuli/660Hz,stimuli/forte,bloc_6,prob50_50_4trials.xlsx,2,8,50,50,0,,,,,0,5,5,5,1,1,5,3,,,,,,,,3,1538.9438544,1541.9443951999997,1541.9444115099998,0.2996003000002929,1542.3889052,1542.3889052,m,1.6673211000002084,1546.2030845,1546.2030845,47,2.08,,,,,sub-064,105,185,700,bloc_loop.csv,2023-11-02_11h34.03.244,PainUncertainty,2022.2.5,142.8140946080057,
grave,moderee,stimuli/330Hz,stimuli/moderee,bloc_6,prob50_50_4trials.xlsx,2,8,50,50,0,,,,,0,5,5,5,1,2,6,0,,,,,,,,5,1546.2030845,1551.2024263999997,1551.20247581,0.3046761999999035,1551.6461842999997,1551.6461842999997,n,1.9431853000000956,1556.2583885,1556.2583885,13,2.608,,,,,sub-064,105,185,700,bloc_loop.csv,2023-11-02_11h34.03.244,PainUncertainty,2022.2.5,142.8140946080057,
grave,forte,stimuli/330Hz,stimuli/forte,bloc_6,prob50_50_4trials.xlsx,2,8,50,50,0,,,,,0,5,5,5,1,3,7,1,,,,,,,,3.6,1556.2583885,1559.8637565999998,1559.86318301,0.30477410000003147,1560.3069044,1560.3069044,m,1.345680600000378,1564.2662552999996,1564.2662552999996,48,2.56,,,,,sub-064,105,185,700,bloc_loop.csv,2023-11-02_11h34.03.244,PainUncertainty,2022.2.5,142.8140946080057,
grave,moderee,stimuli/330Hz,stimuli/moderee,bloc_7,prob80hthp_12trials.xlsx,2,24,80,20,1,,,,,0,6,6,6,0,0,0,3,,,,,,,,3.3,1564.2662552999996,1567.5719511999996,1567.5721100099997,0.3047700000001896,1568.0164608999999,1568.0164608999999,n,1.038801500000318,1570.6778545999996,1570.6778545999996,10,1.559,,,,,sub-064,105,185,700,bloc_loop.csv,2023-11-02_11h34.03.244,PainUncertainty,2022.2.5,142.8140946080057,
grave,forte,stimuli/330Hz,stimuli/forte,bloc_7,prob80hthp_12trials.xlsx,2,24,80,20,1,,,,,0,6,6,6,0,1,1,5,,,,,,,,4.4,1570.6778545999996,1575.0798043,1575.0798484099998,0.3052536999998665,1575.5312249999997,1575.5312249999997,m,1.085492300000169,1578.8950648,1578.8950648,44,2.212,,,,,sub-064,105,185,700,bloc_loop.csv,2023-11-02_11h34.03.244,PainUncertainty,2022.2.5,142.8140946080057,
aigu,forte,stimuli/660Hz,stimuli/forte,bloc_7,prob80hthp_12trials.xlsx,2,24,80,20,1,,,,,0,6,6,6,0,2,2,8,,,,,,,,4.5,1578.8950648,1583.4007072999998,1583.4006955099997,0.2993369000000712,1583.8451332999998,1583.8451332999998,m,1.3984740000005331,1589.9729966999998,1589.9729966999998,50,4.663,,,,,sub-064,105,185,700,bloc_loop.csv,2023-11-02_11h34.03.244,PainUncertainty,2022.2.5,142.8140946080057,
grave,moderee,stimuli/330Hz,stimuli/moderee,bloc_7,prob80hthp_12trials.xlsx,2,24,80,20,1,,,,,0,6,6,6,0,3,3,0,,,,,,,,3.5,1589.9729966999998,1593.4776465,1593.47763031,0.30584170000020094,1593.9223463999997,1593.9223463999997,n,0.9354947000006177,1596.3050654999997,1596.3050654999997,14,1.387,,,,,sub-064,105,185,700,bloc_loop.csv,2023-11-02_11h34.03.244,PainUncertainty,2022.2.5,142.8140946080057,
grave,moderee,stimuli/330Hz,stimuli/moderee,bloc_7,prob80hthp_12trials.xlsx,2,24,80,20,1,,,,,0,6,6,6,0,4,4,4,,,,,,,,4.4,1596.3050654999997,1600.7077949999998,1600.70779161,0.3051941999997325,1601.1520974,1601.1520974,n,1.3379264000004696,1606.0871356999996,1606.0871356999996,15,3.546,,,,,sub-064,105,185,700,bloc_loop.csv,2023-11-02_11h34.03.244,PainUncertainty,2022.2.5,142.8140946080057,
aigu,forte,stimuli/660Hz,stimuli/forte,bloc_7,prob80hthp_12trials.xlsx,2,24,80,20,1,,,,,0,6,6,6,0,5,5,10,,,,,,,,3,1606.0871356999996,1609.0910812999996,1609.0911486099997,0.30475909999995565,1609.5421134999997,1609.5421134999997,m,1.2301529000005758,1614.1442426999997,1614.1442426999997,47,3.317,,,,,sub-064,105,185,700,bloc_loop.csv,2023-11-02_11h34.03.244,PainUncertainty,2022.2.5,142.8140946080057,
grave,moderee,stimuli/330Hz,stimuli/moderee,bloc_7,prob80hthp_12trials.xlsx,2,24,80,20,1,,,,,0,6,6,6,0,6,6,1,,,,,,,,3.1,1614.1442426999997,1617.2444262999998,1617.24438811,0.3051691999999093,1617.6886897,1617.6886897,n,0.7791088000003583,1620.8120090999996,1620.8120090999996,11,2.282,,,,,sub-064,105,185,700,bloc_loop.csv,2023-11-02_11h34.03.244,PainUncertainty,2022.2.5,142.8140946080057,
aigu,forte,stimuli/660Hz,stimuli/forte,bloc_7,prob80hthp_12trials.xlsx,2,24,80,20,1,,,,,0,6,6,6,0,7,7,9,,,,,,,,4.9,1620.8120090999996,1625.717506,1625.7175937099998,0.30519820000017717,1626.1620291999998,1626.1620291999998,m,1.6058715000003758,1630.6100841999996,1630.6100841999996,51,2.782,,,,,sub-064,105,185,700,bloc_loop.csv,2023-11-02_11h34.03.244,PainUncertainty,2022.2.5,142.8140946080057,
aigu,moderee,stimuli/660Hz,stimuli/moderee,bloc_7,prob80hthp_12trials.xlsx,2,24,80,20,1,,,,,0,6,6,6,0,8,8,11,,,,,,,,3.4,1630.6100841999996,1634.0106678999996,1634.0106556099997,0.30558479999990595,1634.4553695999998,1634.4553695999998,n,1.0814097000006768,1638.5560641999996,1638.5560641999996,15,2.956,,,,,sub-064,105,185,700,bloc_loop.csv,2023-11-02_11h34.03.244,PainUncertainty,2022.2.5,142.8140946080057,
grave,moderee,stimuli/330Hz,stimuli/moderee,bloc_7,prob80hthp_12trials.xlsx,2,24,80,20,1,,,,,0,6,6,6,0,9,9,2,,,,,,,,4.4,1638.5560641999996,1642.9559138,1642.95597071,0.30498869999973977,1643.4003058999997,1643.4003058999997,n,1.7854720000004818,1647.1405078999996,1647.1405078999996,16,1.898,,,,,sub-064,105,185,700,bloc_loop.csv,2023-11-02_11h34.03.244,PainUncertainty,2022.2.5,142.8140946080057,
aigu,forte,stimuli/660Hz,stimuli/forte,bloc_7,prob80hthp_12trials.xlsx,2,24,80,20,1,,,,,0,6,6,6,0,10,10,7,,,,,,,,3.1,1647.1405078999996,1650.2415867,1650.24146821,0.3050922000002174,1650.6856205,1650.6856205,m,1.4978528000006008,1654.7990086999998,1654.7990086999998,50,2.56,,,,,sub-064,105,185,700,bloc_loop.csv,2023-11-02_11h34.03.244,PainUncertainty,2022.2.5,142.8140946080057,
aigu,forte,stimuli/660Hz,stimuli/forte,bloc_7,prob80hthp_12trials.xlsx,2,24,80,20,1,,,,,0,6,6,6,0,11,11,6,,,,,,,,4.6,1654.7990086999998,1659.4026543999998,1659.40268271,0.29916030000003957,1659.8451578999998,1659.8451578999998,m,1.4333951000003253,1663.6384792,1663.6384792,50,2.303,,,,,sub-064,105,185,700,bloc_loop.csv,2023-11-02_11h34.03.244,PainUncertainty,2022.2.5,142.8140946080057,
aigu,moderee,stimuli/660Hz,stimuli/moderee,bloc_7,prob80hthp_12trials.xlsx,2,24,80,20,1,,,,,0,6,6,6,1,0,12,11,,,,,,,,3.7,1663.6384792,1667.3413076999996,1667.34127191,0.2990490000001955,1667.7834270999997,1667.7834270999997,n,1.34216620000052,1670.9297651999996,1670.9297651999996,13,1.741,,,,,sub-064,105,185,700,bloc_loop.csv,2023-11-02_11h34.03.244,PainUncertainty,2022.2.5,142.8140946080057,
grave,moderee,stimuli/330Hz,stimuli/moderee,bloc_7,prob80hthp_12trials.xlsx,2,24,80,20,1,,,,,0,6,6,6,1,1,13,4,,,,,,,,4.4,1670.9297651999996,1675.3350376999997,1675.33507321,0.3051047000003564,1675.7808791999996,1675.7808791999996,n,1.0004851000003327,1678.9231658999997,1678.9231658999997,10,2.08,,,,,sub-064,105,185,700,bloc_loop.csv,2023-11-02_11h34.03.244,PainUncertainty,2022.2.5,142.8140946080057,
aigu,forte,stimuli/660Hz,stimuli/forte,bloc_7,prob80hthp_12trials.xlsx,2,24,80,20,1,,,,,0,6,6,6,1,2,14,7,,,,,,,,5,1678.9231658999997,1683.9259545,1683.9258994099998,0.3052480999999716,1684.3699907999999,1684.3699907999999,m,0.9904725000001235,1688.9784495999997,1688.9784495999997,48,3.56,,,,,sub-064,105,185,700,bloc_loop.csv,2023-11-02_11h34.03.244,PainUncertainty,2022.2.5,142.8140946080057,
grave,moderee,stimuli/330Hz,stimuli/moderee,bloc_7,prob80hthp_12trials.xlsx,2,24,80,20,1,,,,,0,6,6,6,1,3,15,2,,,,,,,,4,1688.9784495999997,1692.9829327999996,1692.98286471,0.2995943000000807,1693.4273273,1693.4273273,n,1.4481001000003744,1697.9475318999998,1697.9475318999998,14,3.005,,,,,sub-064,105,185,700,bloc_loop.csv,2023-11-02_11h34.03.244,PainUncertainty,2022.2.5,142.8140946080057,
aigu,forte,stimuli/660Hz,stimuli/forte,bloc_7,prob80hthp_12trials.xlsx,2,24,80,20,1,,,,,0,6,6,6,1,4,16,6,,,,,,,,4.2,1697.9475318999998,1702.1502588999997,1702.15016391,0.30534709999983534,1702.5944467,1702.5944467,m,1.3207447000004322,1706.3069603999998,1706.3069603999998,43,2.328,,,,,sub-064,105,185,700,bloc_loop.csv,2023-11-02_11h34.03.244,PainUncertainty,2022.2.5,142.8140946080057,
aigu,forte,stimuli/660Hz,stimuli/forte,bloc_7,prob80hthp_12trials.xlsx,2,24,80,20,1,,,,,0,6,6,6,1,5,17,8,,,,,,,,3.4,1706.3069603999998,1709.7068454999999,1709.7067741099997,0.3052181999996719,1710.1547837999997,1710.1547837999997,m,1.5993577000003825,1715.3391964999996,1715.3391964999996,46,3.525,,,,,sub-064,105,185,700,bloc_loop.csv,2023-11-02_11h34.03.244,PainUncertainty,2022.2.5,142.8140946080057,
aigu,forte,stimuli/660Hz,stimuli/forte,bloc_7,prob80hthp_12trials.xlsx,2,24,80,20,1,,,,,0,6,6,6,1,6,18,10,,,,,,,,3,1715.3391964999996,1718.3399708999996,1718.3399634099999,0.3047682999999779,1718.7839187999998,1718.7839187999998,m,1.4331050000005234,1722.7085155999998,1722.7085155999998,48,2.434,,,,,sub-064,105,185,700,bloc_loop.csv,2023-11-02_11h34.03.244,PainUncertainty,2022.2.5,142.8140946080057,
grave,moderee,stimuli/330Hz,stimuli/moderee,bloc_7,prob80hthp_12trials.xlsx,2,24,80,20,1,,,,,0,6,6,6,1,7,19,3,,,,,,,,3.8,1722.7085155999998,1726.5142724999996,1726.5143489099999,0.30494839999983014,1726.9583988,1726.9583988,n,1.6552007000004778,1731.3746265,1731.3746265,11,2.699,,,,,sub-064,105,185,700,bloc_loop.csv,2023-11-02_11h34.03.244,PainUncertainty,2022.2.5,142.8140946080057,
grave,moderee,stimuli/330Hz,stimuli/moderee,bloc_7,prob80hthp_12trials.xlsx,2,24,80,20,1,,,,,0,6,6,6,1,8,20,1,,,,,,,,3.1,1731.3746265,1734.4740318999998,1734.47382541,0.30492309999999634,1734.9177326999998,1734.9177326999998,n,1.0262860000007095,1740.9972481,1740.9972481,11,5.005,,,,,sub-064,105,185,700,bloc_loop.csv,2023-11-02_11h34.03.244,PainUncertainty,2022.2.5,142.8140946080057,
grave,forte,stimuli/330Hz,stimuli/forte,bloc_7,prob80hthp_12trials.xlsx,2,24,80,20,1,,,,,0,6,6,6,1,9,21,5,,,,,,,,3,1740.9972481,1744.0025217999996,1744.00259901,0.3046589999999014,1744.4466046999996,1744.4466046999996,None,,1748.2570917999997,1748.2570917999997,30,1.316,1746.9147676999996,1746.9147676999996,,,sub-064,105,185,700,bloc_loop.csv,2023-11-02_11h34.03.244,PainUncertainty,2022.2.5,142.8140946080057,
aigu,forte,stimuli/660Hz,stimuli/forte,bloc_7,prob80hthp_12trials.xlsx,2,24,80,20,1,,,,,0,6,6,6,1,10,22,9,,,,,,,,3,1748.2570917999997,1751.2606558999996,1751.26061861,0.30489799999986644,1751.7049190999996,1751.7049190999996,m,1.44519100000025,1757.0640021999998,1757.0640021999998,35,3.859,,,,,sub-064,105,185,700,bloc_loop.csv,2023-11-02_11h34.03.244,PainUncertainty,2022.2.5,142.8140946080057,
grave,moderee,stimuli/330Hz,stimuli/moderee,bloc_7,prob80hthp_12trials.xlsx,2,24,80,20,1,,,,,0,6,6,6,1,11,23,0,,,,,,,,3,1757.0640021999998,1760.0671518999998,1760.0670685099997,0.30546959999992396,1760.5155879999998,1760.5155879999998,n,0.9414925000000949,1766.2644164999997,1766.2644164999997,8,2.774,,,,,sub-064,105,185,700,bloc_loop.csv,2023-11-02_11h34.03.244,PainUncertainty,2022.2.5,142.8140946080057,
,,,,bloc_7,prob80hthp_12trials.xlsx,2,24,80,20,1,,,,,0,6,6,6,,,,,0,0,0,0,,,,,,,,,,,,,,,,,,,1766.2644164999997,2246.7911105999997,sub-064,105,185,700,bloc_loop.csv,2023-11-02_11h34.03.244,PainUncertainty,2022.2.5,142.8140946080057,
grave,forte,stimuli/330Hz,stimuli/forte,bloc_8,prob50_50_4trials.xlsx,3,12,50,50,0,,,,,0,7,7,7,0,0,0,1,,,,,,,,4.8,2247.6633092999996,2252.4650583,2252.46509111,0.3049184999999852,2252.9092656,2252.9092656,m,1.1751288000004934,2256.4061011,2256.4061011,41,2.268,,,,,sub-064,105,185,700,bloc_loop.csv,2023-11-02_11h34.03.244,PainUncertainty,2022.2.5,142.8140946080057,
aigu,moderee,stimuli/660Hz,stimuli/moderee,bloc_8,prob50_50_4trials.xlsx,3,12,50,50,0,,,,,0,7,7,7,0,1,1,2,,,,,,,,3.2,2256.4061011,2259.6118087,2259.6118978099994,0.30491499999970983,2260.0602582999995,2260.0602582999995,n,1.4605231000005006,2264.4473551999995,2264.4473551999995,14,2.872,,,,,sub-064,105,185,700,bloc_loop.csv,2023-11-02_11h34.03.244,PainUncertainty,2022.2.5,142.8140946080057,
aigu,forte,stimuli/660Hz,stimuli/forte,bloc_8,prob50_50_4trials.xlsx,3,12,50,50,0,,,,,0,7,7,7,0,2,2,3,,,,,,,,3.5,2264.4473551999995,2267.9464907999995,2267.94650481,0.3049975000003542,2268.3944182,2268.3944182,m,1.6412152000002607,2272.7785240999997,2272.7785240999997,42,2.678,,,,,sub-064,105,185,700,bloc_loop.csv,2023-11-02_11h34.03.244,PainUncertainty,2022.2.5,142.8140946080057,
grave,moderee,stimuli/330Hz,stimuli/moderee,bloc_8,prob50_50_4trials.xlsx,3,12,50,50,0,,,,,0,7,7,7,0,3,3,0,,,,,,,,4.4,2272.7785240999997,2277.1833708999998,2277.18329911,0.2993643999998312,2277.6256436,2277.6256436,n,1.8088864000001195,2280.5644028,2280.5644028,20,1.067,,,,,sub-064,105,185,700,bloc_loop.csv,2023-11-02_11h34.03.244,PainUncertainty,2022.2.5,142.8140946080057,
aigu,moderee,stimuli/660Hz,stimuli/moderee,bloc_8,prob50_50_4trials.xlsx,3,12,50,50,0,,,,,0,7,7,7,1,0,4,2,,,,,,,,4.7,2280.5644028,2285.2678309,2285.2695723099996,0.3033384999998816,2285.7117453999995,2285.7117453999995,n,1.1366536000004999,2289.9628859,2289.9628859,13,3.052,,,,,sub-064,105,185,700,bloc_loop.csv,2023-11-02_11h34.03.244,PainUncertainty,2022.2.5,142.8140946080057,
aigu,forte,stimuli/660Hz,stimuli/forte,bloc_8,prob50_50_4trials.xlsx,3,12,50,50,0,,,,,0,7,7,7,1,1,5,3,,,,,,,,3.7,2289.9628859,2293.6643768999998,2293.6644220099997,0.30486870000004274,2294.1087822999993,2294.1087822999993,m,1.117692400001033,2297.3483272,2297.3483272,41,2.066,,,,,sub-064,105,185,700,bloc_loop.csv,2023-11-02_11h34.03.244,PainUncertainty,2022.2.5,142.8140946080057,
grave,forte,stimuli/330Hz,stimuli/forte,bloc_8,prob50_50_4trials.xlsx,3,12,50,50,0,,,,,0,7,7,7,1,2,6,1,,,,,,,,3.8,2297.3483272,2301.1514262999995,2301.1516286099995,0.30474300000059884,2301.5954661,2301.5954661,m,1.4289707999996608,2306.6206349,2306.6206349,39,3.546,,,,,sub-064,105,185,700,bloc_loop.csv,2023-11-02_11h34.03.244,PainUncertainty,2022.2.5,142.8140946080057,
grave,moderee,stimuli/330Hz,stimuli/moderee,bloc_8,prob50_50_4trials.xlsx,3,12,50,50,0,,,,,0,7,7,7,1,3,7,0,,,,,,,,4.1,2306.6206349,2310.7222227999996,2310.7221659099996,0.3052620999997089,2311.1697559,2311.1697559,n,1.8100724000005357,2315.9109019,2315.9109019,14,2.867,,,,,sub-064,105,185,700,bloc_loop.csv,2023-11-02_11h34.03.244,PainUncertainty,2022.2.5,142.8140946080057,
grave,moderee,stimuli/330Hz,stimuli/moderee,bloc_8,prob50_50_4trials.xlsx,3,12,50,50,0,,,,,0,7,7,7,2,0,8,0,,,,,,,,3.9,2315.9109019,2319.8132775,2319.81324571,0.3001383999999234,2320.2559779999997,2320.2559779999997,n,1.8579600000002756,2325.3248965,2325.3248965,19,3.155,,,,,sub-064,105,185,700,bloc_loop.csv,2023-11-02_11h34.03.244,PainUncertainty,2022.2.5,142.8140946080057,
aigu,forte,stimuli/660Hz,stimuli/forte,bloc_8,prob50_50_4trials.xlsx,3,12,50,50,0,,,,,0,7,7,7,2,1,9,3,,,,,,,,3.1,2325.3248965,2328.4255824999996,2328.42544601,0.304957899999863,2328.8695918,2328.8695918,m,1.5426193000002968,2333.0477777,2333.0477777,43,2.586,,,,,sub-064,105,185,700,bloc_loop.csv,2023-11-02_11h34.03.244,PainUncertainty,2022.2.5,142.8140946080057,
grave,forte,stimuli/330Hz,stimuli/forte,bloc_8,prob50_50_4trials.xlsx,3,12,50,50,0,,,,,0,7,7,7,2,2,10,1,,,,,,,,4,2333.0477777,2337.0514748,2337.0514516099993,0.3006740999999238,2337.4962547,2337.4962547,m,1.2525226999996448,2341.6169725999994,2341.6169725999994,43,2.803,,,,,sub-064,105,185,700,bloc_loop.csv,2023-11-02_11h34.03.244,PainUncertainty,2022.2.5,142.8140946080057,
aigu,moderee,stimuli/660Hz,stimuli/moderee,bloc_8,prob50_50_4trials.xlsx,3,12,50,50,0,,,,,0,7,7,7,2,3,11,2,,,,,,,,4.8,2341.6169725999994,2346.4208243,2346.42090681,0.30500409999967815,2346.8651264999994,2346.8651264999994,n,1.0238955000004353,2351.5760641,2351.5760641,10,3.622,,,,,sub-064,105,185,700,bloc_loop.csv,2023-11-02_11h34.03.244,PainUncertainty,2022.2.5,142.8140946080057,
aigu,moderee,stimuli/660Hz,stimuli/moderee,bloc_9,prob20hthp_12trials.xlsx,3,36,80,20,0,,,,,0,8,8,8,0,0,0,10,,,,,,,,4.6,2351.5760641,2356.178639,2356.17866531,0.3049490000003061,2356.6270013999997,2356.6270013999997,None,,2361.0722866,2361.0722866,14,1.942,,,,,sub-064,105,185,700,bloc_loop.csv,2023-11-02_11h34.03.244,PainUncertainty,2022.2.5,142.8140946080057,
grave,forte,stimuli/330Hz,stimuli/forte,bloc_9,prob20hthp_12trials.xlsx,3,36,80,20,0,,,,,0,8,8,8,0,1,1,3,,,,,,,,4.5,2361.0722866,2365.5757032999995,2365.5756760099994,0.3052276999997048,2366.0198386999996,2366.0198386999996,m,1.2826033000010284,2369.1449325999997,2369.1449325999997,38,1.788,,,,,sub-064,105,185,700,bloc_loop.csv,2023-11-02_11h34.03.244,PainUncertainty,2022.2.5,142.8140946080057,
grave,forte,stimuli/330Hz,stimuli/forte,bloc_9,prob20hthp_12trials.xlsx,3,36,80,20,0,,,,,0,8,8,8,0,2,2,2,,,,,,,,4.8,2369.1449325999997,2373.9446469,2373.9446424099997,0.3049989999999525,2374.3890142999994,2374.3890142999994,m,1.3050018000003547,2379.7274745,2379.7274745,45,3.976,,,,,sub-064,105,185,700,bloc_loop.csv,2023-11-02_11h34.03.244,PainUncertainty,2022.2.5,142.8140946080057,
aigu,moderee,stimuli/660Hz,stimuli/moderee,bloc_9,prob20hthp_12trials.xlsx,3,36,80,20,0,,,,,0,8,8,8,0,3,3,6,,,,,,,,3.1,2379.7274745,2382.8280676,2382.8281149099994,0.304708099999516,2383.2717852,2383.2717852,n,0.9698123000007399,2386.6038095999997,2386.6038095999997,11,2.296,,,,,sub-064,105,185,700,bloc_loop.csv,2023-11-02_11h34.03.244,PainUncertainty,2022.2.5,142.8140946080057,
grave,forte,stimuli/330Hz,stimuli/forte,bloc_9,prob20hthp_12trials.xlsx,3,36,80,20,0,,,,,0,8,8,8,0,4,4,1,,,,,,,,3.7,2386.6038095999997,2390.3077072,2390.3077103099995,0.3053026999996291,2390.7519493999994,2390.7519493999994,m,1.4152662000005876,2395.1065601999994,2395.1065601999994,42,2.886,,,,,sub-064,105,185,700,bloc_loop.csv,2023-11-02_11h34.03.244,PainUncertainty,2022.2.5,142.8140946080057,
aigu,moderee,stimuli/660Hz,stimuli/moderee,bloc_9,prob20hthp_12trials.xlsx,3,36,80,20,0,,,,,0,8,8,8,0,5,5,8,,,,,,,,5,2395.1065601999994,2400.1074444,2400.1073319099996,0.30543910000051255,2400.5518691,2400.5518691,None,,2406.0417199999997,2406.0417199999997,19,2.998,2403.019986,2403.019986,,,sub-064,105,185,700,bloc_loop.csv,2023-11-02_11h34.03.244,PainUncertainty,2022.2.5,142.8140946080057,
grave,forte,stimuli/330Hz,stimuli/forte,bloc_9,prob20hthp_12trials.xlsx,3,36,80,20,0,,,,,0,8,8,8,0,6,6,0,,,,,,,,3.4,2406.0417199999997,2409.4419803999995,2409.44197791,0.3049901999993381,2409.8860217999995,2409.8860217999995,m,1.5075504000005822,2413.0121155,2413.0121155,43,1.558,,,,,sub-064,105,185,700,bloc_loop.csv,2023-11-02_11h34.03.244,PainUncertainty,2022.2.5,142.8140946080057,
aigu,moderee,stimuli/660Hz,stimuli/moderee,bloc_9,prob20hthp_12trials.xlsx,3,36,80,20,0,,,,,0,8,8,8,0,7,7,9,,,,,,,,4.8,2413.0121155,2417.8179318999996,2417.81789871,0.3049844999995912,2418.2661280999996,2418.2661280999996,None,,2422.2046786999995,2422.2046786999995,20,1.434,,,,,sub-064,105,185,700,bloc_loop.csv,2023-11-02_11h34.03.244,PainUncertainty,2022.2.5,142.8140946080057,
grave,forte,stimuli/330Hz,stimuli/forte,bloc_9,prob20hthp_12trials.xlsx,3,36,80,20,0,,,,,0,8,8,8,0,8,8,4,,,,,,,,3.2,2422.2046786999995,2425.4090634,2425.40917111,0.30507569999917905,2425.8539741,2425.8539741,m,1.0030555000003005,2429.1588841,2429.1588841,43,2.241,,,,,sub-064,105,185,700,bloc_loop.csv,2023-11-02_11h34.03.244,PainUncertainty,2022.2.5,142.8140946080057,
aigu,moderee,stimuli/660Hz,stimuli/moderee,bloc_9,prob20hthp_12trials.xlsx,3,36,80,20,0,,,,,0,8,8,8,0,9,9,7,,,,,,,,3,2429.1588841,2432.1602817999997,2432.161793009999,0.301254500000141,2432.6060837,2432.6060837,n,0.8812218000002758,2436.5301526999997,2436.5301526999997,9,2.976,,,,,sub-064,105,185,700,bloc_loop.csv,2023-11-02_11h34.03.244,PainUncertainty,2022.2.5,142.8140946080057,
aigu,forte,stimuli/660Hz,stimuli/forte,bloc_9,prob20hthp_12trials.xlsx,3,36,80,20,0,,,,,0,8,8,8,0,10,10,11,,,,,,,,3.1,2436.5301526999997,2439.6329463999996,2439.63292191,0.3049922999998671,2440.0770767999998,2440.0770767999998,m,1.0495670000000246,2442.5876212999997,2442.5876212999997,48,1.414,,,,,sub-064,105,185,700,bloc_loop.csv,2023-11-02_11h34.03.244,PainUncertainty,2022.2.5,142.8140946080057,
grave,moderee,stimuli/330Hz,stimuli/moderee,bloc_9,prob20hthp_12trials.xlsx,3,36,80,20,0,,,,,0,8,8,8,0,11,11,5,,,,,,,,4.5,2442.5876212999997,2447.0922304,2447.0921807099994,0.3054924999996729,2447.5389237999993,2447.5389237999993,n,1.4833649000011064,2451.6995807999997,2451.6995807999997,10,2.628,,,,,sub-064,105,185,700,bloc_loop.csv,2023-11-02_11h34.03.244,PainUncertainty,2022.2.5,142.8140946080057,
grave,forte,stimuli/330Hz,stimuli/forte,bloc_9,prob20hthp_12trials.xlsx,3,36,80,20,0,,,,,0,8,8,8,1,0,12,4,,,,,,,,4,2451.6995807999997,2455.7045460999993,2455.7045455099997,0.30522320000000036,2456.1507501,2456.1507501,m,1.0704470000000583,2459.7265492,2459.7265492,49,2.441,,,,,sub-064,105,185,700,bloc_loop.csv,2023-11-02_11h34.03.244,PainUncertainty,2022.2.5,142.8140946080057,
grave,forte,stimuli/330Hz,stimuli/forte,bloc_9,prob20hthp_12trials.xlsx,3,36,80,20,0,,,,,0,8,8,8,1,1,13,0,,,,,,,,3.9,2459.7265492,2463.6288352999995,2463.62885371,0.3011255000001256,2464.0748119999994,2464.0748119999994,m,1.2372277000004033,2467.5435499,2467.5435499,46,2.168,,,,,sub-064,105,185,700,bloc_loop.csv,2023-11-02_11h34.03.244,PainUncertainty,2022.2.5,142.8140946080057,
aigu,forte,stimuli/660Hz,stimuli/forte,bloc_9,prob20hthp_12trials.xlsx,3,36,80,20,0,,,,,0,8,8,8,1,2,14,11,,,,,,,,3,2467.5435499,2470.5466370999998,2470.54668941,0.30505020000055083,2470.9944562999995,2470.9944562999995,m,1.1647284000009677,2473.9848300999997,2473.9848300999997,50,1.768,,,,,sub-064,105,185,700,bloc_loop.csv,2023-11-02_11h34.03.244,PainUncertainty,2022.2.5,142.8140946080057,
aigu,moderee,stimuli/660Hz,stimuli/moderee,bloc_9,prob20hthp_12trials.xlsx,3,36,80,20,0,,,,,0,8,8,8,1,3,15,10,,,,,,,,4.1,2473.9848300999997,2478.0891513,2478.08919031,0.30525260000013077,2478.5365910999994,2478.5365910999994,n,1.7052244000005885,2482.6817029,2482.6817029,14,2.379,,,,,sub-064,105,185,700,bloc_loop.csv,2023-11-02_11h34.03.244,PainUncertainty,2022.2.5,142.8140946080057,
grave,forte,stimuli/330Hz,stimuli/forte,bloc_9,prob20hthp_12trials.xlsx,3,36,80,20,0,,,,,0,8,8,8,1,4,16,1,,,,,,,,3.1,2482.6817029,2485.7841324999995,2485.7842377099996,0.30533509999986563,2486.2331319,2486.2331319,m,1.2229657000007137,2489.9874774999994,2489.9874774999994,50,2.469,,,,,sub-064,105,185,700,bloc_loop.csv,2023-11-02_11h34.03.244,PainUncertainty,2022.2.5,142.8140946080057,
aigu,moderee,stimuli/660Hz,stimuli/moderee,bloc_9,prob20hthp_12trials.xlsx,3,36,80,20,0,,,,,0,8,8,8,1,5,17,6,,,,,,,,3,2489.9874774999994,2492.9868901999994,2492.98703871,0.30500729999948817,2493.4330178999994,2493.4330178999994,n,1.033940100000109,2497.7881797999994,2497.7881797999994,12,3.266,,,,,sub-064,105,185,700,bloc_loop.csv,2023-11-02_11h34.03.244,PainUncertainty,2022.2.5,142.8140946080057,
grave,forte,stimuli/330Hz,stimuli/forte,bloc_9,prob20hthp_12trials.xlsx,3,36,80,20,0,,,,,0,8,8,8,1,6,18,3,,,,,,,,3.9,2497.7881797999994,2501.6909374,2501.6894974099996,0.30462470000020403,2502.1348911,2502.1348911,None,,2507.9715856999997,2507.9715856999997,43,3.342,2504.6049974000002,2504.6049974000002,,,sub-064,105,185,700,bloc_loop.csv,2023-11-02_11h34.03.244,PainUncertainty,2022.2.5,142.8140946080057,
aigu,moderee,stimuli/660Hz,stimuli/moderee,bloc_9,prob20hthp_12trials.xlsx,3,36,80,20,0,,,,,0,8,8,8,1,7,19,7,,,,,,,,4.3,2507.9715856999997,2512.2734330999997,2512.2734327099997,0.30550549999952636,2512.7218024,2512.7218024,n,1.5581970000002912,2516.6524489,2516.6524489,10,2.308,,,,,sub-064,105,185,700,bloc_loop.csv,2023-11-02_11h34.03.244,PainUncertainty,2022.2.5,142.8140946080057,
aigu,moderee,stimuli/660Hz,stimuli/moderee,bloc_9,prob20hthp_12trials.xlsx,3,36,80,20,0,,,,,0,8,8,8,1,8,20,9,,,,,,,,3.7,2516.6524489,2520.3576638,2520.3576828099995,0.3067041000003883,2520.8094878999996,2520.8094878999996,n,1.385881999999583,2524.3276126999995,2524.3276126999995,11,2.066,,,,,sub-064,105,185,700,bloc_loop.csv,2023-11-02_11h34.03.244,PainUncertainty,2022.2.5,142.8140946080057,
grave,forte,stimuli/330Hz,stimuli/forte,bloc_9,prob20hthp_12trials.xlsx,3,36,80,20,0,,,,,0,8,8,8,1,9,21,2,,,,,,,,4.4,2524.3276126999995,2528.7266561,2528.72668661,0.3051201000007495,2529.1711143999996,2529.1711143999996,m,1.0887313000012,2532.9906375999994,2532.9906375999994,47,2.671,,,,,sub-064,105,185,700,bloc_loop.csv,2023-11-02_11h34.03.244,PainUncertainty,2022.2.5,142.8140946080057,
aigu,moderee,stimuli/660Hz,stimuli/moderee,bloc_9,prob20hthp_12trials.xlsx,3,36,80,20,0,,,,,0,8,8,8,1,10,22,8,,,,,,,,4.9,2532.9906375999994,2537.8945867999996,2537.89461011,0.3049730000002455,2538.3386527999996,2538.3386527999996,n,2.158211200000551,2543.3344652,2543.3344652,17,2.782,,,,,sub-064,105,185,700,bloc_loop.csv,2023-11-02_11h34.03.244,PainUncertainty,2022.2.5,142.8140946080057,
grave,moderee,stimuli/330Hz,stimuli/moderee,bloc_9,prob20hthp_12trials.xlsx,3,36,80,20,0,,,,,0,8,8,8,1,11,23,5,,,,,,,,4.8,2543.3344652,2548.1387217999995,2548.1387060099996,0.305063899999368,2548.5832649999998,2548.5832649999998,n,1.6467091000004075,2553.5976547999994,2553.5976547999994,14,3.311,,,,,sub-064,105,185,700,bloc_loop.csv,2023-11-02_11h34.03.244,PainUncertainty,2022.2.5,142.8140946080057,
grave,forte,stimuli/330Hz,stimuli/forte,bloc_9,prob20hthp_12trials.xlsx,3,36,80,20,0,,,,,0,8,8,8,2,0,24,3,,,,,,,,3.3,2553.5976547999994,2556.897123,2556.8970494099995,0.30553669999972044,2557.3442093999997,2557.3442093999997,m,1.0783163000005516,2560.7433958999995,2560.7433958999995,46,2.267,,,,,sub-064,105,185,700,bloc_loop.csv,2023-11-02_11h34.03.244,PainUncertainty,2022.2.5,142.8140946080057,
aigu,moderee,stimuli/660Hz,stimuli/moderee,bloc_9,prob20hthp_12trials.xlsx,3,36,80,20,0,,,,,0,8,8,8,2,1,25,10,,,,,,,,5,2560.7433958999995,2565.7449397999994,2565.7449964099997,0.3050844999997935,2566.1890782999994,2566.1890782999994,n,1.4067696000001888,2571.8554928999997,2571.8554928999997,10,4.207,,,,,sub-064,105,185,700,bloc_loop.csv,2023-11-02_11h34.03.244,PainUncertainty,2022.2.5,142.8140946080057,
grave,forte,stimuli/330Hz,stimuli/forte,bloc_9,prob20hthp_12trials.xlsx,3,36,80,20,0,,,,,0,8,8,8,2,2,26,4,,,,,,,,4.2,2571.8554928999997,2576.058738,2576.0587078099998,0.3047827000000325,2576.5028454,2576.5028454,m,1.599591700000019,2579.5603342,2579.5603342,50,1.399,,,,,sub-064,105,185,700,bloc_loop.csv,2023-11-02_11h34.03.244,PainUncertainty,2022.2.5,142.8140946080057,
aigu,moderee,stimuli/660Hz,stimuli/moderee,bloc_9,prob20hthp_12trials.xlsx,3,36,80,20,0,,,,,0,8,8,8,2,3,27,6,,,,,,,,3.4,2579.5603342,2582.9623153,2582.9623059099995,0.3048585999995339,2583.4064093,2583.4064093,n,0.848732000000382,2586.0679938,2586.0679938,12,1.753,,,,,sub-064,105,185,700,bloc_loop.csv,2023-11-02_11h34.03.244,PainUncertainty,2022.2.5,142.8140946080057,
grave,moderee,stimuli/330Hz,stimuli/moderee,bloc_9,prob20hthp_12trials.xlsx,3,36,80,20,0,,,,,0,8,8,8,2,4,28,5,,,,,,,,3.7,2586.0679938,2589.7689969,2589.7690789099997,0.3047246999994968,2590.2128706999997,2590.2128706999997,n,1.0840020000005097,2592.8610764,2592.8610764,11,1.501,,,,,sub-064,105,185,700,bloc_loop.csv,2023-11-02_11h34.03.244,PainUncertainty,2022.2.5,142.8140946080057,
aigu,forte,stimuli/660Hz,stimuli/forte,bloc_9,prob20hthp_12trials.xlsx,3,36,80,20,0,,,,,0,8,8,8,2,5,29,11,,,,,,,,3.3,2592.8610764,2596.1651712,2596.1653275099998,0.3052609999995184,2596.6094352999994,2596.6094352999994,m,0.9368431000002602,2600.0574698999994,2600.0574698999994,49,2.444,,,,,sub-064,105,185,700,bloc_loop.csv,2023-11-02_11h34.03.244,PainUncertainty,2022.2.5,142.8140946080057,
grave,forte,stimuli/330Hz,stimuli/forte,bloc_9,prob20hthp_12trials.xlsx,3,36,80,20,0,,,,,0,8,8,8,2,6,30,1,,,,,,,,3.2,2600.0574698999994,2603.2574482999994,2603.2571985099994,0.304986000000099,2603.7055624,2603.7055624,m,0.9972532000001593,2607.7441764,2607.7441764,47,2.983,,,,,sub-064,105,185,700,bloc_loop.csv,2023-11-02_11h34.03.244,PainUncertainty,2022.2.5,142.8140946080057,
aigu,moderee,stimuli/660Hz,stimuli/moderee,bloc_9,prob20hthp_12trials.xlsx,3,36,80,20,0,,,,,0,8,8,8,2,7,31,7,,,,,,,,5,2607.7441764,2612.7436674999994,2612.7437493099997,0.30507219999981317,2613.1877832999994,2613.1877832999994,n,2.225729200000387,2618.7274408,2618.7274408,19,3.247,,,,,sub-064,105,185,700,bloc_loop.csv,2023-11-02_11h34.03.244,PainUncertainty,2022.2.5,142.8140946080057,
aigu,moderee,stimuli/660Hz,stimuli/moderee,bloc_9,prob20hthp_12trials.xlsx,3,36,80,20,0,,,,,0,8,8,8,2,8,32,9,,,,,,,,4.1,2618.7274408,2622.8286733,2622.8286906099993,0.30512589999943884,2623.2769176999996,2623.2769176999996,n,2.1242571000011594,2628.8786408,2628.8786408,15,3.419,,,,,sub-064,105,185,700,bloc_loop.csv,2023-11-02_11h34.03.244,PainUncertainty,2022.2.5,142.8140946080057,
aigu,moderee,stimuli/660Hz,stimuli/moderee,bloc_9,prob20hthp_12trials.xlsx,3,36,80,20,0,,,,,0,8,8,8,2,9,33,8,,,,,,,,4,2628.8786408,2632.8779143999996,2632.8779602099994,0.30509410000013304,2633.3220713999995,2633.3220713999995,n,1.4583443999999872,2637.8955689,2637.8955689,12,3.052,,,,,sub-064,105,185,700,bloc_loop.csv,2023-11-02_11h34.03.244,PainUncertainty,2022.2.5,142.8140946080057,
grave,forte,stimuli/330Hz,stimuli/forte,bloc_9,prob20hthp_12trials.xlsx,3,36,80,20,0,,,,,0,8,8,8,2,10,34,0,,,,,,,,4,2637.8955689,2641.899871,2641.8998612099995,0.30198980000022857,2642.3452465999994,2642.3452465999994,m,1.2793624000005366,2646.2246418,2646.2246418,45,2.545,,,,,sub-064,105,185,700,bloc_loop.csv,2023-11-02_11h34.03.244,PainUncertainty,2022.2.5,142.8140946080057,
grave,forte,stimuli/330Hz,stimuli/forte,bloc_9,prob20hthp_12trials.xlsx,3,36,80,20,0,,,,,0,8,8,8,2,11,35,2,,,,,,,,4.2,2646.2246418,2650.4288814999995,2650.4289317099992,0.30491540000002715,2650.8727407,2650.8727407,m,1.074887700000545,2654.2205303999995,2654.2205303999995,44,2.247,,,,,sub-064,105,185,700,bloc_loop.csv,2023-11-02_11h34.03.244,PainUncertainty,2022.2.5,142.8140946080057,
