series.thisRepN,series.thisTrialN,series.thisN,series.thisIndex,Ramp.thisRepN,Ramp.thisTrialN,Ramp.thisN,Ramp.thisIndex,rand_shocks.thisRepN,rand_shocks.thisTrialN,rand_shocks.thisN,rand_shocks.thisIndex,wait1_dur,intensity,text_7.started,text_12.started,key_resp_8.started,key_resp_8.keys,key_resp_8.rt,text_3.started,text_3.stopped,text_4.started,text_4.stopped,main_text.started,confirm_text.started,rating,ratingScale.response,ratingScale.rt,text_2.started,key_resp_3.started,key_resp_3.keys,key_resp_3.rt,text_9.started,key_resp_7.started,key_resp_7.keys,key_resp_7.rt,main_text_rand.started,confirm_rand.started,scale_wasmoved,rating_rand_.response,rating_rand_.rt,participant,debug,fail_ma,max_ma,nramps,date,expName,psychopyVersion,frameRate,
0,0,0,0,0,0,0,0,,,,,2.3,10,33.489264500000104,33.543717100000094,33.543717100000094,p,0.907531400000039,34.46065880000003,36.7660664,36.7660664,37.793534600000044,51.76605530000006,51.76605530000006,0,0,13.975,51.76605530000006,51.76605530000006,y,12.429155900000069,,,,,,,,,,sub-064,0,750,700,3,2023-11-02_11h08.44.279,painuncertainty_calibration,2022.2.5,144.43812126445587,
0,0,0,0,1,0,1,0,,,,,2.1,20,64.24457810000001,64.31107450000002,64.31107450000002,p,1.3402531000000408,65.65837420000003,67.76332990000003,67.76332990000003,68.77940050000007,74.92872900000009,74.92872900000009,0,0,6.15,74.92872900000009,74.92872900000009,y,4.4979776999999785,,,,,,,,,,sub-064,0,750,700,3,2023-11-02_11h08.44.279,painuncertainty_calibration,2022.2.5,144.43812126445587,
0,0,0,0,2,0,2,0,,,,,2.5,30,79.4638761,79.54217420000009,79.54217420000009,p,0.7171609999999191,80.27132820000008,82.77168400000005,82.77168400000005,83.78785090000008,91.75169340000002,91.75169340000002,3,3,7.963,91.75169340000002,91.75169340000002,y,2.4840449000000717,,,,,,,,,,sub-064,0,750,700,3,2023-11-02_11h08.44.279,painuncertainty_calibration,2022.2.5,144.43812126445587,
0,0,0,0,3,0,3,0,,,,,2.5,40,94.30005010000002,94.34984120000001,94.34984120000001,p,0.4692005000000563,94.82900110000003,97.32943550000005,97.32943550000005,98.34503210000003,107.27245570000002,107.27245570000002,3,3,8.928,107.27245570000002,107.27245570000002,y,2.2109131000000843,,,,,,,,,,sub-064,0,750,700,3,2023-11-02_11h08.44.279,painuncertainty_calibration,2022.2.5,144.43812126445587,
0,0,0,0,4,0,4,0,,,,,2.5,50,109.51936840000008,109.59454490000007,109.59454490000007,p,0.4246950999998944,110.03185880000001,112.53251850000004,112.53251850000004,113.54847380000001,122.35434930000008,122.35434930000008,6,6,8.805,122.35434930000008,122.35434930000008,y,2.4002448999999615,,,,,,,,,,sub-064,0,750,700,3,2023-11-02_11h08.44.279,painuncertainty_calibration,2022.2.5,144.43812126445587,
0,0,0,0,5,0,5,0,,,,,2.0,60,124.8007675,124.86698330000002,124.86698330000002,p,0.4566004000000703,125.33240490000003,127.33257830000002,127.33257830000002,128.3499428,130.71997880000004,130.71997880000004,9,9,2.372,130.71997880000004,130.71997880000004,y,10.155005300000084,,,,,,,,,,sub-064,0,750,700,3,2023-11-02_11h08.44.279,painuncertainty_calibration,2022.2.5,144.43812126445587,
0,0,0,0,6,0,6,0,,,,,2.1,70,140.93125770000006,140.98713340000006,140.98713340000006,p,0.47948890000009214,141.4735693,143.5774748,143.5774748,144.59394910000003,159.63992800000005,159.63992800000005,14,14,15.047,159.63992800000005,159.63992800000005,y,58.732042500000034,,,,,,,,,,sub-064,0,750,700,3,2023-11-02_11h08.44.279,painuncertainty_calibration,2022.2.5,144.43812126445587,
0,0,0,0,7,0,7,0,,,,,2.1,80,218.4176731,218.48947050000004,218.48947050000004,p,0.969270100000017,219.46910690000004,221.57318570000007,221.57318570000007,222.59051900000009,235.00333650000005,235.00333650000005,25,25,12.414,235.00333650000005,235.00333650000005,y,2.287513399999966,,,,,,,,,,sub-064,0,750,700,3,2023-11-02_11h08.44.279,painuncertainty_calibration,2022.2.5,144.43812126445587,
0,0,0,0,8,0,8,0,,,,,2.2,90,237.34524750000003,237.40859920000003,237.40859920000003,p,0.6267480000000205,238.04784500000005,240.24915170000008,240.24915170000008,241.26437420000002,247.1796462000001,247.1796462000001,33,33,5.914,247.1796462000001,247.1796462000001,y,2.528084499999977,,,,,,,,,,sub-064,0,750,700,3,2023-11-02_11h08.44.279,painuncertainty_calibration,2022.2.5,144.43812126445587,
0,0,0,0,9,0,9,0,,,,,2.0,100,249.76761050000005,249.8198639000001,249.8198639000001,p,0.8710478999998941,250.70168230000002,252.70193010000003,252.70193010000003,253.71680690000005,262.3552264,262.3552264,38,38,8.638,262.3552264,262.3552264,y,2.5918682000000217,,,,,,,,,,sub-064,0,750,700,3,2023-11-02_11h08.44.279,painuncertainty_calibration,2022.2.5,144.43812126445587,
0,0,0,0,10,0,10,0,,,,,2.3,110,264.9863134000001,265.06444440000007,265.06444440000007,p,0.5467509000000064,265.6222523,267.9266271,267.9266271,268.94319630000007,276.5082519,276.5082519,45,45,7.566,276.5082519,276.5082519,y,2.7680566999999883,,,,,,,,,,sub-064,0,750,700,3,2023-11-02_11h08.44.279,painuncertainty_calibration,2022.2.5,144.43812126445587,
0,0,0,0,11,0,11,0,,,,,2.1,120,279.32686850000005,279.3929597,279.3929597,p,0.4581190000000106,279.8581173,281.96301860000005,281.96301860000005,282.97875280000005,290.2394565000001,290.2394565000001,51,51,7.261,290.2394565000001,290.2394565000001,y,8.091079900000068,,,,,,,,,,sub-064,0,750,700,3,2023-11-02_11h08.44.279,painuncertainty_calibration,2022.2.5,144.43812126445587,
0,0,0,0,12,0,12,0,,,,,2.4,130,298.36710560000006,298.4437351,298.4437351,p,0.6153343999999379,299.06864670000004,301.47181050000006,301.47181050000006,302.52943270000003,311.1604549,311.1604549,52,52,8.632,311.1604549,311.1604549,y,4.930713800000035,,,,,,,,,,sub-064,0,750,700,3,2023-11-02_11h08.44.279,painuncertainty_calibration,2022.2.5,144.43812126445587,
0,0,0,0,13,0,13,0,,,,,2.4,140,316.12556500000005,316.2026463000001,316.2026463000001,p,0.568752199999949,316.7796415,319.1822796,319.1822796,,327.7523507000001,327.7523507000001,58,58,7.552,327.7523507000001,327.7523507000001,y,3.7547958999999764,,,,,,,,,,sub-064,0,750,700,3,2023-11-02_11h08.44.279,painuncertainty_calibration,2022.2.5,144.43812126445587,
0,0,0,0,14,0,14,0,,,,,2.3,150,331.55536600000005,331.6213516,331.6213516,p,0.5423786000000064,332.17673020000007,334.4761291000001,334.4761291000001,335.49165790000006,346.94761960000005,346.94761960000005,59,59,11.456,346.94761960000005,346.94761960000005,y,5.160845900000027,,,,,,,,,,sub-064,0,750,700,3,2023-11-02_11h08.44.279,painuncertainty_calibration,2022.2.5,144.43812126445587,
0,0,0,0,15,0,15,0,,,,,2.5,160,352.1451883000001,352.2212337000001,352.2212337000001,p,1.558809999999994,353.7905307000001,356.292463,356.292463,,376.38875810000013,376.38875810000013,51,51,19.074,376.38875810000013,376.38875810000013,y,4.319029799999953,,,,,,,,,,sub-064,0,750,700,3,2023-11-02_11h08.44.279,painuncertainty_calibration,2022.2.5,144.43812126445587,
0,0,0,0,16,0,16,0,,,,,2.4,170,380.74562059999994,380.8216367,380.8216367,p,1.0775757999999769,381.91223430000014,384.31520380000006,384.31520380000006,385.33146450000004,393.80730229999995,393.80730229999995,50,50,8.476,393.80730229999995,393.80730229999995,y,3.595873299999994,,,,,,,,,,sub-064,0,750,700,3,2023-11-02_11h08.44.279,painuncertainty_calibration,2022.2.5,144.43812126445587,
0,0,0,0,17,0,17,0,,,,,2.4,180,397.46484499999997,397.51802739999994,397.51802739999994,p,0.7331734000001688,398.2617686000001,400.66432480000003,400.66432480000003,401.67939679999995,411.97653360000004,411.97653360000004,49,49,10.298,411.97653360000004,411.97653360000004,y,3.04236190000006,,,,,,,,,,sub-064,0,750,700,3,2023-11-02_11h08.44.279,painuncertainty_calibration,2022.2.5,144.43812126445587,
0,0,0,0,18,0,18,0,,,,,2.2,190,415.05241790000014,415.13334940000004,415.13334940000004,p,0.6938557000000856,415.84006350000004,418.04193380000015,418.04193380000015,,426.9918474000001,426.9918474000001,50,50,7.934,426.9918474000001,426.9918474000001,y,8.123266000000058,,,,,,,,,,sub-064,0,750,700,3,2023-11-02_11h08.44.279,painuncertainty_calibration,2022.2.5,144.43812126445587,
0,0,0,0,19,0,19,0,,,,,2.3,200,435.1802093000001,435.2312534,435.2312534,p,1.083874700000024,436.32838519999996,438.63427019999995,438.63427019999995,439.65136329999996,445.18311900000003,445.18311900000003,61,61,5.531,445.18311900000003,445.18311900000003,n,2.0126911999998356,,,,,,,,,,sub-064,0,750,700,3,2023-11-02_11h08.44.279,painuncertainty_calibration,2022.2.5,144.43812126445587,
0,0,0,0,,,,,,,,,,,,,,,,,,,,,,,,,,,,,,,,,,,,,,sub-064,0,750,700,3,2023-11-02_11h08.44.279,painuncertainty_calibration,2022.2.5,144.43812126445587,
1,0,1,0,0,0,0,0,,,,,2.2,10,463.8914826,463.94282999999996,463.94282999999996,p,0.6924861999998484,464.64450220000003,466.84619810000004,466.84619810000004,467.8633721000001,472.04571320000014,472.04571320000014,0,0,4.184,472.04571320000014,472.04571320000014,y,0.8772179999998571,,,,,,,,,,sub-064,0,750,700,3,2023-11-02_11h08.44.279,painuncertainty_calibration,2022.2.5,144.43812126445587,
1,0,1,0,1,0,1,0,,,,,2.3,20,472.95516670000006,473.0343113000001,473.0343113000001,p,0.5683736000000863,473.61050909999994,475.90972220000003,475.90972220000003,476.92554070000006,479.5156191000001,479.5156191000001,0,0,2.589,479.5156191000001,479.5156191000001,y,0.9347485000000688,,,,,,,,,,sub-064,0,750,700,3,2023-11-02_11h08.44.279,painuncertainty_calibration,2022.2.5,144.43812126445587,
1,0,1,0,2,0,2,0,,,,,2.3,30,480.48507300000006,480.5628527000001,480.5628527000001,p,0.40017680000005384,480.97248450000006,483.2717918000001,483.2717918000001,484.2872298,487.02696960000003,487.02696960000003,0,0,2.74,487.02696960000003,487.02696960000003,y,0.6974852000000737,,,,,,,,,,sub-064,0,750,700,3,2023-11-02_11h08.44.279,painuncertainty_calibration,2022.2.5,144.43812126445587,
1,0,1,0,3,0,3,0,,,,,2.1,40,487.77434790000007,487.84154260000014,487.84154260000014,p,0.30610060000003614,488.16084560000013,490.2656256,490.2656256,491.28044120000004,494.59030099999995,494.59030099999995,0,0,3.31,494.59030099999995,494.59030099999995,y,0.8049186999999165,,,,,,,,,,sub-064,0,750,700,3,2023-11-02_11h08.44.279,painuncertainty_calibration,2022.2.5,144.43812126445587,
1,0,1,0,4,0,4,0,,,,,2.3,50,495.4321787000001,495.5092320000001,495.5092320000001,p,0.5172468999999182,496.03682690000005,498.3426617,498.3426617,499.3596923,504.3690816000001,504.3690816000001,3,3,5.011,504.3690816000001,504.3690816000001,y,0.7702282000000196,,,,,,,,,,sub-064,0,750,700,3,2023-11-02_11h08.44.279,painuncertainty_calibration,2022.2.5,144.43812126445587,
1,0,1,0,5,0,5,0,,,,,2.4,60,505.18534339999997,505.25350090000006,505.25350090000006,p,0.36531719999993584,505.6282572,508.03152049999994,508.03152049999994,509.04930680000007,511.6630219000001,511.6630219000001,3,3,2.614,511.6630219000001,511.6630219000001,y,0.6913411000000451,,,,,,,,,,sub-064,0,750,700,3,2023-11-02_11h08.44.279,painuncertainty_calibration,2022.2.5,144.43812126445587,
1,0,1,0,6,0,6,0,,,,,2.5,70,512.3936537,512.4698457,512.4698457,p,0.5732980000000225,513.0527063,515.5532463,515.5532463,516.5718667000001,524.1232562,524.1232562,3,3,7.552,524.1232562,524.1232562,y,0.8800845000000663,,,,,,,,,,sub-064,0,750,700,3,2023-11-02_11h08.44.279,painuncertainty_calibration,2022.2.5,144.43812126445587,
1,0,1,0,7,0,7,0,,,,,2.0,80,525.0395122,525.1167480000001,525.1167480000001,p,0.6296749000000545,525.7556845000001,527.7560911,527.7560911,528.7742512,533.5343525000001,533.5343525000001,4,4,4.76,533.5343525000001,533.5343525000001,y,0.8288370000000214,,,,,,,,,,sub-064,0,750,700,3,2023-11-02_11h08.44.279,painuncertainty_calibration,2022.2.5,144.43812126445587,
1,0,1,0,8,0,8,0,,,,,2.3,90,534.4058067999999,534.4788831000001,534.4788831000001,p,0.5488336999999319,535.0345412000001,537.3404187000001,537.3404187000001,538.3563349000001,544.5271233000001,544.5271233000001,5,5,6.173,544.5271233000001,544.5271233000001,y,0.6446693000000323,,,,,,,,,,sub-064,0,750,700,3,2023-11-02_11h08.44.279,painuncertainty_calibration,2022.2.5,144.43812126445587,
1,0,1,0,9,0,9,0,,,,,2.1,100,545.2306851000001,545.2857731000001,545.2857731000001,p,0.4447024999999485,545.7370877000001,547.8415587,547.8415587,548.8585349,553.1473094,553.1473094,9,9,4.288,553.1473094,553.1473094,y,1.0480735000001005,,,,,,,,,,sub-064,0,750,700,3,2023-11-02_11h08.44.279,painuncertainty_calibration,2022.2.5,144.43812126445587,
1,0,1,0,10,0,10,0,,,,,2.5,110,554.2316394,554.3076911,554.3076911,p,0.502996899999971,554.8215212,557.3219185,557.3219185,558.3384746000002,564.3967238,564.3967238,9,9,6.06,564.3967238,564.3967238,y,33.57408110000006,,,,,,,,,,sub-064,0,750,700,3,2023-11-02_11h08.44.279,painuncertainty_calibration,2022.2.5,144.43812126445587,
1,0,1,0,11,0,11,0,,,,,2.3,120,598.0176078,598.0836818,598.0836818,p,0.9990950999999768,599.0906626000001,601.3965199000002,601.3965199000002,602.4555497000001,608.8135753000001,608.8135753000001,13,13,6.358,608.8135753000001,608.8135753000001,y,0.8056659999999738,,,,,,,,,,sub-064,0,750,700,3,2023-11-02_11h08.44.279,painuncertainty_calibration,2022.2.5,144.43812126445587,
1,0,1,0,12,0,12,0,,,,,2.3,130,609.6557097,609.7309327,609.7309327,p,0.5359609999998156,610.2794120000001,612.5788501,612.5788501,613.5951706000001,619.7024871000001,619.7024871000001,13,13,6.108,619.7024871000001,619.7024871000001,y,0.98850850000008,,,,,,,,,,sub-064,0,750,700,3,2023-11-02_11h08.44.279,painuncertainty_calibration,2022.2.5,144.43812126445587,
1,0,1,0,13,0,13,0,,,,,2.5,140,620.7358312000001,620.8019857000002,620.8019857000002,p,0.3932070000000749,621.2044195999999,623.7046996000001,623.7046996000001,624.7215376000001,629.3005477000002,629.3005477000002,18,18,4.58,629.3005477000002,629.3005477000002,y,0.92772930000001,,,,,,,,,,sub-064,0,750,700,3,2023-11-02_11h08.44.279,painuncertainty_calibration,2022.2.5,144.43812126445587,
1,0,1,0,14,0,14,0,,,,,2.1,150,630.2788371000001,630.3448845,630.3448845,p,0.4820547000001625,630.8379147,632.9420318,632.9420318,633.9576898,637.9408303,637.9408303,19,19,3.984,637.9408303,637.9408303,y,0.837517299999945,,,,,,,,,,sub-064,0,750,700,3,2023-11-02_11h08.44.279,painuncertainty_calibration,2022.2.5,144.43812126445587,
1,0,1,0,15,0,15,0,,,,,2.0,160,638.8161199000001,638.8945188,638.8945188,p,0.5078601000000162,639.414855,641.4158340000001,641.4158340000001,642.4309189,646.8186153000001,646.8186153000001,24,24,4.387,646.8186153000001,646.8186153000001,y,1.0718948999999611,,,,,,,,,,sub-064,0,750,700,3,2023-11-02_11h08.44.279,painuncertainty_calibration,2022.2.5,144.43812126445587,
1,0,1,0,16,0,16,0,,,,,2.4,170,647.9427563000002,648.0064166,648.0064166,p,0.4925716000000193,648.5063573,650.909357,650.909357,651.9251319,656.1719059,656.1719059,26,26,4.247,656.1719059,656.1719059,y,1.1110111000000416,,,,,,,,,,sub-064,0,750,700,3,2023-11-02_11h08.44.279,painuncertainty_calibration,2022.2.5,144.43812126445587,
1,0,1,0,17,0,17,0,,,,,2.1,180,657.3272432000001,657.3964653,657.3964653,p,0.6626466000000164,658.0698150000001,660.1745287000001,660.1745287000001,661.1918864000002,664.8950453,664.8950453,28,28,3.705,664.8950453,664.8950453,y,1.004001899999821,,,,,,,,,,sub-064,0,750,700,3,2023-11-02_11h08.44.279,painuncertainty_calibration,2022.2.5,144.43812126445587,
1,0,1,0,18,0,18,0,,,,,2.0,190,665.9596523,666.0153092,666.0153092,p,0.8271470999998201,666.8559389,668.8558094,668.8558094,669.873456,675.3697403000001,675.3697403000001,32,32,5.496,675.3697403000001,675.3697403000001,y,1.0496169000000464,,,,,,,,,,sub-064,0,750,700,3,2023-11-02_11h08.44.279,painuncertainty_calibration,2022.2.5,144.43812126445587,
1,0,1,0,19,0,19,0,,,,,2.4,200,676.4783457999999,676.5305366,676.5305366,p,0.8244870999999421,677.3638078000001,679.7674133,679.7674133,680.7830670000001,685.1334314000001,685.1334314000001,35,35,4.351,685.1334314000001,685.1334314000001,y,1.5015284000000975,,,,,,,,,,sub-064,0,750,700,3,2023-11-02_11h08.44.279,painuncertainty_calibration,2022.2.5,144.43812126445587,
1,0,1,0,20,0,20,0,,,,,2.5,210,686.677968,686.7470298000001,686.7470298000001,p,0.6481390999999803,687.4066241,689.9074964000001,689.9074964000001,690.9228362000001,695.0446969,695.0446969,35,35,4.122,695.0446969,695.0446969,y,1.198241600000074,,,,,,,,,,sub-064,0,750,700,3,2023-11-02_11h08.44.279,painuncertainty_calibration,2022.2.5,144.43812126445587,
1,0,1,0,21,0,21,0,,,,,2.0,220,696.2873791,696.3596248000001,696.3596248000001,p,0.6030016999998224,696.9705636000001,698.9706598,698.9706598,699.9859264000002,702.5521798,702.5521798,40,40,2.567,702.5521798,702.5521798,y,0.7307270999999673,,,,,,,,,,sub-064,0,750,700,3,2023-11-02_11h08.44.279,painuncertainty_calibration,2022.2.5,144.43812126445587,
1,0,1,0,22,0,22,0,,,,,2.2,230,703.3353738000001,703.3946366,703.3946366,p,0.6562243999999282,704.0616549000001,706.2634866000001,706.2634866000001,707.2796982,714.5790166000002,714.5790166000002,46,46,7.3,714.5790166000002,714.5790166000002,n,1.3279844999999568,,,,,,,,,,sub-064,0,750,700,3,2023-11-02_11h08.44.279,painuncertainty_calibration,2022.2.5,144.43812126445587,
1,0,1,0,,,,,,,,,,,,,,,,,,,,,,,,,,,,,,,,,,,,,,sub-064,0,750,700,3,2023-11-02_11h08.44.279,painuncertainty_calibration,2022.2.5,144.43812126445587,
2,0,2,0,0,0,0,0,,,,,2.1,10,723.0312696999999,723.0845752,723.0845752,p,2.821700899999996,725.9182374,728.0226461,728.0226461,729.0416738000001,731.9658154000001,731.9658154000001,0,0,2.926,731.9658154000001,731.9658154000001,y,0.4448620000000574,,,,,,,,,,sub-064,0,750,700,3,2023-11-02_11h08.44.279,painuncertainty_calibration,2022.2.5,144.43812126445587,
2,0,2,0,1,0,1,0,,,,,2.2,20,732.4482785,732.5236432000002,732.5236432000002,p,0.24650550000001203,732.7805777000001,734.9822331,734.9822331,736.0005368,741.6961652,741.6961652,0,0,5.698,741.6961652,741.6961652,y,14.170904699999937,,,,,,,,,,sub-064,0,750,700,3,2023-11-02_11h08.44.279,painuncertainty_calibration,2022.2.5,144.43812126445587,
2,0,2,0,2,0,2,0,,,,,2.5,30,755.9307974000001,755.9843187000001,755.9843187000001,p,1.2261369000000286,757.2204763,759.7209179000001,759.7209179000001,760.7393590000001,763.7612994000001,763.7612994000001,0,0,3.022,763.7612994000001,763.7612994000001,y,0.8490237000000889,,,,,,,,,,sub-064,0,750,700,3,2023-11-02_11h08.44.279,painuncertainty_calibration,2022.2.5,144.43812126445587,
2,0,2,0,3,0,3,0,,,,,2.3,40,764.6437985,764.7212883,764.7212883,p,0.49779750000016065,765.2286120000001,767.5341821,767.5341821,768.5544298,771.2825388000001,771.2825388000001,0,0,2.729,771.2825388000001,771.2825388000001,y,0.8801513999999315,,,,,,,,,,sub-064,0,750,700,3,2023-11-02_11h08.44.279,painuncertainty_calibration,2022.2.5,144.43812126445587,
2,0,2,0,4,0,4,0,,,,,2.0,50,772.2213362,772.2778490000001,772.2778490000001,p,0.5007078999999521,772.7916700000001,774.7920412999999,774.7920412999999,775.8090836000001,782.4651808000001,782.4651808000001,1,1,6.658,782.4651808000001,782.4651808000001,y,0.8970136999998886,,,,,,,,,,sub-064,0,750,700,3,2023-11-02_11h08.44.279,painuncertainty_calibration,2022.2.5,144.43812126445587,
2,0,2,0,5,0,5,0,,,,,2.5,60,783.395759,783.4735822,783.4735822,p,0.5046188999999686,783.9877160000001,786.4879028,786.4879028,787.5043401,792.5560717000001,792.5560717000001,1,1,5.052,792.5560717000001,792.5560717000001,y,0.8958721999999852,,,,,,,,,,sub-064,0,750,700,3,2023-11-02_11h08.44.279,painuncertainty_calibration,2022.2.5,144.43812126445587,
2,0,2,0,6,0,6,0,,,,,2.4,70,793.500137,793.5654444000002,793.5654444000002,p,0.5007560999999896,794.0789735000001,796.4820761000001,796.4820761000001,797.4996232000001,805.2239466000001,805.2239466000001,3,3,7.725,805.2239466000001,805.2239466000001,y,2.314683000000059,,,,,,,,,,sub-064,0,750,700,3,2023-11-02_11h08.44.279,painuncertainty_calibration,2022.2.5,144.43812126445587,
2,0,2,0,7,0,7,0,,,,,2.0,80,807.5833469000002,807.6501103,807.6501103,p,0.8725068999999621,808.5319929,810.5323819,810.5323819,811.5492288,817.4408677000001,817.4408677000001,4,4,5.894,817.4408677000001,817.4408677000001,y,0.6982677999999396,,,,,,,,,,sub-064,0,750,700,3,2023-11-02_11h08.44.279,painuncertainty_calibration,2022.2.5,144.43812126445587,
2,0,2,0,8,0,8,0,,,,,2.1,90,818.1824161,818.2554832000001,818.2554832000001,p,0.6192717999999786,818.8878851,820.9918524,820.9918524,822.0087438,826.7820572,826.7820572,6,6,4.774,826.7820572,826.7820572,y,0.8607306999999764,,,,,,,,,,sub-064,0,750,700,3,2023-11-02_11h08.44.279,painuncertainty_calibration,2022.2.5,144.43812126445587,
2,0,2,0,9,0,9,0,,,,,2.3,100,827.6947614000001,827.7569893,827.7569893,p,0.6131847000001471,828.3819137,830.6809413999999,830.6809413999999,831.6983855999999,835.880866,835.880866,6,6,4.184,835.880866,835.880866,y,0.7220385000000533,,,,,,,,,,sub-064,0,750,700,3,2023-11-02_11h08.44.279,painuncertainty_calibration,2022.2.5,144.43812126445587,
2,0,2,0,10,0,10,0,,,,,2.3,110,836.6480868000001,836.7163290999999,836.7163290999999,p,0.7179275000000871,837.4451730000001,839.7510979000001,839.7510979000001,840.7674761000001,845.5552399000001,845.5552399000001,7,7,4.79,845.5552399000001,845.5552399000001,y,0.5669711000000461,,,,,,,,,,sub-064,0,750,700,3,2023-11-02_11h08.44.279,painuncertainty_calibration,2022.2.5,144.43812126445587,
2,0,2,0,11,0,11,0,,,,,2.0,120,846.1586405,846.2379166000001,846.2379166000001,p,0.4768103000001247,846.7256649000001,848.7312874000002,848.7312874000002,849.7485357,857.2108618,857.2108618,8,8,7.462,857.2108618,857.2108618,y,1.0877686000001177,,,,,,,,,,sub-064,0,750,700,3,2023-11-02_11h08.44.279,painuncertainty_calibration,2022.2.5,144.43812126445587,
2,0,2,0,12,0,12,0,,,,,2.5,130,858.3564853,858.4131204,858.4131204,p,0.6938078999999107,859.1144481000001,861.6151261,861.6151261,862.6307501000001,871.7390952000001,871.7390952000001,9,9,9.109,871.7390952000001,871.7390952000001,y,0.8969279999998889,,,,,,,,,,sub-064,0,750,700,3,2023-11-02_11h08.44.279,painuncertainty_calibration,2022.2.5,144.43812126445587,
2,0,2,0,13,0,13,0,,,,,2.1,140,872.6956376,872.7486888000001,872.7486888000001,p,0.4380584999998973,873.2017128,875.3039579000001,875.3039579000001,876.3200248,884.7057967000001,884.7057967000001,10,10,8.388,884.7057967000001,884.7057967000001,y,3.2646967999999106,,,,,,,,,,sub-064,0,750,700,3,2023-11-02_11h08.44.279,painuncertainty_calibration,2022.2.5,144.43812126445587,
2,0,2,0,14,0,14,0,,,,,2.5,150,888.0113811000001,888.0834009,888.0834009,p,1.3757285000001502,889.4724074000001,891.9725680000001,891.9725680000001,892.9926925,899.3776227000001,899.3776227000001,15,15,6.385,899.3776227000001,899.3776227000001,y,2.8011215000001357,,,,,,,,,,sub-064,0,750,700,3,2023-11-02_11h08.44.279,painuncertainty_calibration,2022.2.5,144.43812126445587,
2,0,2,0,15,0,15,0,,,,,2.2,160,902.2383495000001,902.2933206,902.2933206,p,0.8212491999997837,903.1265658,905.3283265,905.3283265,906.3472145000001,913.6189395000001,913.6189395000001,18,18,7.272,913.6189395000001,913.6189395000001,y,39.983685199999854,,,,,,,,,,sub-064,0,750,700,3,2023-11-02_11h08.44.279,painuncertainty_calibration,2022.2.5,144.43812126445587,
2,0,2,0,16,0,16,0,,,,,2.3,170,953.6363607000001,953.7161762000001,953.7161762000001,p,0.591034099999888,954.3200735,956.6259773000002,956.6259773000002,957.6426531,963.4370833,963.4370833,19,19,5.797,963.4370833,963.4370833,y,0.7254686999999649,,,,,,,,,,sub-064,0,750,700,3,2023-11-02_11h08.44.279,painuncertainty_calibration,2022.2.5,144.43812126445587,
2,0,2,0,17,0,17,0,,,,,2.4,180,964.2177328,964.2796032000001,964.2796032000001,p,0.6035980999999992,964.8907383000001,967.2938697,967.2938697,968.3101803,971.7382082000001,971.7382082000001,24,24,3.427,971.7382082000001,971.7382082000001,y,1.0723669999999856,,,,,,,,,,sub-064,0,750,700,3,2023-11-02_11h08.44.279,painuncertainty_calibration,2022.2.5,144.43812126445587,
2,0,2,0,18,0,18,0,,,,,2.5,190,972.8513465999999,972.9264395,972.9264395,p,0.4763484000000062,973.4126013,975.9134255000001,975.9134255000001,976.9291909000001,983.0020065000001,983.0020065000001,28,28,6.073,983.0020065000001,983.0020065000001,y,1.0882923000001483,,,,,,,,,,sub-064,0,750,700,3,2023-11-02_11h08.44.279,painuncertainty_calibration,2022.2.5,144.43812126445587,
2,0,2,0,19,0,19,0,,,,,2.5,200,984.1542157000001,984.2061067,984.2061067,p,0.6367967000001045,984.8514474000001,987.3521797000001,987.3521797000001,988.3702977,996.3229992000001,996.3229992000001,30,30,7.953,996.3229992000001,996.3229992000001,y,1.2476135000001705,,,,,,,,,,sub-064,0,750,700,3,2023-11-02_11h08.44.279,painuncertainty_calibration,2022.2.5,144.43812126445587,
2,0,2,0,20,0,20,0,,,,,2.0,210,997.6295869,997.6865007000001,997.6865007000001,p,0.5802090000001954,998.2767776000001,1000.2769699,1000.2769699,1001.2933299000001,1005.5825091000002,1005.5825091000002,36,36,4.288,1005.5825091000002,1005.5825091000002,y,1.2038820999998734,,,,,,,,,,sub-064,0,750,700,3,2023-11-02_11h08.44.279,painuncertainty_calibration,2022.2.5,144.43812126445587,
2,0,2,0,21,0,21,0,,,,,2.3,220,1006.8374802000001,1006.9028803000001,1006.9028803000001,p,0.38790080000012495,1007.2986073,1009.5981348,1009.5981348,1010.6139297,1016.7702346000001,1016.7702346000001,42,42,6.157,1016.7702346000001,1016.7702346000001,y,1.2803403999998864,,,,,,,,,,sub-064,0,750,700,3,2023-11-02_11h08.44.279,painuncertainty_calibration,2022.2.5,144.43812126445587,
2,0,2,0,22,0,22,0,,,,,2.0,230,1018.0921042,1018.1678445,1018.1678445,p,0.5143855999999687,1018.6956377000001,1020.6963417,1020.6963417,1021.7120723,1026.0140939,1026.0140939,44,44,4.303,1026.0140939,1026.0140939,y,1.2759902999998758,,,,,,,,,,sub-064,0,750,700,3,2023-11-02_11h08.44.279,painuncertainty_calibration,2022.2.5,144.43812126445587,
2,0,2,0,23,0,23,0,,,,,2.5,240,1027.3327327,1027.405089,1027.405089,p,0.7493936999999278,1028.1624119,1030.6625161,1030.6625161,1031.6797452,1038.8629405000001,1038.8629405000001,45,45,7.185,1038.8629405000001,1038.8629405000001,y,1.3476932999999462,,,,,,,,,,sub-064,0,750,700,3,2023-11-02_11h08.44.279,painuncertainty_calibration,2022.2.5,144.43812126445587,
2,0,2,0,24,0,24,0,,,,,2.5,250,1040.2505382,1040.323754,1040.323754,p,0.5428841999998895,1040.8789253,1043.3791987,1043.3791987,1044.3981141000002,1050.0027933000001,1050.0027933000001,47,47,5.607,1050.0027933000001,1050.0027933000001,y,2.576223300000038,,,,,,,,,,sub-064,0,750,700,3,2023-11-02_11h08.44.279,painuncertainty_calibration,2022.2.5,144.43812126445587,
2,0,2,0,25,0,25,0,,,,,2.1,260,1052.6387531,1052.6931082,1052.6931082,p,0.7893602000001465,1053.4914498,1055.5958839,1055.5958839,1056.6126727,1067.1719995,1067.1719995,49,49,10.561,1067.1719995,1067.1719995,y,4.47921499999984,,,,,,,,,,sub-064,0,750,700,3,2023-11-02_11h08.44.279,painuncertainty_calibration,2022.2.5,144.43812126445587,
2,0,2,0,26,0,26,0,,,,,2.3,270,1071.7108367,1071.7645115,1071.7645115,p,0.7263561999998274,1072.5010065000001,1074.8064631,1074.8064631,1075.8251009,1083.0083788,1083.0083788,50,50,7.184,1083.0083788,1083.0083788,n,1.1618317999998453,,,,,,,,,,sub-064,0,750,700,3,2023-11-02_11h08.44.279,painuncertainty_calibration,2022.2.5,144.43812126445587,
2,0,2,0,,,,,,,,,,,,,,,,,,,,,,,,,,,,,,,,,,,,,,sub-064,0,750,700,3,2023-11-02_11h08.44.279,painuncertainty_calibration,2022.2.5,144.43812126445587,
,,,,,,,,0,0,0,0,3.0,118,,,,,,1219.6710488,1222.6713867,1222.6713867,1223.6889256,,,18,,,,,,,1218.4341851000001,1218.4341851000001,p,1.2244654000000992,1230.2963411,1230.2963411,1,18,6.552,sub-064,0,750,700,3,2023-11-02_11h08.44.279,painuncertainty_calibration,2022.2.5,144.43812126445587,
,,,,,,,,1,0,1,0,3.0,152,,,,,,1230.8944126000001,1233.8953410000001,1233.8953410000001,1234.9140827,,,34,,,,,,,1230.2963411,1230.2963411,p,0.5856148999998823,1239.5988799000002,1239.5988799000002,1,34,4.634,sub-064,0,750,700,3,2023-11-02_11h08.44.279,painuncertainty_calibration,2022.2.5,144.43812126445587,
,,,,,,,,2,0,2,0,3.0,202,,,,,,1240.5136771,1243.5145397000001,1243.5145397000001,1244.5319321,,,43,,,,,,,1239.5988799000002,1239.5988799000002,p,0.9075057000000015,1248.2320331,1248.2320331,1,43,3.655,sub-064,0,750,700,3,2023-11-02_11h08.44.279,painuncertainty_calibration,2022.2.5,144.43812126445587,
,,,,,,,,3,0,3,0,3.0,219,,,,,,1249.0910115000001,1252.0919515,1252.0919515,1253.1070593,,,46,,,,,,,1248.2320331,1248.2320331,p,0.8511355000000549,1261.2290218,1261.2290218,1,46,8.067,sub-064,0,750,700,3,2023-11-02_11h08.44.279,painuncertainty_calibration,2022.2.5,144.43812126445587,
,,,,,,,,4,0,4,0,3.0,67,,,,,,1261.9748134000001,1264.97472,1264.97472,1265.9924564,,,3,,,,,,,1261.2290218,1261.2290218,p,0.7334019999998418,1270.837596,1270.837596,1,3,4.796,sub-064,0,750,700,3,2023-11-02_11h08.44.279,painuncertainty_calibration,2022.2.5,144.43812126445587,
,,,,,,,,5,0,5,0,3.0,50,,,,,,1271.6147324,1274.6150613,1274.6150613,1275.6316387,,,0,,,,,,,1270.837596,1270.837596,p,0.7650201000001289,1279.4539710000001,1279.4539710000001,1,0,3.774,sub-064,0,750,700,3,2023-11-02_11h08.44.279,painuncertainty_calibration,2022.2.5,144.43812126445587,
,,,,,,,,6,0,6,0,3.0,253,,,,,,1280.1570128,1283.1575218,1283.1575218,1284.1730157,,,48,,,,,,,1279.4539710000001,1279.4539710000001,p,0.6928423000001658,1288.9024971000001,1288.9024971000001,1,48,4.671,sub-064,0,750,700,3,2023-11-02_11h08.44.279,painuncertainty_calibration,2022.2.5,144.43812126445587,
,,,,,,,,7,0,7,0,3.0,270,,,,,,1289.5331502000001,1292.5339692,1292.5339692,1293.550984,,,46,,,,,,,1288.9024971000001,1288.9024971000001,p,0.6198062000000846,1296.9728813000002,1296.9728813000002,1,46,3.372,sub-064,0,750,700,3,2023-11-02_11h08.44.279,painuncertainty_calibration,2022.2.5,144.43812126445587,
,,,,,,,,8,0,8,0,3.0,185,,,,,,1297.8534574,1300.8543663,1300.8543663,1301.871073,,,43,,,,,,,1296.9728813000002,1296.9728813000002,p,0.8701355000000603,1303.9625131,1303.9625131,1,43,2.046,sub-064,0,750,700,3,2023-11-02_11h08.44.279,painuncertainty_calibration,2022.2.5,144.43812126445587,
,,,,,,,,9,0,9,0,3.0,84,,,,,,1304.5699289000001,1307.5704385000001,1307.5704385000001,1308.5921465000001,,,6,,,,,,,1303.9625131,1303.9625131,p,0.6001350999999886,1312.7194454,1312.7194454,1,6,4.081,sub-064,0,750,700,3,2023-11-02_11h08.44.279,painuncertainty_calibration,2022.2.5,144.43812126445587,
,,,,,,,,10,0,10,0,3.0,168,,,,,,1313.3276059,1316.3280199,1316.3280199,1317.34462,,,42,,,,,,,1312.7194454,1312.7194454,p,0.5949412999998458,1321.3231837,1321.3231837,1,42,3.92,sub-064,0,750,700,3,2023-11-02_11h08.44.279,painuncertainty_calibration,2022.2.5,144.43812126445587,
,,,,,,,,11,0,11,0,3.0,135,,,,,,1322.0230031,1325.0234577,1325.0234577,1326.0397309,,,38,,,,,,,1321.3231837,1321.3231837,p,0.6869132999997873,1329.8095426,1329.8095426,1,38,3.726,sub-064,0,750,700,3,2023-11-02_11h08.44.279,painuncertainty_calibration,2022.2.5,144.43812126445587,
,,,,,,,,12,0,12,0,3.0,101,,,,,,1330.3017912,1333.3021836,1333.3021836,1334.318772,,,16,,,,,,,1329.8095426,1329.8095426,p,0.4808782000000065,1337.8680368,1337.8680368,1,16,3.497,sub-064,0,750,700,3,2023-11-02_11h08.44.279,painuncertainty_calibration,2022.2.5,144.43812126445587,
,,,,,,,,13,0,13,0,3.0,236,,,,,,1338.5111523,1341.5115619,1341.5115619,1342.5270763,,,48,,,,,,,1337.8680368,1337.8680368,p,0.6299893000000338,1345.0100388,1345.0100388,1,48,2.484,sub-064,0,750,700,3,2023-11-02_11h08.44.279,painuncertainty_calibration,2022.2.5,144.43812126445587,
