cue_,stimulus_,cue_fichier,stimulus_fichier,block_name,block_trials_file,block_n_reps,block_ntrials,block_prob_highP_highT,block_prob_highP_lowT,block_pause_after,Bloc_essai.thisRepN,Bloc_essai.thisTrialN,Bloc_essai.thisN,Bloc_essai.thisIndex,blocks.thisRepN,blocks.thisTrialN,blocks.thisN,blocks.thisIndex,trials.thisRepN,trials.thisTrialN,trials.thisN,trials.thisIndex,pause_loop.thisRepN,pause_loop.thisTrialN,pause_loop.thisN,pause_loop.thisIndex,key_resp_5.started,start_calib.started,key_resp_2.started,ISI_duration,pause.started,pause.stopped,cue.started,ISI.started,choice_pain.started,Choice.started,choice_pain.keys,choice_pain.rt,main_text.started,confirm_text.started,ratingScale.response,ratingScale.rt,choice_pain.stopped,Choice.stopped,key_resp_3.started,key_resp_6.started,participant,low_ma,high_ma,failsafe_ma,block_file,date,expName,psychopyVersion,frameRate,
aigu,forte,stimuli/660Hz,stimuli/forte,,,,,,,,0,0,0,3,,,,,,,,,,,,,24.419857000000775,164.5632913999725,205.26276559999678,4.1,207.59623829997145,211.70893189997878,211.71499788998042,0.3059504000120796,212.1463624999742,212.1463624999742,m,1.849636999948416,217.11567009997088,217.11567009997088,50,3.038,,,,,sub-059,25,40,700,bloc_loop.csv,2023-10-18_15h19.55.446,PainUncertainty,2022.2.5,142.96048292272394,
aigu,moderee,stimuli/660Hz,stimuli/moderee,,,,,,,,0,1,1,2,,,,,,,,,,,,,,,,5,217.11567009997088,222.11900629999582,222.11893982998444,0.3050804999656975,222.56303249998018,222.56303249998018,n,1.1117772000143304,225.917598799977,225.917598799977,24,2.171,,,,,sub-059,25,40,700,bloc_loop.csv,2023-10-18_15h19.55.446,PainUncertainty,2022.2.5,142.96048292272394,
grave,forte,stimuli/330Hz,stimuli/forte,,,,,,,,0,2,2,1,,,,,,,,,,,,,,,,3.3,225.917598799977,229.21973700000672,229.22402546000666,0.30035510001471266,229.66141199995764,229.66141199995764,None,,234.35356560000218,234.35356560000218,51,2.177,232.13070290000178,232.13070290000178,,,sub-059,25,40,700,bloc_loop.csv,2023-10-18_15h19.55.446,PainUncertainty,2022.2.5,142.96048292272394,
grave,moderee,stimuli/330Hz,stimuli/moderee,,,,,,,,0,3,3,0,,,,,,,,,,,,,,,,3,234.35356560000218,237.3571990999626,237.3571197299694,0.30490990000544116,237.80112309998367,237.80112309998367,n,1.2173463000217453,240.76469270000234,240.76469270000234,26,1.719,,,,,sub-059,25,40,700,bloc_loop.csv,2023-10-18_15h19.55.446,PainUncertainty,2022.2.5,142.96048292272394,
grave,moderee,stimuli/330Hz,stimuli/moderee,bloc_1,prob20hthp_12trials.xlsx,4,48,20,80,0,,,,,0,0,0,0,0,0,0,5,,,,,,,,3.2,275.6558204999892,278.85474290000275,278.8548511299829,0.30529799999203533,279.3038972999784,279.3038972999784,n,0.746488600037992,282.0936059000087,282.0936059000087,28,1.969,,,,,sub-059,25,40,700,bloc_loop.csv,2023-10-18_15h19.55.446,PainUncertainty,2022.2.5,142.96048292272394,
grave,forte,stimuli/330Hz,stimuli/forte,bloc_1,prob20hthp_12trials.xlsx,4,48,20,80,0,,,,,0,0,0,0,0,1,1,2,,,,,,,,3,282.0936059000087,285.0985226999619,285.0986633299559,0.30493700003717095,285.54264339996735,285.54264339996735,m,1.1615757000399753,288.54707999998936,288.54707999998936,72,1.788,,,,,sub-059,25,40,700,bloc_loop.csv,2023-10-18_15h19.55.446,PainUncertainty,2022.2.5,142.96048292272394,
grave,forte,stimuli/330Hz,stimuli/forte,bloc_1,prob20hthp_12trials.xlsx,4,48,20,80,0,,,,,0,0,0,0,0,2,2,4,,,,,,,,3.1,288.54707999998936,291.6479197999579,291.6480800299847,0.30497450003167614,292.0920834999997,292.0920834999997,m,1.0491060999920592,294.49237240001094,294.49237240001094,67,1.295,,,,,sub-059,25,40,700,bloc_loop.csv,2023-10-18_15h19.55.446,PainUncertainty,2022.2.5,142.96048292272394,
grave,forte,stimuli/330Hz,stimuli/forte,bloc_1,prob20hthp_12trials.xlsx,4,48,20,80,0,,,,,0,0,0,0,0,3,3,3,,,,,,,,4.9,294.49237240001094,299.3918820999679,299.3920432300016,0.30507420003414154,299.83662039996125,299.83662039996125,m,2.013265399960801,303.35976560000563,303.35976560000563,33,1.44,,,,,sub-059,25,40,700,bloc_loop.csv,2023-10-18_15h19.55.446,PainUncertainty,2022.2.5,142.96048292272394,
aigu,moderee,stimuli/660Hz,stimuli/moderee,bloc_1,prob20hthp_12trials.xlsx,4,48,20,80,0,,,,,0,0,0,0,0,4,4,9,,,,,,,,4.2,303.35976560000563,307.559848600009,307.55994202999284,0.30502919998252764,308.0038034999743,308.0038034999743,n,0.8634192000026815,311.2520609999774,311.2520609999774,25,2.331,,,,,sub-059,25,40,700,bloc_loop.csv,2023-10-18_15h19.55.446,PainUncertainty,2022.2.5,142.96048292272394,
aigu,moderee,stimuli/660Hz,stimuli/moderee,bloc_1,prob20hthp_12trials.xlsx,4,48,20,80,0,,,,,0,0,0,0,0,5,5,6,,,,,,,,4.9,311.2520609999774,316.1578631000011,316.15775293000627,0.3051559000159614,316.6024128999561,316.6024128999561,n,1.1484140999964438,319.00229729997227,319.00229729997227,40,1.176,,,,,sub-059,25,40,700,bloc_loop.csv,2023-10-18_15h19.55.446,PainUncertainty,2022.2.5,142.96048292272394,
aigu,forte,stimuli/660Hz,stimuli/forte,bloc_1,prob20hthp_12trials.xlsx,4,48,20,80,0,,,,,0,0,0,0,0,6,6,11,,,,,,,,4.9,319.00229729997227,323.90186499996344,323.9018684299605,0.3050529000465758,324.34608489996754,324.34608489996754,m,0.9714336000033654,327.6282949000015,327.6282949000015,73,2.248,,,,,sub-059,25,40,700,bloc_loop.csv,2023-10-18_15h19.55.446,PainUncertainty,2022.2.5,142.96048292272394,
grave,forte,stimuli/330Hz,stimuli/forte,bloc_1,prob20hthp_12trials.xlsx,4,48,20,80,0,,,,,0,0,0,0,0,7,7,0,,,,,,,,3.5,327.6282949000015,331.131996000011,331.13189482996825,0.30513600003905594,331.58046369999647,331.58046369999647,m,0.7895622000214644,334.70774599997094,334.70774599997094,65,2.275,,,,,sub-059,25,40,700,bloc_loop.csv,2023-10-18_15h19.55.446,PainUncertainty,2022.2.5,142.96048292272394,
grave,forte,stimuli/330Hz,stimuli/forte,bloc_1,prob20hthp_12trials.xlsx,4,48,20,80,0,,,,,0,0,0,0,0,8,8,1,,,,,,,,3.2,334.70774599997094,337.9111647999962,337.91130992996625,0.3009237000369467,338.35503469995456,338.35503469995456,m,1.137331500009168,342.15314069995657,342.15314069995657,70,2.588,,,,,sub-059,25,40,700,bloc_loop.csv,2023-10-18_15h19.55.446,PainUncertainty,2022.2.5,142.96048292272394,
aigu,moderee,stimuli/660Hz,stimuli/moderee,bloc_1,prob20hthp_12trials.xlsx,4,48,20,80,0,,,,,0,0,0,0,0,9,9,7,,,,,,,,4.4,342.15314069995657,346.5578312999569,346.5576136299584,0.30466909997630864,347.0015127999941,347.0015127999941,n,0.7967990000033751,349.70944529998815,349.70944529998815,9,1.849,,,,,sub-059,25,40,700,bloc_loop.csv,2023-10-18_15h19.55.446,PainUncertainty,2022.2.5,142.96048292272394,
aigu,moderee,stimuli/660Hz,stimuli/moderee,bloc_1,prob20hthp_12trials.xlsx,4,48,20,80,0,,,,,0,0,0,0,0,10,10,8,,,,,,,,3.2,349.70944529998815,352.9122405999806,352.9123075299955,0.304951699974481,353.35649829998147,353.35649829998147,n,1.4361124000279233,357.5853004999808,357.5853004999808,9,2.74,,,,,sub-059,25,40,700,bloc_loop.csv,2023-10-18_15h19.55.446,PainUncertainty,2022.2.5,142.96048292272394,
aigu,moderee,stimuli/660Hz,stimuli/moderee,bloc_1,prob20hthp_12trials.xlsx,4,48,20,80,0,,,,,0,0,0,0,0,11,11,10,,,,,,,,3.9,357.5853004999808,361.48971809999784,361.4896932300122,0.3051032000221312,361.9337968999753,361.9337968999753,n,1.6426028999849223,364.59964420000324,364.59964420000324,10,0.962,,,,,sub-059,25,40,700,bloc_loop.csv,2023-10-18_15h19.55.446,PainUncertainty,2022.2.5,142.96048292272394,
aigu,moderee,stimuli/660Hz,stimuli/moderee,bloc_1,prob20hthp_12trials.xlsx,4,48,20,80,0,,,,,0,0,0,0,1,0,12,7,,,,,,,,3.5,364.59964420000324,368.10155019996455,368.1015981300094,0.3048992999829352,368.54574109998066,368.54574109998066,m,1.6974981999956071,371.8536962000071,371.8536962000071,38,1.532,,,,,sub-059,25,40,700,bloc_loop.csv,2023-10-18_15h19.55.446,PainUncertainty,2022.2.5,142.96048292272394,
grave,forte,stimuli/330Hz,stimuli/forte,bloc_1,prob20hthp_12trials.xlsx,4,48,20,80,0,,,,,0,0,0,0,1,1,13,4,,,,,,,,4.8,371.8536962000071,376.65820299996994,376.65825753000684,0.30518949998077005,377.1030394999543,377.1030394999543,m,0.8841303999652155,380.2754650999559,380.2754650999559,87,2.22,,,,,sub-059,25,40,700,bloc_loop.csv,2023-10-18_15h19.55.446,PainUncertainty,2022.2.5,142.96048292272394,
grave,forte,stimuli/330Hz,stimuli/forte,bloc_1,prob20hthp_12trials.xlsx,4,48,20,80,0,,,,,0,0,0,0,1,2,14,0,,,,,,,,5,380.2754650999559,385.27725409995764,385.27735932997314,0.30491910001728684,385.72140049998416,385.72140049998416,m,1.5397310000262223,388.6628694999963,388.6628694999963,100,1.342,,,,,sub-059,25,40,700,bloc_loop.csv,2023-10-18_15h19.55.446,PainUncertainty,2022.2.5,142.96048292272394,
grave,forte,stimuli/330Hz,stimuli/forte,bloc_1,prob20hthp_12trials.xlsx,4,48,20,80,0,,,,,0,0,0,0,1,3,15,1,,,,,,,,3.1,388.6628694999963,391.7648388000089,391.76457692996485,0.30582590005360544,392.2131481000106,392.2131481000106,m,0.7451246000127867,395.9341080999584,395.9341080999584,95,2.9,,,,,sub-059,25,40,700,bloc_loop.csv,2023-10-18_15h19.55.446,PainUncertainty,2022.2.5,142.96048292272394,
aigu,moderee,stimuli/660Hz,stimuli/moderee,bloc_1,prob20hthp_12trials.xlsx,4,48,20,80,0,,,,,0,0,0,0,1,4,16,8,,,,,,,,3.4,395.9341080999584,399.3345581999747,399.33464963000154,0.3051371999899857,399.77904140000464,399.77904140000464,n,0.9419640999985859,402.59468360000756,402.59468360000756,2,1.81,,,,,sub-059,25,40,700,bloc_loop.csv,2023-10-18_15h19.55.446,PainUncertainty,2022.2.5,142.96048292272394,
aigu,moderee,stimuli/660Hz,stimuli/moderee,bloc_1,prob20hthp_12trials.xlsx,4,48,20,80,0,,,,,0,0,0,0,1,5,17,9,,,,,,,,4,402.59468360000756,406.5997903000098,406.599884830002,0.3047068999730982,407.04351270000916,407.04351270000916,n,2.258896499988623,412.5650830999948,412.5650830999948,3,3.197,,,,,sub-059,25,40,700,bloc_loop.csv,2023-10-18_15h19.55.446,PainUncertainty,2022.2.5,142.96048292272394,
grave,moderee,stimuli/330Hz,stimuli/moderee,bloc_1,prob20hthp_12trials.xlsx,4,48,20,80,0,,,,,0,0,0,0,1,6,18,5,,,,,,,,4.6,412.5650830999948,417.1702825999819,417.17030692996343,0.3048430000199005,417.61414219997823,417.61414219997823,m,1.6156401000334881,420.65050359995803,420.65050359995803,47,1.337,,,,,sub-059,25,40,700,bloc_loop.csv,2023-10-18_15h19.55.446,PainUncertainty,2022.2.5,142.96048292272394,
grave,forte,stimuli/330Hz,stimuli/forte,bloc_1,prob20hthp_12trials.xlsx,4,48,20,80,0,,,,,0,0,0,0,1,7,19,3,,,,,,,,4,420.65050359995803,424.6499221000122,424.65003752998894,0.3051706000114791,425.09418219997315,425.09418219997315,m,0.7246139000053518,427.00821699999506,427.00821699999506,79,1.121,,,,,sub-059,25,40,700,bloc_loop.csv,2023-10-18_15h19.55.446,PainUncertainty,2022.2.5,142.96048292272394,
grave,forte,stimuli/330Hz,stimuli/forte,bloc_1,prob20hthp_12trials.xlsx,4,48,20,80,0,,,,,0,0,0,0,1,8,20,2,,,,,,,,3.3,427.00821699999506,430.3109470999916,430.31106352997597,0.3043411999824457,430.754619299958,430.754619299958,m,0.6548273999942467,434.0401477999985,434.0401477999985,89,2.556,,,,,sub-059,25,40,700,bloc_loop.csv,2023-10-18_15h19.55.446,PainUncertainty,2022.2.5,142.96048292272394,
aigu,moderee,stimuli/660Hz,stimuli/moderee,bloc_1,prob20hthp_12trials.xlsx,4,48,20,80,0,,,,,0,0,0,0,1,9,21,10,,,,,,,,4.6,434.0401477999985,438.6448491999763,438.64485312997715,0.30507369997212663,439.08886459999485,439.08886459999485,n,0.8983693000045605,441.43831589998445,441.43831589998445,3,1.364,,,,,sub-059,25,40,700,bloc_loop.csv,2023-10-18_15h19.55.446,PainUncertainty,2022.2.5,142.96048292272394,
aigu,forte,stimuli/660Hz,stimuli/forte,bloc_1,prob20hthp_12trials.xlsx,4,48,20,80,0,,,,,0,0,0,0,1,10,22,11,,,,,,,,3.5,441.43831589998445,444.9374419999658,444.93770393001034,0.3046065000235103,445.3814326999709,445.3814326999709,n,2.3482445000554435,451.535529899993,451.535529899993,48,3.739,,,,,sub-059,25,40,700,bloc_loop.csv,2023-10-18_15h19.55.446,PainUncertainty,2022.2.5,142.96048292272394,
aigu,moderee,stimuli/660Hz,stimuli/moderee,bloc_1,prob20hthp_12trials.xlsx,4,48,20,80,0,,,,,0,0,0,0,1,11,23,6,,,,,,,,3.2,451.535529899993,454.7369000999606,454.7369512299716,0.3050779000041075,455.1811210999731,455.1811210999731,n,0.9558213000418618,458.61326329997974,458.61326329997974,8,2.414,,,,,sub-059,25,40,700,bloc_loop.csv,2023-10-18_15h19.55.446,PainUncertainty,2022.2.5,142.96048292272394,
grave,moderee,stimuli/330Hz,stimuli/moderee,bloc_1,prob20hthp_12trials.xlsx,4,48,20,80,0,,,,,0,0,0,0,2,0,24,5,,,,,,,,3.5,458.61326329997974,462.1129130999907,462.11306523001406,0.29941620002500713,462.55623899999773,462.55623899999773,None,,467.1129645999754,467.1129645999754,48,2.032,465.02614289999474,465.02614289999474,,,sub-059,25,40,700,bloc_loop.csv,2023-10-18_15h19.55.446,PainUncertainty,2022.2.5,142.96048292272394,
grave,forte,stimuli/330Hz,stimuli/forte,bloc_1,prob20hthp_12trials.xlsx,4,48,20,80,0,,,,,0,0,0,0,2,1,25,2,,,,,,,,3.8,467.1129645999754,470.912537599972,470.91260092995947,0.3053000000072643,471.3567999000079,471.3567999000079,m,1.1055953999748453,474.2877670999733,474.2877670999733,94,1.741,,,,,sub-059,25,40,700,bloc_loop.csv,2023-10-18_15h19.55.446,PainUncertainty,2022.2.5,142.96048292272394,
aigu,moderee,stimuli/660Hz,stimuli/moderee,bloc_1,prob20hthp_12trials.xlsx,4,48,20,80,0,,,,,0,0,0,0,2,2,26,6,,,,,,,,3.5,474.2877670999733,477.7885773999733,477.7885273299704,0.30549439997412264,478.23793050000677,478.23793050000677,n,1.6073504999512807,481.54129229998216,481.54129229998216,33,1.615,,,,,sub-059,25,40,700,bloc_loop.csv,2023-10-18_15h19.55.446,PainUncertainty,2022.2.5,142.96048292272394,
grave,forte,stimuli/330Hz,stimuli/forte,bloc_1,prob20hthp_12trials.xlsx,4,48,20,80,0,,,,,0,0,0,0,2,3,27,1,,,,,,,,4,481.54129229998216,485.54620479996083,485.54640902997346,0.30497070000274107,485.9904474999639,485.9904474999639,m,0.9217973000486381,490.6151397000067,490.6151397000067,93,3.636,,,,,sub-059,25,40,700,bloc_loop.csv,2023-10-18_15h19.55.446,PainUncertainty,2022.2.5,142.96048292272394,
aigu,moderee,stimuli/660Hz,stimuli/moderee,bloc_1,prob20hthp_12trials.xlsx,4,48,20,80,0,,,,,0,0,0,0,2,4,28,7,,,,,,,,3.2,490.6151397000067,493.818046099972,493.818126629974,0.30529039999237284,494.2647480999585,494.2647480999585,n,0.9213843999896199,496.637902699993,496.637902699993,20,1.389,,,,,sub-059,25,40,700,bloc_loop.csv,2023-10-18_15h19.55.446,PainUncertainty,2022.2.5,142.96048292272394,
aigu,moderee,stimuli/660Hz,stimuli/moderee,bloc_1,prob20hthp_12trials.xlsx,4,48,20,80,0,,,,,0,0,0,0,2,5,29,10,,,,,,,,3.1,496.637902699993,499.74244969995925,499.74252622998904,0.30514060001587495,500.18893159995787,500.18893159995787,n,0.8422259999788366,502.9658233000082,502.9658233000082,1,1.873,,,,,sub-059,25,40,700,bloc_loop.csv,2023-10-18_15h19.55.446,PainUncertainty,2022.2.5,142.96048292272394,
aigu,moderee,stimuli/660Hz,stimuli/moderee,bloc_1,prob20hthp_12trials.xlsx,4,48,20,80,0,,,,,0,0,0,0,2,6,30,9,,,,,,,,4.4,502.9658233000082,507.36898029997246,507.36907782998753,0.30455940001411363,507.8125985999941,507.8125985999941,n,1.3097710000001825,511.9140735999681,511.9140735999681,29,2.713,,,,,sub-059,25,40,700,bloc_loop.csv,2023-10-18_15h19.55.446,PainUncertainty,2022.2.5,142.96048292272394,
grave,forte,stimuli/330Hz,stimuli/forte,bloc_1,prob20hthp_12trials.xlsx,4,48,20,80,0,,,,,0,0,0,0,2,7,31,4,,,,,,,,3.2,511.9140735999681,515.1192824000027,515.1197742299934,0.3047977999667637,515.5641703999718,515.5641703999718,m,0.8085673000314273,518.4804833999951,518.4804833999951,94,2.045,,,,,sub-059,25,40,700,bloc_loop.csv,2023-10-18_15h19.55.446,PainUncertainty,2022.2.5,142.96048292272394,
grave,forte,stimuli/330Hz,stimuli/forte,bloc_1,prob20hthp_12trials.xlsx,4,48,20,80,0,,,,,0,0,0,0,2,8,32,0,,,,,,,,3.2,518.4804833999951,521.682980099984,521.6830535299902,0.30457099998602644,522.1270355999586,522.1270355999586,m,0.8427121000131592,525.9100019999896,525.9100019999896,76,2.879,,,,,sub-059,25,40,700,bloc_loop.csv,2023-10-18_15h19.55.446,PainUncertainty,2022.2.5,142.96048292272394,
aigu,forte,stimuli/660Hz,stimuli/forte,bloc_1,prob20hthp_12trials.xlsx,4,48,20,80,0,,,,,0,0,0,0,2,9,33,11,,,,,,,,3.7,525.9100019999896,529.6144599000108,529.6146785299585,0.3050023000105284,530.0609521999722,530.0609521999722,m,2.1168622000259347,533.563909999968,533.563909999968,88,1.301,,,,,sub-059,25,40,700,bloc_loop.csv,2023-10-18_15h19.55.446,PainUncertainty,2022.2.5,142.96048292272394,
aigu,moderee,stimuli/660Hz,stimuli/moderee,bloc_1,prob20hthp_12trials.xlsx,4,48,20,80,0,,,,,0,0,0,0,2,10,34,8,,,,,,,,5,533.563909999968,538.566606999957,538.5666103300115,0.3049241999979131,539.0112579999841,539.0112579999841,m,1.8643225000123493,543.4539564999868,543.4539564999868,37,2.503,,,,,sub-059,25,40,700,bloc_loop.csv,2023-10-18_15h19.55.446,PainUncertainty,2022.2.5,142.96048292272394,
grave,forte,stimuli/330Hz,stimuli/forte,bloc_1,prob20hthp_12trials.xlsx,4,48,20,80,0,,,,,0,0,0,0,2,11,35,3,,,,,,,,5,543.4539564999868,548.4566145999706,548.45675223,0.3054468000191264,548.9017970999703,548.9017970999703,m,0.8099039000226185,553.5341818999732,553.5341818999732,82,3.767,,,,,sub-059,25,40,700,bloc_loop.csv,2023-10-18_15h19.55.446,PainUncertainty,2022.2.5,142.96048292272394,
grave,forte,stimuli/330Hz,stimuli/forte,bloc_1,prob20hthp_12trials.xlsx,4,48,20,80,0,,,,,0,0,0,0,3,0,36,4,,,,,,,,3.7,553.5341818999732,557.235495299974,557.2355938299967,0.30494800000451505,557.6819234999712,557.6819234999712,m,2.401772700017318,562.5461923999828,562.5461923999828,46,2.392,,,,,sub-059,25,40,700,bloc_loop.csv,2023-10-18_15h19.55.446,PainUncertainty,2022.2.5,142.96048292272394,
grave,moderee,stimuli/330Hz,stimuli/moderee,bloc_1,prob20hthp_12trials.xlsx,4,48,20,80,0,,,,,0,0,0,0,3,1,37,5,,,,,,,,3,562.5461923999828,565.5490752999904,565.549044429959,0.29913249996025115,565.9914260999649,565.9914260999649,n,0.9612751000095159,570.0874735999969,570.0874735999969,20,3.053,,,,,sub-059,25,40,700,bloc_loop.csv,2023-10-18_15h19.55.446,PainUncertainty,2022.2.5,142.96048292272394,
aigu,forte,stimuli/660Hz,stimuli/forte,bloc_1,prob20hthp_12trials.xlsx,4,48,20,80,0,,,,,0,0,0,0,3,2,38,11,,,,,,,,4.6,570.0874735999969,574.6893689999706,574.6910067300138,0.3015832999954,575.1353221999598,575.1353221999598,m,1.631256599968765,578.0445345999906,578.0445345999906,88,1.205,,,,,sub-059,25,40,700,bloc_loop.csv,2023-10-18_15h19.55.446,PainUncertainty,2022.2.5,142.96048292272394,
aigu,moderee,stimuli/660Hz,stimuli/moderee,bloc_1,prob20hthp_12trials.xlsx,4,48,20,80,0,,,,,0,0,0,0,3,3,39,9,,,,,,,,3.4,578.0445345999906,581.4467653000029,581.446885929961,0.30514640000183135,581.8953029999975,581.8953029999975,n,2.078405299980659,585.0258864999632,585.0258864999632,22,0.983,,,,,sub-059,25,40,700,bloc_loop.csv,2023-10-18_15h19.55.446,PainUncertainty,2022.2.5,142.96048292272394,
aigu,moderee,stimuli/660Hz,stimuli/moderee,bloc_1,prob20hthp_12trials.xlsx,4,48,20,80,0,,,,,0,0,0,0,3,4,40,10,,,,,,,,3.9,585.0258864999632,588.9273078999831,588.9272258299694,0.3049777999985963,589.3712722999626,589.3712722999626,m,1.617294000054244,592.136942699959,592.136942699959,40,1.067,,,,,sub-059,25,40,700,bloc_loop.csv,2023-10-18_15h19.55.446,PainUncertainty,2022.2.5,142.96048292272394,
grave,forte,stimuli/330Hz,stimuli/forte,bloc_1,prob20hthp_12trials.xlsx,4,48,20,80,0,,,,,0,0,0,0,3,5,41,1,,,,,,,,4.7,592.136942699959,596.8376220999635,596.8376376299944,0.3056292000110261,597.2860071999603,597.2860071999603,m,1.0095762999844737,600.6986864999635,600.6986864999635,91,2.35,,,,,sub-059,25,40,700,bloc_loop.csv,2023-10-18_15h19.55.446,PainUncertainty,2022.2.5,142.96048292272394,
grave,forte,stimuli/330Hz,stimuli/forte,bloc_1,prob20hthp_12trials.xlsx,4,48,20,80,0,,,,,0,0,0,0,3,6,42,0,,,,,,,,4.5,600.6986864999635,605.1999712999677,605.2003935300105,0.30409240000881255,605.6437510999967,605.6437510999967,m,0.8700839000521228,608.1948738999781,608.1948738999781,100,1.606,,,,,sub-059,25,40,700,bloc_loop.csv,2023-10-18_15h19.55.446,PainUncertainty,2022.2.5,142.96048292272394,
aigu,moderee,stimuli/660Hz,stimuli/moderee,bloc_1,prob20hthp_12trials.xlsx,4,48,20,80,0,,,,,0,0,0,0,3,7,43,7,,,,,,,,3.1,608.1948738999781,611.297805899987,611.2989080299682,0.29957690002629533,611.7424170000013,611.7424170000013,n,1.2296784999780357,614.8411728999927,614.8411728999927,25,1.787,,,,,sub-059,25,40,700,bloc_loop.csv,2023-10-18_15h19.55.446,PainUncertainty,2022.2.5,142.96048292272394,
grave,forte,stimuli/330Hz,stimuli/forte,bloc_1,prob20hthp_12trials.xlsx,4,48,20,80,0,,,,,0,0,0,0,3,8,44,3,,,,,,,,3.8,614.8411728999927,618.6457833999884,618.6458140299598,0.30541279999306425,619.0940692999866,619.0940692999866,m,0.9608414000249468,622.3004436999909,622.3004436999909,58,2.184,,,,,sub-059,25,40,700,bloc_loop.csv,2023-10-18_15h19.55.446,PainUncertainty,2022.2.5,142.96048292272394,
grave,forte,stimuli/330Hz,stimuli/forte,bloc_1,prob20hthp_12trials.xlsx,4,48,20,80,0,,,,,0,0,0,0,3,9,45,2,,,,,,,,4.5,622.3004436999909,626.7998299999745,626.7998080300109,0.30100659996969625,627.247014899971,627.247014899971,None,,632.2876136999694,632.2876136999694,32,2.525,629.7130266999593,629.7130266999593,,,sub-059,25,40,700,bloc_loop.csv,2023-10-18_15h19.55.446,PainUncertainty,2022.2.5,142.96048292272394,
aigu,moderee,stimuli/660Hz,stimuli/moderee,bloc_1,prob20hthp_12trials.xlsx,4,48,20,80,0,,,,,0,0,0,0,3,10,46,8,,,,,,,,3.6,632.2876136999694,635.890783299983,635.8909116299998,0.30107499996665865,636.3358577999752,636.3358577999752,n,1.37147879996337,639.301717699971,639.301717699971,6,1.538,,,,,sub-059,25,40,700,bloc_loop.csv,2023-10-18_15h19.55.446,PainUncertainty,2022.2.5,142.96048292272394,
aigu,moderee,stimuli/660Hz,stimuli/moderee,bloc_1,prob20hthp_12trials.xlsx,4,48,20,80,0,,,,,0,0,0,0,3,11,47,6,,,,,,,,3.3,639.301717699971,642.6075475999969,642.608422229992,0.2998621999868192,643.0516188999754,643.0516188999754,n,1.5635936000035144,645.7572443999816,645.7572443999816,5,1.065,,,,,sub-059,25,40,700,bloc_loop.csv,2023-10-18_15h19.55.446,PainUncertainty,2022.2.5,142.96048292272394,
aigu,forte,stimuli/660Hz,stimuli/forte,bloc_2,prob50_50_4trials.xlsx,2,8,50,50,1,,,,,0,1,1,1,0,0,0,3,,,,,,,,3.7,645.7572443999816,649.4623432999942,649.4624509299698,0.29954340000404045,649.9049469999736,649.9049469999736,m,0.8032582000014372,652.4676344000036,652.4676344000036,57,1.684,,,,,sub-059,25,40,700,bloc_loop.csv,2023-10-18_15h19.55.446,PainUncertainty,2022.2.5,142.96048292272394,
aigu,moderee,stimuli/660Hz,stimuli/moderee,bloc_2,prob50_50_4trials.xlsx,2,8,50,50,1,,,,,0,1,1,1,0,1,1,2,,,,,,,,4.1,652.4676344000036,656.5670228999807,656.5671319299669,0.3048629999975674,657.0115315999719,657.0115315999719,None,,660.9823140999652,660.9823140999652,59,1.47,659.4790629000054,659.4790629000054,,,sub-059,25,40,700,bloc_loop.csv,2023-10-18_15h19.55.446,PainUncertainty,2022.2.5,142.96048292272394,
grave,moderee,stimuli/330Hz,stimuli/moderee,bloc_2,prob50_50_4trials.xlsx,2,8,50,50,1,,,,,0,1,1,1,0,2,2,0,,,,,,,,4.1,660.9823140999652,665.0823157000123,665.0822845299787,0.30486089998157695,665.5261078999611,665.5261078999611,n,1.166556500014849,668.5879175000009,668.5879175000009,28,1.831,,,,,sub-059,25,40,700,bloc_loop.csv,2023-10-18_15h19.55.446,PainUncertainty,2022.2.5,142.96048292272394,
grave,forte,stimuli/330Hz,stimuli/forte,bloc_2,prob50_50_4trials.xlsx,2,8,50,50,1,,,,,0,1,1,1,0,3,3,1,,,,,,,,3.4,668.5879175000009,671.992437399982,671.9925033299893,0.3047334000002593,672.4398597999825,672.4398597999825,m,2.318621299986262,676.8975124999997,676.8975124999997,74,2.059,,,,,sub-059,25,40,700,bloc_loop.csv,2023-10-18_15h19.55.446,PainUncertainty,2022.2.5,142.96048292272394,
aigu,moderee,stimuli/660Hz,stimuli/moderee,bloc_2,prob50_50_4trials.xlsx,2,8,50,50,1,,,,,0,1,1,1,1,0,4,2,,,,,,,,3.1,676.8975124999997,680.0002587999916,680.0003932299966,0.3050867000129074,680.4446418999578,680.4446418999578,n,1.6512969000032172,683.2558902999735,683.2558902999735,3,1.086,,,,,sub-059,25,40,700,bloc_loop.csv,2023-10-18_15h19.55.446,PainUncertainty,2022.2.5,142.96048292272394,
grave,forte,stimuli/330Hz,stimuli/forte,bloc_2,prob50_50_4trials.xlsx,2,8,50,50,1,,,,,0,1,1,1,1,1,5,1,,,,,,,,3.4,683.2558902999735,686.6609625999699,686.6610042299668,0.30504070001188666,687.1052049999707,687.1052049999707,m,0.8262902999995276,691.8200426999829,691.8200426999829,79,3.821,,,,,sub-059,25,40,700,bloc_loop.csv,2023-10-18_15h19.55.446,PainUncertainty,2022.2.5,142.96048292272394,
aigu,forte,stimuli/660Hz,stimuli/forte,bloc_2,prob50_50_4trials.xlsx,2,8,50,50,1,,,,,0,1,1,1,1,2,6,3,,,,,,,,4.9,691.8200426999829,696.7247111999895,696.7248886299727,0.30494320002617314,697.1694198999903,697.1694198999903,m,1.7307092000264674,700.8617551999632,700.8617551999632,90,1.884,,,,,sub-059,25,40,700,bloc_loop.csv,2023-10-18_15h19.55.446,PainUncertainty,2022.2.5,142.96048292272394,
grave,moderee,stimuli/330Hz,stimuli/moderee,bloc_2,prob50_50_4trials.xlsx,2,8,50,50,1,,,,,0,1,1,1,1,3,7,0,,,,,,,,3.7,700.8617551999632,704.5662639999646,704.5681243299565,0.3030265999841504,705.0102150999592,705.0102150999592,n,0.8157836999744177,709.2040472999797,709.2040472999797,26,1.344,,,,,sub-059,25,40,700,bloc_loop.csv,2023-10-18_15h19.55.446,PainUncertainty,2022.2.5,142.96048292272394,
,,,,bloc_2,prob50_50_4trials.xlsx,2,8,50,50,1,,,,,0,1,1,1,,,,,0,0,0,0,,,,,,,,,,,,,,,,,,,709.2040472999797,723.9014121000073,sub-059,25,40,700,bloc_loop.csv,2023-10-18_15h19.55.446,PainUncertainty,2022.2.5,142.96048292272394,
grave,moderee,stimuli/330Hz,stimuli/moderee,bloc_3,prob80hthp_12trials.xlsx,2,24,80,20,0,,,,,0,2,2,2,0,0,0,0,,,,,,,,4.2,724.9565353000071,729.1594400999602,729.160254329961,0.30026320001343265,729.6058903000085,729.6058903000085,n,1.027853099978529,732.9599375000107,732.9599375000107,12,2.266,,,,,sub-059,25,40,700,bloc_loop.csv,2023-10-18_15h19.55.446,PainUncertainty,2022.2.5,142.96048292272394,
grave,moderee,stimuli/330Hz,stimuli/moderee,bloc_3,prob80hthp_12trials.xlsx,2,24,80,20,0,,,,,0,2,2,2,0,1,1,1,,,,,,,,4.7,732.9599375000107,737.6604996999959,737.6605325299839,0.3004156000097282,738.1050799000077,738.1050799000077,m,1.219079700007569,740.8706740000052,740.8706740000052,48,1.483,,,,,sub-059,25,40,700,bloc_loop.csv,2023-10-18_15h19.55.446,PainUncertainty,2022.2.5,142.96048292272394,
grave,moderee,stimuli/330Hz,stimuli/moderee,bloc_3,prob80hthp_12trials.xlsx,2,24,80,20,0,,,,,0,2,2,2,0,2,2,3,,,,,,,,3.7,740.8706740000052,744.5707968999632,744.5708290300041,0.30465150001691654,745.0147935999557,745.0147935999557,m,1.4003902999684215,748.2677192999981,748.2677192999981,55,1.788,,,,,sub-059,25,40,700,bloc_loop.csv,2023-10-18_15h19.55.446,PainUncertainty,2022.2.5,142.96048292272394,
grave,moderee,stimuli/330Hz,stimuli/moderee,bloc_3,prob80hthp_12trials.xlsx,2,24,80,20,0,,,,,0,2,2,2,0,3,3,2,,,,,,,,3.4,748.2677192999981,751.6691849000053,751.6692723300017,0.3050974000361748,752.1159683999722,752.1159683999722,n,0.9831518999999389,755.3310429999838,755.3310429999838,37,2.154,,,,,sub-059,25,40,700,bloc_loop.csv,2023-10-18_15h19.55.446,PainUncertainty,2022.2.5,142.96048292272394,
aigu,forte,stimuli/660Hz,stimuli/forte,bloc_3,prob80hthp_12trials.xlsx,2,24,80,20,0,,,,,0,2,2,2,0,4,4,10,,,,,,,,3.5,755.3310429999838,758.8296513999812,758.8305424299848,0.30259390000719577,759.2759668999934,759.2759668999934,n,0.6290277999942191,761.5930920999963,761.5930920999963,90,1.636,,,,,sub-059,25,40,700,bloc_loop.csv,2023-10-18_15h19.55.446,PainUncertainty,2022.2.5,142.96048292272394,
grave,forte,stimuli/330Hz,stimuli/forte,bloc_3,prob80hthp_12trials.xlsx,2,24,80,20,0,,,,,0,2,2,2,0,5,5,5,,,,,,,,3.3,761.5930920999963,764.8926722999895,764.8927071299928,0.30520920001436025,765.3411261999863,765.3411261999863,m,1.1425509999971837,769.2934475999791,769.2934475999791,90,2.738,,,,,sub-059,25,40,700,bloc_loop.csv,2023-10-18_15h19.55.446,PainUncertainty,2022.2.5,142.96048292272394,
aigu,forte,stimuli/660Hz,stimuli/forte,bloc_3,prob80hthp_12trials.xlsx,2,24,80,20,0,,,,,0,2,2,2,0,6,6,6,,,,,,,,4.5,769.2934475999791,773.7965346999699,773.7965061299561,0.30528380000032485,774.240544100001,774.240544100001,m,1.5201081999693997,778.687043599959,778.687043599959,97,2.869,,,,,sub-059,25,40,700,bloc_loop.csv,2023-10-18_15h19.55.446,PainUncertainty,2022.2.5,142.96048292272394,
aigu,forte,stimuli/660Hz,stimuli/forte,bloc_3,prob80hthp_12trials.xlsx,2,24,80,20,0,,,,,0,2,2,2,0,7,7,8,,,,,,,,4.2,778.687043599959,782.8881738999626,782.8880820299906,0.30526420002570376,783.3360193999833,783.3360193999833,m,0.9335687999846414,786.3410384999588,786.3410384999588,73,2.018,,,,,sub-059,25,40,700,bloc_loop.csv,2023-10-18_15h19.55.446,PainUncertainty,2022.2.5,142.96048292272394,
aigu,forte,stimuli/660Hz,stimuli/forte,bloc_3,prob80hthp_12trials.xlsx,2,24,80,20,0,,,,,0,2,2,2,0,8,8,7,,,,,,,,4.9,786.3410384999588,791.2436290999758,791.2434081300104,0.2994409999810159,791.684126099979,791.684126099979,m,1.178932500013616,794.8270098000066,794.8270098000066,97,1.879,,,,,sub-059,25,40,700,bloc_loop.csv,2023-10-18_15h19.55.446,PainUncertainty,2022.2.5,142.96048292272394,
grave,moderee,stimuli/330Hz,stimuli/moderee,bloc_3,prob80hthp_12trials.xlsx,2,24,80,20,0,,,,,0,2,2,2,0,9,9,4,,,,,,,,4.6,794.8270098000066,799.4315791999688,799.4317093299993,0.30513340001925826,799.8793715999927,799.8793715999927,n,1.0296085000154562,802.1746454999666,802.1746454999666,36,1.205,,,,,sub-059,25,40,700,bloc_loop.csv,2023-10-18_15h19.55.446,PainUncertainty,2022.2.5,142.96048292272394,
aigu,moderee,stimuli/660Hz,stimuli/moderee,bloc_3,prob80hthp_12trials.xlsx,2,24,80,20,0,,,,,0,2,2,2,0,10,10,11,,,,,,,,3.5,802.1746454999666,805.6756477999734,805.6756913299847,0.3051491999649443,806.1234282999649,806.1234282999649,n,0.9347333000041544,808.4219307999592,808.4219307999592,35,1.289,,,,,sub-059,25,40,700,bloc_loop.csv,2023-10-18_15h19.55.446,PainUncertainty,2022.2.5,142.96048292272394,
aigu,forte,stimuli/660Hz,stimuli/forte,bloc_3,prob80hthp_12trials.xlsx,2,24,80,20,0,,,,,0,2,2,2,0,11,11,9,,,,,,,,3.3,808.4219307999592,811.724650499993,811.7245787299995,0.30536479997681454,812.1688350999611,812.1688350999611,m,1.1207844999735244,815.0534573000041,815.0534573000041,82,1.706,,,,,sub-059,25,40,700,bloc_loop.csv,2023-10-18_15h19.55.446,PainUncertainty,2022.2.5,142.96048292272394,
aigu,forte,stimuli/660Hz,stimuli/forte,bloc_3,prob80hthp_12trials.xlsx,2,24,80,20,0,,,,,0,2,2,2,1,0,12,7,,,,,,,,4.5,815.0534573000041,819.559225999983,819.559162729996,0.30487340001855046,820.0032111000037,820.0032111000037,m,0.8380550000001676,822.6418390999897,822.6418390999897,64,1.732,,,,,sub-059,25,40,700,bloc_loop.csv,2023-10-18_15h19.55.446,PainUncertainty,2022.2.5,142.96048292272394,
grave,moderee,stimuli/330Hz,stimuli/moderee,bloc_3,prob80hthp_12trials.xlsx,2,24,80,20,0,,,,,0,2,2,2,1,1,13,4,,,,,,,,3.6,822.6418390999897,826.2473088999977,826.2473216300074,0.3050550000043586,826.6917436000076,826.6917436000076,n,0.860582199995406,830.0392917999998,830.0392917999998,42,2.428,,,,,sub-059,25,40,700,bloc_loop.csv,2023-10-18_15h19.55.446,PainUncertainty,2022.2.5,142.96048292272394,
grave,moderee,stimuli/330Hz,stimuli/moderee,bloc_3,prob80hthp_12trials.xlsx,2,24,80,20,0,,,,,0,2,2,2,1,2,14,2,,,,,,,,3.7,830.0392917999998,833.7415124999825,833.741517429991,0.30512600002111867,834.189018199977,834.189018199977,n,1.9477539000217803,839.0198067000019,839.0198067000019,26,2.801,,,,,sub-059,25,40,700,bloc_loop.csv,2023-10-18_15h19.55.446,PainUncertainty,2022.2.5,142.96048292272394,
aigu,forte,stimuli/660Hz,stimuli/forte,bloc_3,prob80hthp_12trials.xlsx,2,24,80,20,0,,,,,0,2,2,2,1,3,15,9,,,,,,,,4.8,839.0198067000019,843.8192004999728,843.8193392300105,0.3015504999784753,844.26331509999,844.26331509999,m,1.3237964999862015,849.2604214999592,849.2604214999592,98,3.607,,,,,sub-059,25,40,700,bloc_loop.csv,2023-10-18_15h19.55.446,PainUncertainty,2022.2.5,142.96048292272394,
aigu,forte,stimuli/660Hz,stimuli/forte,bloc_3,prob80hthp_12trials.xlsx,2,24,80,20,0,,,,,0,2,2,2,1,4,16,10,,,,,,,,3.6,849.2604214999592,852.8615585999796,852.8615925299761,0.30507080000825226,853.3059627999901,853.3059627999901,m,0.8982779000070877,858.4159293999546,858.4159293999546,95,4.114,,,,,sub-059,25,40,700,bloc_loop.csv,2023-10-18_15h19.55.446,PainUncertainty,2022.2.5,142.96048292272394,
aigu,forte,stimuli/660Hz,stimuli/forte,bloc_3,prob80hthp_12trials.xlsx,2,24,80,20,0,,,,,0,2,2,2,1,5,17,6,,,,,,,,3.9,858.4159293999546,862.3210371999885,862.3211328299891,0.3016074000042863,862.7658800999634,862.7658800999634,m,0.5187443000031635,865.9110323999776,865.9110323999776,100,2.546,,,,,sub-059,25,40,700,bloc_loop.csv,2023-10-18_15h19.55.446,PainUncertainty,2022.2.5,142.96048292272394,
grave,moderee,stimuli/330Hz,stimuli/moderee,bloc_3,prob80hthp_12trials.xlsx,2,24,80,20,0,,,,,0,2,2,2,1,6,18,1,,,,,,,,3.3,865.9110323999776,869.2107861000113,869.2108237299777,0.3049578999634832,869.6588809000095,869.6588809000095,n,0.8788572999765165,872.1257923999801,872.1257923999801,23,1.502,,,,,sub-059,25,40,700,bloc_loop.csv,2023-10-18_15h19.55.446,PainUncertainty,2022.2.5,142.96048292272394,
aigu,forte,stimuli/660Hz,stimuli/forte,bloc_3,prob80hthp_12trials.xlsx,2,24,80,20,0,,,,,0,2,2,2,1,7,19,8,,,,,,,,4.1,872.1257923999801,876.2254549000063,876.2255392299791,0.3056489999871701,876.6739398000063,876.6739398000063,None,,882.1903343999875,882.1903343999875,85,2.998,,,,,sub-059,25,40,700,bloc_loop.csv,2023-10-18_15h19.55.446,PainUncertainty,2022.2.5,142.96048292272394,
grave,moderee,stimuli/330Hz,stimuli/moderee,bloc_3,prob80hthp_12trials.xlsx,2,24,80,20,0,,,,,0,2,2,2,1,8,20,3,,,,,,,,3.7,882.1903343999875,885.8937393999659,885.8936203299614,0.30549339996650815,886.34175219998,886.34175219998,n,0.954315899987705,888.9970759999705,888.9970759999705,21,1.643,,,,,sub-059,25,40,700,bloc_loop.csv,2023-10-18_15h19.55.446,PainUncertainty,2022.2.5,142.96048292272394,
grave,moderee,stimuli/330Hz,stimuli/moderee,bloc_3,prob80hthp_12trials.xlsx,2,24,80,20,0,,,,,0,2,2,2,1,9,21,0,,,,,,,,4.4,888.9970759999705,893.4011971,893.4011198299646,0.305241699970793,893.8453569999547,893.8453569999547,m,1.546135799959302,897.0801709999796,897.0801709999796,44,1.634,,,,,sub-059,25,40,700,bloc_loop.csv,2023-10-18_15h19.55.446,PainUncertainty,2022.2.5,142.96048292272394,
aigu,moderee,stimuli/660Hz,stimuli/moderee,bloc_3,prob80hthp_12trials.xlsx,2,24,80,20,0,,,,,0,2,2,2,1,10,22,11,,,,,,,,3.9,897.0801709999796,900.9854133999906,900.9854433299566,0.30550469999434426,901.4339344999753,901.4339344999753,m,1.7024781000218354,905.5495772999711,905.5495772999711,57,2.337,,,,,sub-059,25,40,700,bloc_loop.csv,2023-10-18_15h19.55.446,PainUncertainty,2022.2.5,142.96048292272394,
grave,forte,stimuli/330Hz,stimuli/forte,bloc_3,prob80hthp_12trials.xlsx,2,24,80,20,0,,,,,0,2,2,2,1,11,23,5,,,,,,,,4,905.5495772999711,909.5491896999883,909.5492669299653,0.3016020000213757,909.9940978999948,909.9940978999948,m,1.0449142000288703,913.5076659999904,913.5076659999904,92,2.386,,,,,sub-059,25,40,700,bloc_loop.csv,2023-10-18_15h19.55.446,PainUncertainty,2022.2.5,142.96048292272394,
grave,moderee,stimuli/330Hz,stimuli/moderee,bloc_4,prob50_50_4trials.xlsx,2,8,50,50,1,,,,,0,3,3,3,0,0,0,0,,,,,,,,3.9,913.5076659999904,917.4110919999657,917.4111109299644,0.29991649999283254,917.8559680999606,917.8559680999606,n,1.5093774999841116,921.4778528999886,921.4778528999886,36,2.051,,,,,sub-059,25,40,700,bloc_loop.csv,2023-10-18_15h19.55.446,PainUncertainty,2022.2.5,142.96048292272394,
aigu,moderee,stimuli/660Hz,stimuli/moderee,bloc_4,prob50_50_4trials.xlsx,2,8,50,50,1,,,,,0,3,3,3,0,1,1,2,,,,,,,,3.7,921.4778528999886,925.1828628999647,925.1830812299683,0.3048261999501847,925.6273151999922,925.6273151999922,m,1.4281929000280797,928.9738494000048,928.9738494000048,48,1.835,,,,,sub-059,25,40,700,bloc_loop.csv,2023-10-18_15h19.55.446,PainUncertainty,2022.2.5,142.96048292272394,
aigu,forte,stimuli/660Hz,stimuli/forte,bloc_4,prob50_50_4trials.xlsx,2,8,50,50,1,,,,,0,3,3,3,0,2,2,3,,,,,,,,4.1,928.9738494000048,933.0731608999777,933.0731300300046,0.30461920000379905,933.5169649999589,933.5169649999589,m,1.1936581000336446,937.7443931999733,937.7443931999733,100,2.969,,,,,sub-059,25,40,700,bloc_loop.csv,2023-10-18_15h19.55.446,PainUncertainty,2022.2.5,142.96048292272394,
grave,forte,stimuli/330Hz,stimuli/forte,bloc_4,prob50_50_4trials.xlsx,2,8,50,50,1,,,,,0,3,3,3,0,3,3,1,,,,,,,,3.6,937.7443931999733,941.3448766999645,941.3452880299825,0.3042320000240579,941.7886453999672,941.7886453999672,m,1.8885315000079572,946.9314337999676,946.9314337999676,100,3.19,,,,,sub-059,25,40,700,bloc_loop.csv,2023-10-18_15h19.55.446,PainUncertainty,2022.2.5,142.96048292272394,
grave,forte,stimuli/330Hz,stimuli/forte,bloc_4,prob50_50_4trials.xlsx,2,8,50,50,1,,,,,0,3,3,3,1,0,4,1,,,,,,,,3,946.9314337999676,949.9362318000058,949.9365843299835,0.30451570003060624,950.3799118999741,950.3799118999741,m,1.4650410000467673,953.370840299991,953.370840299991,97,1.447,,,,,sub-059,25,40,700,bloc_loop.csv,2023-10-18_15h19.55.446,PainUncertainty,2022.2.5,142.96048292272394,
aigu,moderee,stimuli/660Hz,stimuli/moderee,bloc_4,prob50_50_4trials.xlsx,2,8,50,50,1,,,,,0,3,3,3,1,1,5,2,,,,,,,,3.7,953.370840299991,957.0754087999812,957.0754639299645,0.3049509000265971,957.5198455000063,957.5198455000063,m,1.448374799976591,960.8475457999739,960.8475457999739,53,1.826,,,,,sub-059,25,40,700,bloc_loop.csv,2023-10-18_15h19.55.446,PainUncertainty,2022.2.5,142.96048292272394,
grave,moderee,stimuli/330Hz,stimuli/moderee,bloc_4,prob50_50_4trials.xlsx,2,8,50,50,1,,,,,0,3,3,3,1,2,6,0,,,,,,,,5,960.8475457999739,965.8474763999693,965.8474872299645,0.3049281999701634,966.2987605999806,966.2987605999806,m,1.1910548000014387,970.0673223999911,970.0673223999911,49,2.495,,,,,sub-059,25,40,700,bloc_loop.csv,2023-10-18_15h19.55.446,PainUncertainty,2022.2.5,142.96048292272394,
aigu,forte,stimuli/660Hz,stimuli/forte,bloc_4,prob50_50_4trials.xlsx,2,8,50,50,1,,,,,0,3,3,3,1,3,7,3,,,,,,,,3.8,970.0673223999911,973.8694728999981,973.8696113299753,0.30094950000056997,974.313878499961,974.313878499961,m,1.3285205999854952,979.1085461999755,979.1085461999755,72,1.435,,,,,sub-059,25,40,700,bloc_loop.csv,2023-10-18_15h19.55.446,PainUncertainty,2022.2.5,142.96048292272394,
,,,,bloc_4,prob50_50_4trials.xlsx,2,8,50,50,1,,,,,0,3,3,3,,,,,0,0,0,0,,,,,,,,,,,,,,,,,,,979.1085461999755,995.4897153999773,sub-059,25,40,700,bloc_loop.csv,2023-10-18_15h19.55.446,PainUncertainty,2022.2.5,142.96048292272394,
grave,forte,stimuli/330Hz,stimuli/forte,bloc_5,prob20hthp_12trials.xlsx,2,24,20,80,0,,,,,0,4,4,4,0,0,0,1,,,,,,,,4.9,998.5238472999772,1003.4282746000099,1003.4282692299981,0.30510410002898425,1003.8723538999911,1003.8723538999911,m,1.2470123000093736,1006.1750980999786,1006.1750980999786,42,0.995,,,,,sub-059,25,40,700,bloc_loop.csv,2023-10-18_15h19.55.446,PainUncertainty,2022.2.5,142.96048292272394,
grave,forte,stimuli/330Hz,stimuli/forte,bloc_5,prob20hthp_12trials.xlsx,2,24,20,80,0,,,,,0,4,4,4,0,1,1,0,,,,,,,,3.6,1006.1750980999786,1009.7762323999777,1009.7763075299969,0.3049699999974109,1010.2203515999718,1010.2203515999718,m,0.7188775000395253,1012.6464406999876,1012.6464406999876,68,1.628,,,,,sub-059,25,40,700,bloc_loop.csv,2023-10-18_15h19.55.446,PainUncertainty,2022.2.5,142.96048292272394,
aigu,moderee,stimuli/660Hz,stimuli/moderee,bloc_5,prob20hthp_12trials.xlsx,2,24,20,80,0,,,,,0,4,4,4,0,2,2,10,,,,,,,,4.7,1012.6464406999876,1017.3468667999841,1017.3467943299853,0.30520060000708327,1017.7907614999567,1017.7907614999567,m,1.4689955999492668,1021.3218879000051,1021.3218879000051,39,1.984,,,,,sub-059,25,40,700,bloc_loop.csv,2023-10-18_15h19.55.446,PainUncertainty,2022.2.5,142.96048292272394,
grave,forte,stimuli/330Hz,stimuli/forte,bloc_5,prob20hthp_12trials.xlsx,2,24,20,80,0,,,,,0,4,4,4,0,3,3,4,,,,,,,,3.7,1021.3218879000051,1025.021118899982,1025.0210537299804,0.3051138000446372,1025.4652501000091,1025.4652501000091,m,0.5724925000104122,1028.3988193999976,1028.3988193999976,90,2.281,,,,,sub-059,25,40,700,bloc_loop.csv,2023-10-18_15h19.55.446,PainUncertainty,2022.2.5,142.96048292272394,
grave,moderee,stimuli/330Hz,stimuli/moderee,bloc_5,prob20hthp_12trials.xlsx,2,24,20,80,0,,,,,0,4,4,4,0,4,4,5,,,,,,,,3.8,1028.3988193999976,1032.202427399985,1032.2023582300112,0.3053786000236869,1032.646636099962,1032.646636099962,m,0.7620954999583773,1034.7582178000011,1034.7582178000011,56,1.287,,,,,sub-059,25,40,700,bloc_loop.csv,2023-10-18_15h19.55.446,PainUncertainty,2022.2.5,142.96048292272394,
aigu,moderee,stimuli/660Hz,stimuli/moderee,bloc_5,prob20hthp_12trials.xlsx,2,24,20,80,0,,,,,0,4,4,4,0,5,5,6,,,,,,,,4.7,1034.7582178000011,1039.4602849999792,1039.4603538300084,0.3008399999816902,1039.9046756000025,1039.9046756000025,m,0.8193963000085205,1042.237402800005,1042.237402800005,37,1.434,,,,,sub-059,25,40,700,bloc_loop.csv,2023-10-18_15h19.55.446,PainUncertainty,2022.2.5,142.96048292272394,
aigu,forte,stimuli/660Hz,stimuli/forte,bloc_5,prob20hthp_12trials.xlsx,2,24,20,80,0,,,,,0,4,4,4,0,6,6,11,,,,,,,,4.2,1042.237402800005,1046.440273299988,1046.4403718300105,0.30499430000782013,1046.8865784999798,1046.8865784999798,m,1.3548773000366054,1050.4634660999873,1050.4634660999873,75,2.17,,,,,sub-059,25,40,700,bloc_loop.csv,2023-10-18_15h19.55.446,PainUncertainty,2022.2.5,142.96048292272394,
grave,forte,stimuli/330Hz,stimuli/forte,bloc_5,prob20hthp_12trials.xlsx,2,24,20,80,0,,,,,0,4,4,4,0,7,7,2,,,,,,,,4.3,1050.4634660999873,1054.7676867999835,1054.7678356299816,0.30479389999527484,1055.2119996999972,1055.2119996999972,m,0.6549330999841914,1058.7739527999656,1058.7739527999656,72,2.823,,,,,sub-059,25,40,700,bloc_loop.csv,2023-10-18_15h19.55.446,PainUncertainty,2022.2.5,142.96048292272394,
aigu,moderee,stimuli/660Hz,stimuli/moderee,bloc_5,prob20hthp_12trials.xlsx,2,24,20,80,0,,,,,0,4,4,4,0,8,8,9,,,,,,,,3.5,1058.7739527999656,1062.2755236999947,1062.275537330011,0.30500920000486076,1062.723755199986,1062.723755199986,n,1.5380975999869406,1066.0436906999676,1066.0436906999676,36,1.719,,,,,sub-059,25,40,700,bloc_loop.csv,2023-10-18_15h19.55.446,PainUncertainty,2022.2.5,142.96048292272394,
aigu,moderee,stimuli/660Hz,stimuli/moderee,bloc_5,prob20hthp_12trials.xlsx,2,24,20,80,0,,,,,0,4,4,4,0,9,9,7,,,,,,,,3.1,1066.0436906999676,1069.1444694999955,1069.1445874299911,0.30492570000933483,1069.5888560999883,1069.5888560999883,n,1.5750988000072539,1072.5608267000061,1072.5608267000061,35,1.337,,,,,sub-059,25,40,700,bloc_loop.csv,2023-10-18_15h19.55.446,PainUncertainty,2022.2.5,142.96048292272394,
aigu,moderee,stimuli/660Hz,stimuli/moderee,bloc_5,prob20hthp_12trials.xlsx,2,24,20,80,0,,,,,0,4,4,4,0,10,10,8,,,,,,,,4.7,1072.5608267000061,1077.2638916999567,1077.2636842299776,0.30510669999057427,1077.7101971000084,1077.7101971000084,n,1.9405827000155114,1081.1582295999979,1081.1582295999979,40,1.428,,,,,sub-059,25,40,700,bloc_loop.csv,2023-10-18_15h19.55.446,PainUncertainty,2022.2.5,142.96048292272394,
grave,forte,stimuli/330Hz,stimuli/forte,bloc_5,prob20hthp_12trials.xlsx,2,24,20,80,0,,,,,0,4,4,4,0,11,11,3,,,,,,,,4.6,1081.1582295999979,1085.7576532000094,1085.7577299299824,0.3052025999641046,1086.2016946999938,1086.2016946999938,m,0.790286700008437,1089.0174352999893,1089.0174352999893,95,1.975,,,,,sub-059,25,40,700,bloc_loop.csv,2023-10-18_15h19.55.446,PainUncertainty,2022.2.5,142.96048292272394,
grave,forte,stimuli/330Hz,stimuli/forte,bloc_5,prob20hthp_12trials.xlsx,2,24,20,80,0,,,,,0,4,4,4,1,0,12,4,,,,,,,,3.9,1089.0174352999893,1092.9180291999946,1092.9180438299604,0.3051036999677308,1093.3622380999732,1093.3622380999732,m,0.5955305999959819,1096.3532044999884,1096.3532044999884,100,2.33,,,,,sub-059,25,40,700,bloc_loop.csv,2023-10-18_15h19.55.446,PainUncertainty,2022.2.5,142.96048292272394,
aigu,forte,stimuli/660Hz,stimuli/forte,bloc_5,prob20hthp_12trials.xlsx,2,24,20,80,0,,,,,0,4,4,4,1,1,13,11,,,,,,,,4.4,1096.3532044999884,1100.7522789000068,1100.7523828300123,0.3049034999567084,1101.2001387999626,1101.2001387999626,m,0.6520635000197217,1105.029579199967,1105.029579199967,99,3.094,,,,,sub-059,25,40,700,bloc_loop.csv,2023-10-18_15h19.55.446,PainUncertainty,2022.2.5,142.96048292272394,
aigu,moderee,stimuli/660Hz,stimuli/moderee,bloc_5,prob20hthp_12trials.xlsx,2,24,20,80,0,,,,,0,4,4,4,1,2,14,10,,,,,,,,4.2,1105.029579199967,1109.2324541999842,1109.2324032299744,0.30527220002841204,1109.6765549999545,1109.6765549999545,m,0.7943054999923334,1112.2835534999613,1112.2835534999613,48,1.733,,,,,sub-059,25,40,700,bloc_loop.csv,2023-10-18_15h19.55.446,PainUncertainty,2022.2.5,142.96048292272394,
grave,forte,stimuli/330Hz,stimuli/forte,bloc_5,prob20hthp_12trials.xlsx,2,24,20,80,0,,,,,0,4,4,4,1,3,15,2,,,,,,,,4.2,1112.2835534999613,1116.4832204999984,1116.4834223299927,0.3048310999874957,1116.927373799961,1116.927373799961,m,0.5427428999682888,1119.0259672999964,1119.0259672999964,96,1.475,,,,,sub-059,25,40,700,bloc_loop.csv,2023-10-18_15h19.55.446,PainUncertainty,2022.2.5,142.96048292272394,
grave,moderee,stimuli/330Hz,stimuli/moderee,bloc_5,prob20hthp_12trials.xlsx,2,24,20,80,0,,,,,0,4,4,4,1,4,16,5,,,,,,,,3.1,1119.0259672999964,1122.1300411999691,1122.130652329995,0.30444190005073324,1122.573875400005,1122.573875400005,m,1.084040299989283,1125.927352699975,1125.927352699975,61,2.204,,,,,sub-059,25,40,700,bloc_loop.csv,2023-10-18_15h19.55.446,PainUncertainty,2022.2.5,142.96048292272394,
aigu,moderee,stimuli/660Hz,stimuli/moderee,bloc_5,prob20hthp_12trials.xlsx,2,24,20,80,0,,,,,0,4,4,4,1,5,17,6,,,,,,,,3.5,1125.927352699975,1129.4293008999666,1129.4294282299757,0.3047575000091456,1129.8733999999822,1129.8733999999822,n,1.364340500032995,1133.067867900012,1133.067867900012,46,1.767,,,,,sub-059,25,40,700,bloc_loop.csv,2023-10-18_15h19.55.446,PainUncertainty,2022.2.5,142.96048292272394,
aigu,moderee,stimuli/660Hz,stimuli/moderee,bloc_5,prob20hthp_12trials.xlsx,2,24,20,80,0,,,,,0,4,4,4,1,6,18,7,,,,,,,,3.9,1133.067867900012,1136.9722415999859,1136.9723818299767,0.30463699996471405,1137.4161013999837,1137.4161013999837,m,1.187207299983129,1141.138220599969,1141.138220599969,41,2.47,,,,,sub-059,25,40,700,bloc_loop.csv,2023-10-18_15h19.55.446,PainUncertainty,2022.2.5,142.96048292272394,
aigu,moderee,stimuli/660Hz,stimuli/moderee,bloc_5,prob20hthp_12trials.xlsx,2,24,20,80,0,,,,,0,4,4,4,1,7,19,8,,,,,,,,4.9,1141.138220599969,1146.0423749999609,1146.0422912299923,0.30509079998591915,1146.4867000000086,1146.4867000000086,n,1.5280830999836326,1149.4790330000105,1149.4790330000105,60,1.391,,,,,sub-059,25,40,700,bloc_loop.csv,2023-10-18_15h19.55.446,PainUncertainty,2022.2.5,142.96048292272394,
grave,forte,stimuli/330Hz,stimuli/forte,bloc_5,prob20hthp_12trials.xlsx,2,24,20,80,0,,,,,0,4,4,4,1,8,20,0,,,,,,,,3.6,1149.4790330000105,1153.0848387999577,1153.0848700299916,0.30551260005449876,1153.5322072999552,1153.5322072999552,m,0.762024299998302,1157.9616396999918,1157.9616396999918,97,3.608,,,,,sub-059,25,40,700,bloc_loop.csv,2023-10-18_15h19.55.446,PainUncertainty,2022.2.5,142.96048292272394,
grave,forte,stimuli/330Hz,stimuli/forte,bloc_5,prob20hthp_12trials.xlsx,2,24,20,80,0,,,,,0,4,4,4,1,9,21,3,,,,,,,,5,1157.9616396999918,1162.9610479999683,1162.9611180300067,0.3048858999973163,1163.4052088999888,1163.4052088999888,m,0.5551014000084251,1165.263037799974,1165.263037799974,100,1.231,,,,,sub-059,25,40,700,bloc_loop.csv,2023-10-18_15h19.55.446,PainUncertainty,2022.2.5,142.96048292272394,
aigu,moderee,stimuli/660Hz,stimuli/moderee,bloc_5,prob20hthp_12trials.xlsx,2,24,20,80,0,,,,,0,4,4,4,1,10,22,9,,,,,,,,5,1165.263037799974,1170.2674268999835,1170.267331029981,0.29984890000196174,1170.7060978999943,1170.7060978999943,m,1.0980955000268295,1173.4116233999957,1173.4116233999957,72,1.538,,,,,sub-059,25,40,700,bloc_loop.csv,2023-10-18_15h19.55.446,PainUncertainty,2022.2.5,142.96048292272394,
grave,forte,stimuli/330Hz,stimuli/forte,bloc_5,prob20hthp_12trials.xlsx,2,24,20,80,0,,,,,0,4,4,4,1,11,23,1,,,,,,,,4.5,1173.4116233999957,1177.9141482000123,1177.9142136299574,0.3049993000458926,1178.3584975000122,1178.3584975000122,m,0.5211550999665633,1180.7303717999603,1180.7303717999603,100,1.768,,,,,sub-059,25,40,700,bloc_loop.csv,2023-10-18_15h19.55.446,PainUncertainty,2022.2.5,142.96048292272394,
grave,moderee,stimuli/330Hz,stimuli/moderee,bloc_6,prob50_50_4trials.xlsx,2,8,50,50,0,,,,,0,5,5,5,0,0,0,0,,,,,,,,3.6,1180.7303717999603,1184.3315400999854,1184.331663029961,0.3049387999926694,1184.7801485999953,1184.7801485999953,n,1.1881123000057414,1187.3443349999725,1187.3443349999725,30,1.314,,,,,sub-059,25,40,700,bloc_loop.csv,2023-10-18_15h19.55.446,PainUncertainty,2022.2.5,142.96048292272394,
aigu,moderee,stimuli/660Hz,stimuli/moderee,bloc_6,prob50_50_4trials.xlsx,2,8,50,50,0,,,,,0,5,5,5,0,1,1,2,,,,,,,,3,1187.3443349999725,1190.34611579997,1190.3462445299897,0.30504230002406985,1190.7907653999864,1190.7907653999864,n,0.8497439000057057,1192.8250338999787,1192.8250338999787,37,1.119,,,,,sub-059,25,40,700,bloc_loop.csv,2023-10-18_15h19.55.446,PainUncertainty,2022.2.5,142.96048292272394,
grave,forte,stimuli/330Hz,stimuli/forte,bloc_6,prob50_50_4trials.xlsx,2,8,50,50,0,,,,,0,5,5,5,0,2,2,1,,,,,,,,4.4,1192.8250338999787,1197.2288987999782,1197.228994729981,0.3051413000212051,1197.6731048999936,1197.6731048999936,m,0.6908117000130005,1201.1650684999768,1201.1650684999768,97,2.733,,,,,sub-059,25,40,700,bloc_loop.csv,2023-10-18_15h19.55.446,PainUncertainty,2022.2.5,142.96048292272394,
aigu,forte,stimuli/660Hz,stimuli/forte,bloc_6,prob50_50_4trials.xlsx,2,8,50,50,0,,,,,0,5,5,5,0,3,3,3,,,,,,,,3.2,1201.1650684999768,1204.368604999967,1204.3686029299802,0.3054472000221722,1204.8127886999864,1204.8127886999864,m,0.5265706999925897,1206.8515867000096,1206.8515867000096,100,1.461,,,,,sub-059,25,40,700,bloc_loop.csv,2023-10-18_15h19.55.446,PainUncertainty,2022.2.5,142.96048292272394,
grave,forte,stimuli/330Hz,stimuli/forte,bloc_6,prob50_50_4trials.xlsx,2,8,50,50,0,,,,,0,5,5,5,1,0,4,1,,,,,,,,4.1,1206.8515867000096,1210.9527454999625,1210.9528389300044,0.3050080999964848,1211.3969795999583,1211.3969795999583,m,0.6117855000193231,1215.9915132999886,1215.9915132999886,100,3.934,,,,,sub-059,25,40,700,bloc_loop.csv,2023-10-18_15h19.55.446,PainUncertainty,2022.2.5,142.96048292272394,
aigu,forte,stimuli/660Hz,stimuli/forte,bloc_6,prob50_50_4trials.xlsx,2,8,50,50,0,,,,,0,5,5,5,1,1,5,3,,,,,,,,3.1,1215.9915132999886,1219.0925900999573,1219.092623530008,0.3055694999638945,1219.5409861999797,1219.5409861999797,m,1.3750713000190444,1225.3078911000048,1225.3078911000048,99,4.309,,,,,sub-059,25,40,700,bloc_loop.csv,2023-10-18_15h19.55.446,PainUncertainty,2022.2.5,142.96048292272394,
grave,moderee,stimuli/330Hz,stimuli/moderee,bloc_6,prob50_50_4trials.xlsx,2,8,50,50,0,,,,,0,5,5,5,1,2,6,0,,,,,,,,5,1225.3078911000048,1230.3093020999804,1230.3091102300036,0.30213670001830906,1230.754368999973,1230.754368999973,n,1.064783600042574,1232.894922700012,1232.894922700012,41,1.018,,,,,sub-059,25,40,700,bloc_loop.csv,2023-10-18_15h19.55.446,PainUncertainty,2022.2.5,142.96048292272394,
aigu,moderee,stimuli/660Hz,stimuli/moderee,bloc_6,prob50_50_4trials.xlsx,2,8,50,50,0,,,,,0,5,5,5,1,3,7,2,,,,,,,,3.2,1232.894922700012,1236.0945123999845,1236.094666429964,0.30507889995351434,1236.5387085999828,1236.5387085999828,m,1.6697959000011906,1240.2775077999686,1240.2775077999686,37,1.997,,,,,sub-059,25,40,700,bloc_loop.csv,2023-10-18_15h19.55.446,PainUncertainty,2022.2.5,142.96048292272394,
grave,forte,stimuli/330Hz,stimuli/forte,bloc_7,prob80hthp_12trials.xlsx,2,24,80,20,1,,,,,0,6,6,6,0,0,0,5,,,,,,,,4.3,1240.2775077999686,1244.5817550999927,1244.5818548299662,0.3049635000061244,1245.033165699977,1245.033165699977,m,0.5754931000410579,1248.3966949000023,1248.3966949000023,74,2.704,,,,,sub-059,25,40,700,bloc_loop.csv,2023-10-18_15h19.55.446,PainUncertainty,2022.2.5,142.96048292272394,
grave,moderee,stimuli/330Hz,stimuli/moderee,bloc_7,prob80hthp_12trials.xlsx,2,24,80,20,1,,,,,0,6,6,6,0,1,1,3,,,,,,,,5,1248.3966949000023,1253.4022430999903,1253.4022410300036,0.30505369999445975,1253.846398499969,1253.846398499969,n,1.1775540999951772,1257.4519184000092,1257.4519184000092,28,2.371,,,,,sub-059,25,40,700,bloc_loop.csv,2023-10-18_15h19.55.446,PainUncertainty,2022.2.5,142.96048292272394,
grave,moderee,stimuli/330Hz,stimuli/moderee,bloc_7,prob80hthp_12trials.xlsx,2,24,80,20,1,,,,,0,6,6,6,0,2,2,2,,,,,,,,4.1,1257.4519184000092,1261.5560566000058,1261.555826929974,0.30514109996147454,1262.000103999977,1262.000103999977,m,1.3707984000211582,1265.1852347999811,1265.1852347999811,43,1.753,,,,,sub-059,25,40,700,bloc_loop.csv,2023-10-18_15h19.55.446,PainUncertainty,2022.2.5,142.96048292272394,
aigu,moderee,stimuli/660Hz,stimuli/moderee,bloc_7,prob80hthp_12trials.xlsx,2,24,80,20,1,,,,,0,6,6,6,0,3,3,11,,,,,,,,4,1265.1852347999811,1269.1890197999892,1269.1888196300074,0.304960299981758,1269.6330209999578,1269.6330209999578,n,0.8217389999772422,1273.7331325999694,1273.7331325999694,5,3.22,,,,,sub-059,25,40,700,bloc_loop.csv,2023-10-18_15h19.55.446,PainUncertainty,2022.2.5,142.96048292272394,
grave,moderee,stimuli/330Hz,stimuli/moderee,bloc_7,prob80hthp_12trials.xlsx,2,24,80,20,1,,,,,0,6,6,6,0,4,4,4,,,,,,,,3.9,1273.7331325999694,1277.6342116000014,1277.6341249300108,0.30515460000606254,1278.07840389997,1278.07840389997,n,0.9406093000434339,1283.1281869999948,1283.1281869999948,1,4.046,,,,,sub-059,25,40,700,bloc_loop.csv,2023-10-18_15h19.55.446,PainUncertainty,2022.2.5,142.96048292272394,
grave,moderee,stimuli/330Hz,stimuli/moderee,bloc_7,prob80hthp_12trials.xlsx,2,24,80,20,1,,,,,0,6,6,6,0,5,5,1,,,,,,,,4.3,1283.1281869999948,1287.4290410999674,1287.42767323,0.30523769999854267,1287.8742267999914,1287.8742267999914,n,1.070249899988994,1291.5159438999835,1291.5159438999835,24,2.503,,,,,sub-059,25,40,700,bloc_loop.csv,2023-10-18_15h19.55.446,PainUncertainty,2022.2.5,142.96048292272394,
aigu,forte,stimuli/660Hz,stimuli/forte,bloc_7,prob80hthp_12trials.xlsx,2,24,80,20,1,,,,,0,6,6,6,0,6,6,7,,,,,,,,4,1291.5159438999835,1295.5189110999927,1295.518663229997,0.30529670004034415,1295.9671573999804,1295.9671573999804,m,0.5403617999982089,1299.0112221000018,1299.0112221000018,74,2.428,,,,,sub-059,25,40,700,bloc_loop.csv,2023-10-18_15h19.55.446,PainUncertainty,2022.2.5,142.96048292272394,
grave,moderee,stimuli/330Hz,stimuli/moderee,bloc_7,prob80hthp_12trials.xlsx,2,24,80,20,1,,,,,0,6,6,6,0,7,7,0,,,,,,,,4.1,1299.0112221000018,1303.1164650999708,1303.116705529968,0.30513649998465553,1303.5647261999547,1303.5647261999547,m,1.0976847999845631,1306.7125145999598,1306.7125145999598,42,1.975,,,,,sub-059,25,40,700,bloc_loop.csv,2023-10-18_15h19.55.446,PainUncertainty,2022.2.5,142.96048292272394,
aigu,forte,stimuli/660Hz,stimuli/forte,bloc_7,prob80hthp_12trials.xlsx,2,24,80,20,1,,,,,0,6,6,6,0,8,8,9,,,,,,,,3.1,1306.7125145999598,1309.812096599955,1309.81238153,0.30453160003526136,1310.2560116999666,1310.2560116999666,m,1.0872786000254564,1314.427246199979,1314.427246199979,93,3.031,,,,,sub-059,25,40,700,bloc_loop.csv,2023-10-18_15h19.55.446,PainUncertainty,2022.2.5,142.96048292272394,
aigu,forte,stimuli/660Hz,stimuli/forte,bloc_7,prob80hthp_12trials.xlsx,2,24,80,20,1,,,,,0,6,6,6,0,9,9,8,,,,,,,,4.9,1314.427246199979,1319.3266016999842,1319.3265974299807,0.3051765999989584,1319.7707467,1319.7707467,m,0.5671359000261873,1325.7089345999993,1325.7089345999993,98,5.31,,,,,sub-059,25,40,700,bloc_loop.csv,2023-10-18_15h19.55.446,PainUncertainty,2022.2.5,142.96048292272394,
aigu,forte,stimuli/660Hz,stimuli/forte,bloc_7,prob80hthp_12trials.xlsx,2,24,80,20,1,,,,,0,6,6,6,0,10,10,10,,,,,,,,3.9,1325.7089345999993,1329.61270160001,1329.6126438300066,0.3050193000235595,1330.0566839000094,1330.0566839000094,m,0.9105594999855384,1333.5854539999855,1333.5854539999855,100,2.567,,,,,sub-059,25,40,700,bloc_loop.csv,2023-10-18_15h19.55.446,PainUncertainty,2022.2.5,142.96048292272394,
aigu,forte,stimuli/660Hz,stimuli/forte,bloc_7,prob80hthp_12trials.xlsx,2,24,80,20,1,,,,,0,6,6,6,0,11,11,6,,,,,,,,3.4,1333.5854539999855,1336.9885320999892,1336.9884826299908,0.3051883000298403,1337.4327887999825,1337.4327887999825,m,0.5848457000101916,1341.3497296999558,1341.3497296999558,89,3.268,,,,,sub-059,25,40,700,bloc_loop.csv,2023-10-18_15h19.55.446,PainUncertainty,2022.2.5,142.96048292272394,
aigu,forte,stimuli/660Hz,stimuli/forte,bloc_7,prob80hthp_12trials.xlsx,2,24,80,20,1,,,,,0,6,6,6,1,0,12,6,,,,,,,,3.5,1341.3497296999558,1344.850576500001,1344.8506058299622,0.3050099000101909,1345.3008080999716,1345.3008080999716,m,0.5964374000323005,1347.4220446000108,1347.4220446000108,92,1.454,,,,,sub-059,25,40,700,bloc_loop.csv,2023-10-18_15h19.55.446,PainUncertainty,2022.2.5,142.96048292272394,
grave,moderee,stimuli/330Hz,stimuli/moderee,bloc_7,prob80hthp_12trials.xlsx,2,24,80,20,1,,,,,0,6,6,6,1,1,13,0,,,,,,,,5,1347.4220446000108,1352.4211508999579,1352.4211537300084,0.30474739999044687,1352.865001099999,1352.865001099999,n,1.2893187999725342,1356.0330104999593,1356.0330104999593,26,1.816,,,,,sub-059,25,40,700,bloc_loop.csv,2023-10-18_15h19.55.446,PainUncertainty,2022.2.5,142.96048292272394,
aigu,moderee,stimuli/660Hz,stimuli/moderee,bloc_7,prob80hthp_12trials.xlsx,2,24,80,20,1,,,,,0,6,6,6,1,2,14,11,,,,,,,,3.4,1356.0330104999593,1359.4354597000056,1359.435556230013,0.3055343999876641,1359.8841668000096,1359.8841668000096,m,0.5744051999645308,1361.7059505999787,1361.7059505999787,33,1.177,,,,,sub-059,25,40,700,bloc_loop.csv,2023-10-18_15h19.55.446,PainUncertainty,2022.2.5,142.96048292272394,
aigu,forte,stimuli/660Hz,stimuli/forte,bloc_7,prob80hthp_12trials.xlsx,2,24,80,20,1,,,,,0,6,6,6,1,3,15,10,,,,,,,,3.1,1361.7059505999787,1364.8114498999785,1364.811456029996,0.3048336999490857,1365.2552953999839,1365.2552953999839,m,0.7586461000028066,1367.5847226000042,1367.5847226000042,94,1.509,,,,,sub-059,25,40,700,bloc_loop.csv,2023-10-18_15h19.55.446,PainUncertainty,2022.2.5,142.96048292272394,
aigu,forte,stimuli/660Hz,stimuli/forte,bloc_7,prob80hthp_12trials.xlsx,2,24,80,20,1,,,,,0,6,6,6,1,4,16,9,,,,,,,,4.8,1367.5847226000042,1372.3887389999582,1372.3888505299633,0.30496019998099655,1372.8325957999914,1372.8325957999914,m,0.5279727000161074,1375.351990199997,1375.351990199997,100,1.919,,,,,sub-059,25,40,700,bloc_loop.csv,2023-10-18_15h19.55.446,PainUncertainty,2022.2.5,142.96048292272394,
grave,moderee,stimuli/330Hz,stimuli/moderee,bloc_7,prob80hthp_12trials.xlsx,2,24,80,20,1,,,,,0,6,6,6,1,5,17,4,,,,,,,,4.5,1375.351990199997,1379.8545330999768,1379.8545591299712,0.30532529996708035,1380.2989637999563,1380.2989637999563,m,1.0697080999962054,1382.5724864999647,1382.5724864999647,37,1.136,,,,,sub-059,25,40,700,bloc_loop.csv,2023-10-18_15h19.55.446,PainUncertainty,2022.2.5,142.96048292272394,
grave,forte,stimuli/330Hz,stimuli/forte,bloc_7,prob80hthp_12trials.xlsx,2,24,80,20,1,,,,,0,6,6,6,1,6,18,5,,,,,,,,5,1382.5724864999647,1387.5778409999912,1387.5777566299598,0.30522159999236465,1388.02613069996,1388.02613069996,m,1.0000041999737732,1391.854992299981,1391.854992299981,74,2.753,,,,,sub-059,25,40,700,bloc_loop.csv,2023-10-18_15h19.55.446,PainUncertainty,2022.2.5,142.96048292272394,
grave,moderee,stimuli/330Hz,stimuli/moderee,bloc_7,prob80hthp_12trials.xlsx,2,24,80,20,1,,,,,0,6,6,6,1,7,19,2,,,,,,,,4.9,1391.854992299981,1396.7594958999543,1396.7593447299964,0.3050601999857463,1397.2034484999604,1397.2034484999604,m,1.1386419999762438,1400.3232016999973,1400.3232016999973,40,1.907,,,,,sub-059,25,40,700,bloc_loop.csv,2023-10-18_15h19.55.446,PainUncertainty,2022.2.5,142.96048292272394,
aigu,forte,stimuli/660Hz,stimuli/forte,bloc_7,prob80hthp_12trials.xlsx,2,24,80,20,1,,,,,0,6,6,6,1,8,20,8,,,,,,,,3.7,1400.3232016999973,1404.0242353999638,1404.0241867299715,0.30559320002794266,1404.4714985999744,1404.4714985999744,m,0.6328747000079602,1406.8107372999657,1406.8107372999657,79,1.629,,,,,sub-059,25,40,700,bloc_loop.csv,2023-10-18_15h19.55.446,PainUncertainty,2022.2.5,142.96048292272394,
grave,moderee,stimuli/330Hz,stimuli/moderee,bloc_7,prob80hthp_12trials.xlsx,2,24,80,20,1,,,,,0,6,6,6,1,9,21,1,,,,,,,,4,1406.8107372999657,1410.8097736999625,1410.8099016299761,0.30041319999145344,1411.2540400999715,1411.2540400999715,m,1.4930182000389323,1415.295204999973,1415.295204999973,60,2.468,,,,,sub-059,25,40,700,bloc_loop.csv,2023-10-18_15h19.55.446,PainUncertainty,2022.2.5,142.96048292272394,
aigu,forte,stimuli/660Hz,stimuli/forte,bloc_7,prob80hthp_12trials.xlsx,2,24,80,20,1,,,,,0,6,6,6,1,10,22,7,,,,,,,,4.3,1415.295204999973,1419.595374699973,1419.5954923299664,0.3052962999790907,1420.0396989999572,1420.0396989999572,m,0.7192518999800086,1422.421557499969,1422.421557499969,85,1.579,,,,,sub-059,25,40,700,bloc_loop.csv,2023-10-18_15h19.55.446,PainUncertainty,2022.2.5,142.96048292272394,
grave,moderee,stimuli/330Hz,stimuli/moderee,bloc_7,prob80hthp_12trials.xlsx,2,24,80,20,1,,,,,0,6,6,6,1,11,23,3,,,,,,,,4.8,1422.421557499969,1427.221386099991,1427.221348429966,0.3050799000193365,1427.6654957999708,1427.6654957999708,m,0.6251825999934226,1434.0507270999951,1434.0507270999951,82,3.734,,,,,sub-059,25,40,700,bloc_loop.csv,2023-10-18_15h19.55.446,PainUncertainty,2022.2.5,142.96048292272394,
,,,,bloc_7,prob80hthp_12trials.xlsx,2,24,80,20,1,,,,,0,6,6,6,,,,,0,0,0,0,,,,,,,,,,,,,,,,,,,1434.0507270999951,1448.2101691999706,sub-059,25,40,700,bloc_loop.csv,2023-10-18_15h19.55.446,PainUncertainty,2022.2.5,142.96048292272394,
aigu,forte,stimuli/660Hz,stimuli/forte,bloc_8,prob50_50_4trials.xlsx,3,12,50,50,0,,,,,0,7,7,7,0,0,0,3,,,,,,,,4.9,1450.8784944000072,1455.7801112000016,1455.7801993300031,0.30497319996356964,1456.2242592999828,1456.2242592999828,m,1.107428900024388,1458.5755755999708,1458.5755755999708,43,1.183,,,,,sub-059,25,40,700,bloc_loop.csv,2023-10-18_15h19.55.446,PainUncertainty,2022.2.5,142.96048292272394,
grave,forte,stimuli/330Hz,stimuli/forte,bloc_8,prob50_50_4trials.xlsx,3,12,50,50,0,,,,,0,7,7,7,0,1,1,1,,,,,,,,4.7,1458.5755755999708,1463.2810196999926,1463.281078530004,0.305200100003276,1463.725227799965,1463.725227799965,m,0.6333016000571661,1465.3531724999775,1465.3531724999775,68,0.911,,,,,sub-059,25,40,700,bloc_loop.csv,2023-10-18_15h19.55.446,PainUncertainty,2022.2.5,142.96048292272394,
grave,moderee,stimuli/330Hz,stimuli/moderee,bloc_8,prob50_50_4trials.xlsx,3,12,50,50,0,,,,,0,7,7,7,0,2,2,0,,,,,,,,3.6,1465.3531724999775,1468.9559650999727,1468.9564432299753,0.30478179996134713,1469.4043829999864,1469.4043829999864,n,0.9099715999909677,1472.8122033000109,1472.8122033000109,41,2.44,,,,,sub-059,25,40,700,bloc_loop.csv,2023-10-18_15h19.55.446,PainUncertainty,2022.2.5,142.96048292272394,
aigu,moderee,stimuli/660Hz,stimuli/moderee,bloc_8,prob50_50_4trials.xlsx,3,12,50,50,0,,,,,0,7,7,7,0,3,3,2,,,,,,,,3.1,1472.8122033000109,1475.9149419000023,1475.9149580299795,0.30474300001515076,1476.3587804999552,1476.3587804999552,m,0.6327845999621786,1478.9946155999787,1478.9946155999787,54,1.928,,,,,sub-059,25,40,700,bloc_loop.csv,2023-10-18_15h19.55.446,PainUncertainty,2022.2.5,142.96048292272394,
grave,forte,stimuli/330Hz,stimuli/forte,bloc_8,prob50_50_4trials.xlsx,3,12,50,50,0,,,,,0,7,7,7,1,0,4,1,,,,,,,,4.2,1478.9946155999787,1483.1933731999598,1483.1937601299664,0.3047000999795273,1483.6374107999727,1483.6374107999727,m,1.2523523000418209,1488.4071558999713,1488.4071558999713,72,3.441,,,,,sub-059,25,40,700,bloc_loop.csv,2023-10-18_15h19.55.446,PainUncertainty,2022.2.5,142.96048292272394,
grave,moderee,stimuli/330Hz,stimuli/moderee,bloc_8,prob50_50_4trials.xlsx,3,12,50,50,0,,,,,0,7,7,7,1,1,5,0,,,,,,,,4.1,1488.4071558999713,1492.5067495999974,1492.5068698300106,0.3049878000165336,1492.9548790999688,1492.9548790999688,n,0.9677593999658711,1496.4125589999603,1496.4125589999603,8,2.416,,,,,sub-059,25,40,700,bloc_loop.csv,2023-10-18_15h19.55.446,PainUncertainty,2022.2.5,142.96048292272394,
aigu,forte,stimuli/660Hz,stimuli/forte,bloc_8,prob50_50_4trials.xlsx,3,12,50,50,0,,,,,0,7,7,7,1,2,6,3,,,,,,,,4.5,1496.4125589999603,1500.917474799964,1500.9173979299899,0.30520000000251457,1501.3615411999635,1501.3615411999635,m,0.9669577999738976,1505.4881852999679,1505.4881852999679,90,3.08,,,,,sub-059,25,40,700,bloc_loop.csv,2023-10-18_15h19.55.446,PainUncertainty,2022.2.5,142.96048292272394,
aigu,moderee,stimuli/660Hz,stimuli/moderee,bloc_8,prob50_50_4trials.xlsx,3,12,50,50,0,,,,,0,7,7,7,1,3,7,2,,,,,,,,5,1505.4881852999679,1510.4884125000099,1510.4884747299889,0.3008477999828756,1510.932455400005,1510.932455400005,n,1.0320482999668457,1513.6019780999632,1513.6019780999632,3,1.58,,,,,sub-059,25,40,700,bloc_loop.csv,2023-10-18_15h19.55.446,PainUncertainty,2022.2.5,142.96048292272394,
aigu,moderee,stimuli/660Hz,stimuli/moderee,bloc_8,prob50_50_4trials.xlsx,3,12,50,50,0,,,,,0,7,7,7,2,0,8,2,,,,,,,,5,1513.6019780999632,1518.6069747000001,1518.6070387299928,0.3054001000127755,1519.055046900001,1519.055046900001,n,2.0004551999736577,1524.7222177999793,1524.7222177999793,9,3.614,,,,,sub-059,25,40,700,bloc_loop.csv,2023-10-18_15h19.55.446,PainUncertainty,2022.2.5,142.96048292272394,
grave,moderee,stimuli/330Hz,stimuli/moderee,bloc_8,prob50_50_4trials.xlsx,3,12,50,50,0,,,,,0,7,7,7,2,1,9,0,,,,,,,,3.2,1524.7222177999793,1527.9275895999745,1527.9276170299795,0.30535420001251623,1528.376333299966,1528.376333299966,n,1.0666560000390746,1531.241771299974,1531.241771299974,7,1.72,,,,,sub-059,25,40,700,bloc_loop.csv,2023-10-18_15h19.55.446,PainUncertainty,2022.2.5,142.96048292272394,
aigu,forte,stimuli/660Hz,stimuli/forte,bloc_8,prob50_50_4trials.xlsx,3,12,50,50,0,,,,,0,7,7,7,2,2,10,3,,,,,,,,3.8,1531.241771299974,1535.0465496999677,1535.0470327300077,0.30657949997112155,1535.498592399992,1535.498592399992,m,0.8773416999611072,1538.606284199981,1538.606284199981,58,2.17,,,,,sub-059,25,40,700,bloc_loop.csv,2023-10-18_15h19.55.446,PainUncertainty,2022.2.5,142.96048292272394,
grave,forte,stimuli/330Hz,stimuli/forte,bloc_8,prob50_50_4trials.xlsx,3,12,50,50,0,,,,,0,7,7,7,2,3,11,1,,,,,,,,4.9,1538.606284199981,1543.5058753999765,1543.5058882299868,0.3050825000391342,1543.9540048000054,1543.9540048000054,m,0.6742660999880172,1545.7818791999598,1545.7818791999598,71,1.08,,,,,sub-059,25,40,700,bloc_loop.csv,2023-10-18_15h19.55.446,PainUncertainty,2022.2.5,142.96048292272394,
aigu,moderee,stimuli/660Hz,stimuli/moderee,bloc_9,prob20hthp_12trials.xlsx,3,36,80,20,0,,,,,0,8,8,8,0,0,0,7,,,,,,,,3.5,1545.7818791999598,1549.2844116999768,1549.284288229997,0.3050877000205219,1549.7284527999582,1549.7284527999582,n,0.7868314000079408,1553.1477759999689,1553.1477759999689,14,2.559,,,,,sub-059,25,40,700,bloc_loop.csv,2023-10-18_15h19.55.446,PainUncertainty,2022.2.5,142.96048292272394,
grave,forte,stimuli/330Hz,stimuli/forte,bloc_9,prob20hthp_12trials.xlsx,3,36,80,20,0,,,,,0,8,8,8,0,1,1,0,,,,,,,,4.4,1553.1477759999689,1557.549153800006,1557.549148929998,0.30509039998287335,1557.9932134999544,1557.9932134999544,m,0.8845850999932736,1560.673019799986,1560.673019799986,72,1.725,,,,,sub-059,25,40,700,bloc_loop.csv,2023-10-18_15h19.55.446,PainUncertainty,2022.2.5,142.96048292272394,
grave,forte,stimuli/330Hz,stimuli/forte,bloc_9,prob20hthp_12trials.xlsx,3,36,80,20,0,,,,,0,8,8,8,0,2,2,3,,,,,,,,4.1,1560.673019799986,1564.7724714999786,1564.7724110300128,0.30504830001154914,1565.2164038000046,1565.2164038000046,m,0.9923613999853842,1567.8777399999672,1567.8777399999672,61,1.601,,,,,sub-059,25,40,700,bloc_loop.csv,2023-10-18_15h19.55.446,PainUncertainty,2022.2.5,142.96048292272394,
aigu,moderee,stimuli/660Hz,stimuli/moderee,bloc_9,prob20hthp_12trials.xlsx,3,36,80,20,0,,,,,0,8,8,8,0,3,3,6,,,,,,,,4,1567.8777399999672,1571.8775984999957,1571.877768329979,0.3049112999578938,1572.3216970000067,1572.3216970000067,m,1.0212669000029564,1575.003092399973,1575.003092399973,65,1.6,,,,,sub-059,25,40,700,bloc_loop.csv,2023-10-18_15h19.55.446,PainUncertainty,2022.2.5,142.96048292272394,
grave,moderee,stimuli/330Hz,stimuli/moderee,bloc_9,prob20hthp_12trials.xlsx,3,36,80,20,0,,,,,0,8,8,8,0,4,4,5,,,,,,,,3.9,1575.003092399973,1578.9057387000066,1578.9058187300047,0.30525530001614243,1579.3501481999992,1579.3501481999992,n,0.9840980999870226,1582.2082864000113,1582.2082864000113,25,1.804,,,,,sub-059,25,40,700,bloc_loop.csv,2023-10-18_15h19.55.446,PainUncertainty,2022.2.5,142.96048292272394,
grave,forte,stimuli/330Hz,stimuli/forte,bloc_9,prob20hthp_12trials.xlsx,3,36,80,20,0,,,,,0,8,8,8,0,5,5,2,,,,,,,,4.9,1582.2082864000113,1587.1081085999613,1587.1081127299635,0.3053446999983862,1587.5522655000095,1587.5522655000095,m,1.0456821999978274,1590.4050174999866,1590.4050174999866,62,1.746,,,,,sub-059,25,40,700,bloc_loop.csv,2023-10-18_15h19.55.446,PainUncertainty,2022.2.5,142.96048292272394,
grave,forte,stimuli/330Hz,stimuli/forte,bloc_9,prob20hthp_12trials.xlsx,3,36,80,20,0,,,,,0,8,8,8,0,6,6,1,,,,,,,,4.8,1590.4050174999866,1595.2063965999987,1595.2064648299652,0.3069990999647416,1595.65813419997,1595.65813419997,m,1.059196200047154,1600.230640899972,1600.230640899972,95,3.436,,,,,sub-059,25,40,700,bloc_loop.csv,2023-10-18_15h19.55.446,PainUncertainty,2022.2.5,142.96048292272394,
aigu,moderee,stimuli/660Hz,stimuli/moderee,bloc_9,prob20hthp_12trials.xlsx,3,36,80,20,0,,,,,0,8,8,8,0,7,7,8,,,,,,,,3.6,1600.230640899972,1603.8328705999884,1603.8327735299767,0.30510830000275746,1604.2805961999693,1604.2805961999693,n,0.7405407999758609,1606.382141799957,1606.382141799957,4,1.295,,,,,sub-059,25,40,700,bloc_loop.csv,2023-10-18_15h19.55.446,PainUncertainty,2022.2.5,142.96048292272394,
aigu,moderee,stimuli/660Hz,stimuli/moderee,bloc_9,prob20hthp_12trials.xlsx,3,36,80,20,0,,,,,0,8,8,8,0,8,8,9,,,,,,,,4.7,1606.382141799957,1611.0834254999645,1611.083543929964,0.30511949997162446,1611.531353999977,1611.531353999977,n,1.053001200023573,1615.4910908999736,1615.4910908999736,3,2.831,,,,,sub-059,25,40,700,bloc_loop.csv,2023-10-18_15h19.55.446,PainUncertainty,2022.2.5,142.96048292272394,
aigu,forte,stimuli/660Hz,stimuli/forte,bloc_9,prob20hthp_12trials.xlsx,3,36,80,20,0,,,,,0,8,8,8,0,9,9,11,,,,,,,,3.5,1615.4910908999736,1618.9941978999996,1618.9944026299577,0.3048764999839477,1619.4421312999912,1619.4421312999912,m,1.3396813999861479,1623.0626549999579,1623.0626549999579,61,2.211,,,,,sub-059,25,40,700,bloc_loop.csv,2023-10-18_15h19.55.446,PainUncertainty,2022.2.5,142.96048292272394,
aigu,moderee,stimuli/660Hz,stimuli/moderee,bloc_9,prob20hthp_12trials.xlsx,3,36,80,20,0,,,,,0,8,8,8,0,10,10,10,,,,,,,,4.3,1623.0626549999579,1627.3627969999798,1627.3628743299573,0.305356600030791,1627.8070987999672,1627.8070987999672,m,1.1678791000158526,1630.9423761999933,1630.9423761999933,63,1.889,,,,,sub-059,25,40,700,bloc_loop.csv,2023-10-18_15h19.55.446,PainUncertainty,2022.2.5,142.96048292272394,
grave,forte,stimuli/330Hz,stimuli/forte,bloc_9,prob20hthp_12trials.xlsx,3,36,80,20,0,,,,,0,8,8,8,0,11,11,4,,,,,,,,4.9,1630.9423761999933,1635.8431478999555,1635.8431380299676,0.30502019997220486,1636.2872170999763,1636.2872170999763,m,2.327476200007368,1640.831832099997,1640.831832099997,58,2.143,,,,,sub-059,25,40,700,bloc_loop.csv,2023-10-18_15h19.55.446,PainUncertainty,2022.2.5,142.96048292272394,
aigu,moderee,stimuli/660Hz,stimuli/moderee,bloc_9,prob20hthp_12trials.xlsx,3,36,80,20,0,,,,,0,8,8,8,1,0,12,8,,,,,,,,4.2,1640.831832099997,1645.0320041999803,1645.0321174299984,0.30481800000416115,1645.4757625999628,1645.4757625999628,None,,1649.2813573000021,1649.2813573000021,44,1.309,1647.9453784999787,1647.9453784999787,,,sub-059,25,40,700,bloc_loop.csv,2023-10-18_15h19.55.446,PainUncertainty,2022.2.5,142.96048292272394,
aigu,moderee,stimuli/660Hz,stimuli/moderee,bloc_9,prob20hthp_12trials.xlsx,3,36,80,20,0,,,,,0,8,8,8,1,1,13,10,,,,,,,,4,1649.2813573000021,1653.2832074000034,1653.2832608299736,0.30487360002007335,1653.729004599969,1653.729004599969,m,2.009854700008873,1657.2551437999937,1657.2551437999937,44,1.46,,,,,sub-059,25,40,700,bloc_loop.csv,2023-10-18_15h19.55.446,PainUncertainty,2022.2.5,142.96048292272394,
aigu,moderee,stimuli/660Hz,stimuli/moderee,bloc_9,prob20hthp_12trials.xlsx,3,36,80,20,0,,,,,0,8,8,8,1,2,14,7,,,,,,,,3.4,1657.2551437999937,1660.6588829999673,1660.6588960299791,0.30504690000088885,1661.1029410999618,1661.1029410999618,m,0.9069319000118412,1663.4536589999916,1663.4536589999916,47,1.37,,,,,sub-059,25,40,700,bloc_loop.csv,2023-10-18_15h19.55.446,PainUncertainty,2022.2.5,142.96048292272394,
grave,forte,stimuli/330Hz,stimuli/forte,bloc_9,prob20hthp_12trials.xlsx,3,36,80,20,0,,,,,0,8,8,8,1,3,15,2,,,,,,,,3,1663.4536589999916,1666.4577449999633,1666.4578061299922,0.30509439995512366,1666.9018892999738,1666.9018892999738,m,0.4437572000315413,1671.699248399993,1671.699248399993,93,4.281,,,,,sub-059,25,40,700,bloc_loop.csv,2023-10-18_15h19.55.446,PainUncertainty,2022.2.5,142.96048292272394,
aigu,moderee,stimuli/660Hz,stimuli/moderee,bloc_9,prob20hthp_12trials.xlsx,3,36,80,20,0,,,,,0,8,8,8,1,4,16,6,,,,,,,,4.9,1671.699248399993,1676.6047854999779,1676.604898729996,0.30529950000345707,1677.0510697999853,1677.0510697999853,m,0.9204156000050716,1680.325800599996,1680.325800599996,57,2.29,,,,,sub-059,25,40,700,bloc_loop.csv,2023-10-18_15h19.55.446,PainUncertainty,2022.2.5,142.96048292272394,
grave,forte,stimuli/330Hz,stimuli/forte,bloc_9,prob20hthp_12trials.xlsx,3,36,80,20,0,,,,,0,8,8,8,1,5,17,1,,,,,,,,3.9,1680.325800599996,1684.2306659999886,1684.2307081299891,0.305139500007499,1684.674850100011,1684.674850100011,m,0.594164100009948,1686.524390799983,1686.524390799983,98,1.205,,,,,sub-059,25,40,700,bloc_loop.csv,2023-10-18_15h19.55.446,PainUncertainty,2022.2.5,142.96048292272394,
grave,forte,stimuli/330Hz,stimuli/forte,bloc_9,prob20hthp_12trials.xlsx,3,36,80,20,0,,,,,0,8,8,8,1,6,18,3,,,,,,,,4.2,1686.524390799983,1690.7246037999867,1690.7245309299847,0.3051674999878742,1691.1686762999743,1691.1686762999743,m,0.49720759998308495,1695.3117765999632,1695.3117765999632,94,3.588,,,,,sub-059,25,40,700,bloc_loop.csv,2023-10-18_15h19.55.446,PainUncertainty,2022.2.5,142.96048292272394,
aigu,forte,stimuli/660Hz,stimuli/forte,bloc_9,prob20hthp_12trials.xlsx,3,36,80,20,0,,,,,0,8,8,8,1,7,19,11,,,,,,,,4.1,1695.3117765999632,1699.4134387999657,1699.4134244300017,0.3059093999909237,1699.8610389999812,1699.8610389999812,m,0.8448479000362568,1703.109767499962,1703.109767499962,100,2.337,,,,,sub-059,25,40,700,bloc_loop.csv,2023-10-18_15h19.55.446,PainUncertainty,2022.2.5,142.96048292272394,
grave,forte,stimuli/330Hz,stimuli/forte,bloc_9,prob20hthp_12trials.xlsx,3,36,80,20,0,,,,,0,8,8,8,1,8,20,4,,,,,,,,4.3,1703.109767499962,1707.414163999958,1707.4162283299897,0.30334149999544024,1707.8621438999544,1707.8621438999544,m,0.5878033000044525,1710.2060961999814,1710.2060961999814,92,1.676,,,,,sub-059,25,40,700,bloc_loop.csv,2023-10-18_15h19.55.446,PainUncertainty,2022.2.5,142.96048292272394,
grave,moderee,stimuli/330Hz,stimuli/moderee,bloc_9,prob20hthp_12trials.xlsx,3,36,80,20,0,,,,,0,8,8,8,1,9,21,5,,,,,,,,3.2,1710.2060961999814,1713.40811389999,1713.4081237299774,0.304922700044699,1713.8521705999738,1713.8521705999738,m,0.9019185000215657,1716.9004228999838,1716.9004228999838,62,2.074,,,,,sub-059,25,40,700,bloc_loop.csv,2023-10-18_15h19.55.446,PainUncertainty,2022.2.5,142.96048292272394,
grave,forte,stimuli/330Hz,stimuli/forte,bloc_9,prob20hthp_12trials.xlsx,3,36,80,20,0,,,,,0,8,8,8,1,10,22,0,,,,,,,,3.6,1716.9004228999838,1720.5057812999585,1720.5057570299773,0.30648850003490224,1720.953541899973,1720.953541899973,m,1.2465636999695562,1723.7872765999637,1723.7872765999637,63,1.511,,,,,sub-059,25,40,700,bloc_loop.csv,2023-10-18_15h19.55.446,PainUncertainty,2022.2.5,142.96048292272394,
aigu,moderee,stimuli/660Hz,stimuli/moderee,bloc_9,prob20hthp_12trials.xlsx,3,36,80,20,0,,,,,0,8,8,8,1,11,23,9,,,,,,,,4.9,1723.7872765999637,1728.6872554000001,1728.6874186299915,0.3049493000144139,1729.1314568999805,1729.1314568999805,n,0.8790121999918483,1731.2322122000041,1731.2322122000041,22,1.143,,,,,sub-059,25,40,700,bloc_loop.csv,2023-10-18_15h19.55.446,PainUncertainty,2022.2.5,142.96048292272394,
grave,forte,stimuli/330Hz,stimuli/forte,bloc_9,prob20hthp_12trials.xlsx,3,36,80,20,0,,,,,0,8,8,8,2,0,24,0,,,,,,,,3.2,1731.2322122000041,1734.437951400003,1734.4380408299562,0.3050243000034243,1734.88247219997,1734.88247219997,m,0.5984853000263683,1739.3781417999999,1739.3781417999999,90,3.838,,,,,sub-059,25,40,700,bloc_loop.csv,2023-10-18_15h19.55.446,PainUncertainty,2022.2.5,142.96048292272394,
grave,forte,stimuli/330Hz,stimuli/forte,bloc_9,prob20hthp_12trials.xlsx,3,36,80,20,0,,,,,0,8,8,8,2,1,25,3,,,,,,,,4.7,1739.3781417999999,1744.0780722000054,1744.0779568299708,0.30635430000256747,1744.5271723999758,1744.5271723999758,m,0.647196400037501,1746.4882558999816,1746.4882558999816,87,1.254,,,,,sub-059,25,40,700,bloc_loop.csv,2023-10-18_15h19.55.446,PainUncertainty,2022.2.5,142.96048292272394,
aigu,forte,stimuli/660Hz,stimuli/forte,bloc_9,prob20hthp_12trials.xlsx,3,36,80,20,0,,,,,0,8,8,8,2,2,26,11,,,,,,,,4.2,1746.4882558999816,1750.6898974999785,1750.6899704299808,0.30148610001197085,1751.1343500000075,1751.1343500000075,m,0.5385682000196539,1755.8047854999895,1755.8047854999895,99,4.067,,,,,sub-059,25,40,700,bloc_loop.csv,2023-10-18_15h19.55.446,PainUncertainty,2022.2.5,142.96048292272394,
grave,forte,stimuli/330Hz,stimuli/forte,bloc_9,prob20hthp_12trials.xlsx,3,36,80,20,0,,,,,0,8,8,8,2,3,27,4,,,,,,,,4,1755.8047854999895,1759.8089493999723,1759.8090684299764,0.3049317999975756,1760.2532329999958,1760.2532329999958,m,1.0339221999747679,1764.992297699966,1764.992297699966,92,3.629,,,,,sub-059,25,40,700,bloc_loop.csv,2023-10-18_15h19.55.446,PainUncertainty,2022.2.5,142.96048292272394,
aigu,moderee,stimuli/660Hz,stimuli/moderee,bloc_9,prob20hthp_12trials.xlsx,3,36,80,20,0,,,,,0,8,8,8,2,4,28,7,,,,,,,,4.1,1764.992297699966,1769.0951726000058,1769.0964381300087,0.3038939000107348,1769.5430337999715,1769.5430337999715,n,0.7362274000188336,1773.1076858000015,1773.1076858000015,13,2.773,,,,,sub-059,25,40,700,bloc_loop.csv,2023-10-18_15h19.55.446,PainUncertainty,2022.2.5,142.96048292272394,
aigu,moderee,stimuli/660Hz,stimuli/moderee,bloc_9,prob20hthp_12trials.xlsx,3,36,80,20,0,,,,,0,8,8,8,2,5,29,6,,,,,,,,4.9,1773.1076858000015,1778.0129543999792,1778.013497929956,0.3041738999891095,1778.4567396999919,1778.4567396999919,m,1.2508899999666028,1781.7193416999653,1781.7193416999653,46,1.95,,,,,sub-059,25,40,700,bloc_loop.csv,2023-10-18_15h19.55.446,PainUncertainty,2022.2.5,142.96048292272394,
aigu,moderee,stimuli/660Hz,stimuli/moderee,bloc_9,prob20hthp_12trials.xlsx,3,36,80,20,0,,,,,0,8,8,8,2,6,30,8,,,,,,,,4.5,1781.7193416999653,1786.2219221999985,1786.221893929987,0.30510370002593845,1786.666186699993,1786.666186699993,m,1.0573398999986239,1789.117045299965,1789.117045299965,37,1.315,,,,,sub-059,25,40,700,bloc_loop.csv,2023-10-18_15h19.55.446,PainUncertainty,2022.2.5,142.96048292272394,
grave,forte,stimuli/330Hz,stimuli/forte,bloc_9,prob20hthp_12trials.xlsx,3,36,80,20,0,,,,,0,8,8,8,2,7,31,1,,,,,,,,4,1789.117045299965,1793.1184517999645,1793.1185344299824,0.2993010000209324,1793.5594864999875,1793.5594864999875,m,1.992602500016801,1797.6828201999888,1797.6828201999888,57,2.045,,,,,sub-059,25,40,700,bloc_loop.csv,2023-10-18_15h19.55.446,PainUncertainty,2022.2.5,142.96048292272394,
aigu,moderee,stimuli/660Hz,stimuli/moderee,bloc_9,prob20hthp_12trials.xlsx,3,36,80,20,0,,,,,0,8,8,8,2,8,32,9,,,,,,,,3.3,1797.6828201999888,1800.987371299998,1800.9875475299718,0.3051246000104584,1801.4317997999606,1801.4317997999606,n,0.6887975999852642,1804.440419999999,1804.440419999999,14,2.253,,,,,sub-059,25,40,700,bloc_loop.csv,2023-10-18_15h19.55.446,PainUncertainty,2022.2.5,142.96048292272394,
grave,moderee,stimuli/330Hz,stimuli/moderee,bloc_9,prob20hthp_12trials.xlsx,3,36,80,20,0,,,,,0,8,8,8,2,9,33,5,,,,,,,,4.2,1804.440419999999,1808.6410106999683,1808.643476629973,0.30272030003834516,1809.0890233999817,1809.0890233999817,n,1.7175286000128835,1812.2836658000015,1812.2836658000015,24,1.426,,,,,sub-059,25,40,700,bloc_loop.csv,2023-10-18_15h19.55.446,PainUncertainty,2022.2.5,142.96048292272394,
aigu,moderee,stimuli/660Hz,stimuli/moderee,bloc_9,prob20hthp_12trials.xlsx,3,36,80,20,0,,,,,0,8,8,8,2,10,34,10,,,,,,,,3.2,1812.2836658000015,1815.4896569999983,1815.4896923300053,0.30471339996438473,1815.9339663999854,1815.9339663999854,m,1.5955473000067286,1819.7945170999737,1819.7945170999737,43,2.191,,,,,sub-059,25,40,700,bloc_loop.csv,2023-10-18_15h19.55.446,PainUncertainty,2022.2.5,142.96048292272394,
grave,forte,stimuli/330Hz,stimuli/forte,bloc_9,prob20hthp_12trials.xlsx,3,36,80,20,0,,,,,0,8,8,8,2,11,35,2,,,,,,,,4,1819.7945170999737,1823.79561739997,1823.7957698299956,0.3055042000487447,1824.2442547999672,1824.2442547999672,m,0.5072331999544986,1826.6481346999644,1826.6481346999644,49,1.87,,,,,sub-059,25,40,700,bloc_loop.csv,2023-10-18_15h19.55.446,PainUncertainty,2022.2.5,142.96048292272394,
