cue_,stimulus_,cue_fichier,stimulus_fichier,block_name,block_trials_file,block_n_reps,block_ntrials,block_prob_highP_highT,block_prob_highP_lowT,block_pause_after,Bloc_essai.thisRepN,Bloc_essai.thisTrialN,Bloc_essai.thisN,Bloc_essai.thisIndex,blocks.thisRepN,blocks.thisTrialN,blocks.thisN,blocks.thisIndex,trials.thisRepN,trials.thisTrialN,trials.thisN,trials.thisIndex,pause_loop.thisRepN,pause_loop.thisTrialN,pause_loop.thisN,pause_loop.thisIndex,key_resp_5.started,start_calib.started,key_resp_2.started,ISI_duration,pause.started,pause.stopped,cue.started,ISI.started,choice_pain.started,Choice.started,choice_pain.stopped,Choice.stopped,choice_pain.keys,main_text.started,confirm_text.started,ratingScale.response,ratingScale.rt,choice_pain.rt,key_resp_3.started,key_resp_6.started,participant,low_ma,high_ma,failsafe_ma,block_file,date,expName,psychopyVersion,frameRate,
aigu,forte,stimuli/660Hz,stimuli/forte,,,,,,,,0,0,0,3,,,,,,,,,,,,,28.9043400999999,227.00674059999983,307.1134052999996,3.8,309.02541299999984,312.83361799999966,312.83621891999985,0.30168259999982183,313.27386709999973,313.27386709999973,315.7492757,315.7492757,None,318.9132212999998,318.9132212999998,58,3.121,,,,sub-045,45,80,700,bloc_loop.csv,2023-09-12_08h51.34.072,PainUncertainty,2022.2.5,143.1467081979757,
aigu,moderee,stimuli/660Hz,stimuli/moderee,,,,,,,,0,1,1,2,,,,,,,,,,,,,,,,4.6,318.9132212999998,323.51851399999987,323.5184360099998,0.30056100000001607,323.9629580999999,323.9629580999999,,,n,328.3602120999999,328.3602120999999,28,3.302,1.0389225000003535,,,sub-045,45,80,700,bloc_loop.csv,2023-09-12_08h51.34.072,PainUncertainty,2022.2.5,143.1467081979757,
grave,moderee,stimuli/330Hz,stimuli/moderee,,,,,,,,0,2,2,0,,,,,,,,,,,,,,,,3.5,328.3602120999999,331.8632012999997,331.8669089199999,0.30079699999987497,332.30408639999996,332.30408639999996,,,m,337.90654749999976,337.90654749999976,54,3.803,1.7279250000001412,,,sub-045,45,80,700,bloc_loop.csv,2023-09-12_08h51.34.072,PainUncertainty,2022.2.5,143.1467081979757,
grave,forte,stimuli/330Hz,stimuli/forte,,,,,,,,0,3,3,1,,,,,,,,,,,,,,,,3.9,337.90654749999976,341.812735,341.81253531,0.3050720999999612,342.26063320000003,342.26063320000003,,,m,347.1302762999999,347.1302762999999,63,2.968,1.8730014000002484,,,sub-045,45,80,700,bloc_loop.csv,2023-09-12_08h51.34.072,PainUncertainty,2022.2.5,143.1467081979757,
aigu,moderee,stimuli/660Hz,stimuli/moderee,bloc_1,prob20hthp_12trials.xlsx,4,48,20,80,0,,,,,0,0,0,0,0,0,0,8,,,,,,,,4.5,394.9296597999996,399.4303866999999,399.43067720999994,0.3048015999997915,399.87657709999985,399.87657709999985,,,n,403.7847829999996,403.7847829999996,25,2.872,0.9502284999998665,,,sub-045,45,80,700,bloc_loop.csv,2023-09-12_08h51.34.072,PainUncertainty,2022.2.5,143.1467081979757,
aigu,forte,stimuli/660Hz,stimuli/forte,bloc_1,prob20hthp_12trials.xlsx,4,48,20,80,0,,,,,0,0,0,0,0,1,1,11,,,,,,,,5,403.7847829999996,408.78524089999974,408.7852807099999,0.3056381000001238,409.2337015999997,409.2337015999997,,,m,414.5909428,414.5909428,60,4.031,1.2467184000001907,,,sub-045,45,80,700,bloc_loop.csv,2023-09-12_08h51.34.072,PainUncertainty,2022.2.5,143.1467081979757,
grave,moderee,stimuli/330Hz,stimuli/moderee,bloc_1,prob20hthp_12trials.xlsx,4,48,20,80,0,,,,,0,0,0,0,0,2,2,5,,,,,,,,3.9,414.5909428,418.4948884999999,418.49506101000003,0.3045481999997719,418.9389999,418.9389999,,,n,423.76735340000005,423.76735340000005,34,3.06,1.6900197000004482,,,sub-045,45,80,700,bloc_loop.csv,2023-09-12_08h51.34.072,PainUncertainty,2022.2.5,143.1467081979757,
grave,forte,stimuli/330Hz,stimuli/forte,bloc_1,prob20hthp_12trials.xlsx,4,48,20,80,0,,,,,0,0,0,0,0,3,3,3,,,,,,,,4.1,423.76735340000005,427.8709971999997,427.87112291,0.30541489999995974,428.31581389999974,428.31581389999974,,,m,432.8769003999996,432.8769003999996,63,2.385,2.1192313000001377,,,sub-045,45,80,700,bloc_loop.csv,2023-09-12_08h51.34.072,PainUncertainty,2022.2.5,143.1467081979757,
grave,forte,stimuli/330Hz,stimuli/forte,bloc_1,prob20hthp_12trials.xlsx,4,48,20,80,0,,,,,0,0,0,0,0,4,4,4,,,,,,,,3.2,432.8769003999996,436.08024369999976,436.0803219099999,0.3060740999999325,436.52964489999977,436.52964489999977,,,m,440.1196163999998,440.1196163999998,70,2.537,0.9801889000000301,,,sub-045,45,80,700,bloc_loop.csv,2023-09-12_08h51.34.072,PainUncertainty,2022.2.5,143.1467081979757,
aigu,moderee,stimuli/660Hz,stimuli/moderee,bloc_1,prob20hthp_12trials.xlsx,4,48,20,80,0,,,,,0,0,0,0,0,5,5,10,,,,,,,,3.8,440.1196163999998,443.92215020000003,443.9221561099999,0.3068617999997514,444.37329409999984,444.37329409999984,,,n,449.3755286999999,449.3755286999999,30,4.053,0.8702772999999979,,,sub-045,45,80,700,bloc_loop.csv,2023-09-12_08h51.34.072,PainUncertainty,2022.2.5,143.1467081979757,
grave,forte,stimuli/330Hz,stimuli/forte,bloc_1,prob20hthp_12trials.xlsx,4,48,20,80,0,,,,,0,0,0,0,0,6,6,0,,,,,,,,3.4,449.3755286999999,452.7769423,452.7769952099998,0.30496110000012777,453.2214377,453.2214377,,,m,457.512882,457.512882,70,3.184,1.0282661000001099,,,sub-045,45,80,700,bloc_loop.csv,2023-09-12_08h51.34.072,PainUncertainty,2022.2.5,143.1467081979757,
aigu,moderee,stimuli/660Hz,stimuli/moderee,bloc_1,prob20hthp_12trials.xlsx,4,48,20,80,0,,,,,0,0,0,0,0,7,7,9,,,,,,,,4.5,457.512882,462.01399459999993,462.01420590999993,0.3047393000001648,462.45832159999964,462.45832159999964,,,n,466.24014799999986,466.24014799999986,27,2.845,0.8685167999997248,,,sub-045,45,80,700,bloc_loop.csv,2023-09-12_08h51.34.072,PainUncertainty,2022.2.5,143.1467081979757,
grave,forte,stimuli/330Hz,stimuli/forte,bloc_1,prob20hthp_12trials.xlsx,4,48,20,80,0,,,,,0,0,0,0,0,8,8,2,,,,,,,,4.8,466.24014799999986,471.0430182,471.0429873099998,0.30510480000020834,471.48698879999984,471.48698879999984,,,m,476.32691739999973,476.32691739999973,63,3.623,1.1529904000003626,,,sub-045,45,80,700,bloc_loop.csv,2023-09-12_08h51.34.072,PainUncertainty,2022.2.5,143.1467081979757,
aigu,moderee,stimuli/660Hz,stimuli/moderee,bloc_1,prob20hthp_12trials.xlsx,4,48,20,80,0,,,,,0,0,0,0,0,9,9,7,,,,,,,,4.7,476.32691739999973,481.0309549999997,481.03047490999967,0.30693499999961205,481.48188809999965,481.48188809999965,,,n,484.0182458999998,484.0182458999998,31,1.663,0.7859932000001209,,,sub-045,45,80,700,bloc_loop.csv,2023-09-12_08h51.34.072,PainUncertainty,2022.2.5,143.1467081979757,
grave,forte,stimuli/330Hz,stimuli/forte,bloc_1,prob20hthp_12trials.xlsx,4,48,20,80,0,,,,,0,0,0,0,0,10,10,1,,,,,,,,3.3,484.0182458999998,487.3230461999997,487.32297750999993,0.30517120000013165,487.77223849999973,487.77223849999973,,,m,490.3958789999997,490.3958789999997,66,1.844,0.7098549000002095,,,sub-045,45,80,700,bloc_loop.csv,2023-09-12_08h51.34.072,PainUncertainty,2022.2.5,143.1467081979757,
aigu,moderee,stimuli/660Hz,stimuli/moderee,bloc_1,prob20hthp_12trials.xlsx,4,48,20,80,0,,,,,0,0,0,0,0,11,11,6,,,,,,,,4.3,490.3958789999997,494.69840129999966,494.69854850999997,0.30501520000007076,495.14262389999976,495.14262389999976,,,n,497.93978909999987,497.93978909999987,23,2.065,0.6588073000002623,,,sub-045,45,80,700,bloc_loop.csv,2023-09-12_08h51.34.072,PainUncertainty,2022.2.5,143.1467081979757,
grave,forte,stimuli/330Hz,stimuli/forte,bloc_1,prob20hthp_12trials.xlsx,4,48,20,80,0,,,,,0,0,0,0,1,0,12,2,,,,,,,,4,497.93978909999987,501.9429575999998,501.94268610999967,0.30500449999999546,502.3864878999998,502.3864878999998,,,m,506.62008319999995,506.62008319999995,68,3.518,0.6541074000001572,,,sub-045,45,80,700,bloc_loop.csv,2023-09-12_08h51.34.072,PainUncertainty,2022.2.5,143.1467081979757,
grave,forte,stimuli/330Hz,stimuli/forte,bloc_1,prob20hthp_12trials.xlsx,4,48,20,80,0,,,,,0,0,0,0,1,1,13,0,,,,,,,,4.9,506.62008319999995,511.5198952999999,511.5199956099996,0.30494309999994584,511.96403949999967,511.96403949999967,,,m,515.0929569999998,515.0929569999998,67,1.353,1.7207992000003287,,,sub-045,45,80,700,bloc_loop.csv,2023-09-12_08h51.34.072,PainUncertainty,2022.2.5,143.1467081979757,
grave,forte,stimuli/330Hz,stimuli/forte,bloc_1,prob20hthp_12trials.xlsx,4,48,20,80,0,,,,,0,0,0,0,1,2,14,1,,,,,,,,3.2,515.0929569999998,518.2919650999997,518.2920354099997,0.3051724000001741,518.7394878,518.7394878,,,m,520.7862084999997,520.7862084999997,69,1.469,0.49687070000027234,,,sub-045,45,80,700,bloc_loop.csv,2023-09-12_08h51.34.072,PainUncertainty,2022.2.5,143.1467081979757,
aigu,moderee,stimuli/660Hz,stimuli/moderee,bloc_1,prob20hthp_12trials.xlsx,4,48,20,80,0,,,,,0,0,0,0,1,3,15,6,,,,,,,,3.3,520.7862084999997,524.0913776999996,524.0915571099999,0.30465849999973216,524.5351725,524.5351725,,,n,526.7795186999997,526.7795186999997,30,1.567,0.5963185000000522,,,sub-045,45,80,700,bloc_loop.csv,2023-09-12_08h51.34.072,PainUncertainty,2022.2.5,143.1467081979757,
grave,forte,stimuli/330Hz,stimuli/forte,bloc_1,prob20hthp_12trials.xlsx,4,48,20,80,0,,,,,0,0,0,0,1,4,16,4,,,,,,,,5,526.7795186999997,531.7793325999996,531.7795318099998,0.30525770000031116,532.2273221,532.2273221,,,m,534.0523098999997,534.0523098999997,66,1.199,0.55883810000023,,,sub-045,45,80,700,bloc_loop.csv,2023-09-12_08h51.34.072,PainUncertainty,2022.2.5,143.1467081979757,
aigu,moderee,stimuli/660Hz,stimuli/moderee,bloc_1,prob20hthp_12trials.xlsx,4,48,20,80,0,,,,,0,0,0,0,1,5,17,9,,,,,,,,4.8,534.0523098999997,538.8565018999998,538.8565303099999,0.3000867999999173,539.3014694999997,539.3014694999997,,,n,541.6923431999999,541.6923431999999,30,1.753,0.5765403000004881,,,sub-045,45,80,700,bloc_loop.csv,2023-09-12_08h51.34.072,PainUncertainty,2022.2.5,143.1467081979757,
grave,moderee,stimuli/330Hz,stimuli/moderee,bloc_1,prob20hthp_12trials.xlsx,4,48,20,80,0,,,,,0,0,0,0,1,6,18,5,,,,,,,,3.1,541.6923431999999,544.7947371999999,544.7949476099998,0.3049452999998721,545.2389432999998,545.2389432999998,,,n,548.7763596,548.7763596,26,1.705,1.767064399999981,,,sub-045,45,80,700,bloc_loop.csv,2023-09-12_08h51.34.072,PainUncertainty,2022.2.5,143.1467081979757,
aigu,moderee,stimuli/660Hz,stimuli/moderee,bloc_1,prob20hthp_12trials.xlsx,4,48,20,80,0,,,,,0,0,0,0,1,7,19,10,,,,,,,,5,548.7763596,553.7820164999998,553.7819953099997,0.30513490000021193,554.2262332999999,554.2262332999999,,,n,558.1099798,558.1099798,28,2.476,1.3478437000003396,,,sub-045,45,80,700,bloc_loop.csv,2023-09-12_08h51.34.072,PainUncertainty,2022.2.5,143.1467081979757,
aigu,moderee,stimuli/660Hz,stimuli/moderee,bloc_1,prob20hthp_12trials.xlsx,4,48,20,80,0,,,,,0,0,0,0,1,8,20,8,,,,,,,,4.7,558.1099798,562.8113992999997,562.8112145099999,0.29933249999976397,563.2497438,563.2497438,,,n,566.9983159999997,566.9983159999997,27,2.851,0.8264625000001615,,,sub-045,45,80,700,bloc_loop.csv,2023-09-12_08h51.34.072,PainUncertainty,2022.2.5,143.1467081979757,
aigu,forte,stimuli/660Hz,stimuli/forte,bloc_1,prob20hthp_12trials.xlsx,4,48,20,80,0,,,,,0,0,0,0,1,9,21,11,,,,,,,,3.5,566.9983159999997,570.4993556,570.4994384099996,0.3048767999998745,570.9438186999996,570.9438186999996,,,m,575.1833155999998,575.1833155999998,71,3.169,0.9995485999997982,,,sub-045,45,80,700,bloc_loop.csv,2023-09-12_08h51.34.072,PainUncertainty,2022.2.5,143.1467081979757,
aigu,moderee,stimuli/660Hz,stimuli/moderee,bloc_1,prob20hthp_12trials.xlsx,4,48,20,80,0,,,,,0,0,0,0,1,10,22,7,,,,,,,,3.5,575.1833155999998,578.6881752999998,578.6883231099996,0.30451210000001083,579.1321066999999,579.1321066999999,,,n,583.4643461999999,583.4643461999999,25,3.296,0.9632704000005106,,,sub-045,45,80,700,bloc_loop.csv,2023-09-12_08h51.34.072,PainUncertainty,2022.2.5,143.1467081979757,
grave,forte,stimuli/330Hz,stimuli/forte,bloc_1,prob20hthp_12trials.xlsx,4,48,20,80,0,,,,,0,0,0,0,1,11,23,3,,,,,,,,4.1,583.4643461999999,587.5638400999997,587.5638759099998,0.30482430000029126,588.0082352,588.0082352,,,m,591.8907895999996,591.8907895999996,71,2.883,0.9120420000003833,,,sub-045,45,80,700,bloc_loop.csv,2023-09-12_08h51.34.072,PainUncertainty,2022.2.5,143.1467081979757,
aigu,moderee,stimuli/660Hz,stimuli/moderee,bloc_1,prob20hthp_12trials.xlsx,4,48,20,80,0,,,,,0,0,0,0,2,0,24,7,,,,,,,,4.3,591.8907895999996,596.1898801999996,596.18992751,0.304958500000339,596.6340360999998,596.6340360999998,,,n,599.9950644999999,599.9950644999999,23,2.613,0.6641243000003669,,,sub-045,45,80,700,bloc_loop.csv,2023-09-12_08h51.34.072,PainUncertainty,2022.2.5,143.1467081979757,
grave,forte,stimuli/330Hz,stimuli/forte,bloc_1,prob20hthp_12trials.xlsx,4,48,20,80,0,,,,,0,0,0,0,2,1,25,4,,,,,,,,4.3,599.9950644999999,604.2953608999997,604.2953169099997,0.30495580000024347,604.7391671999999,604.7391671999999,,,m,607.3636202999996,607.3636202999996,72,2.004,0.555277500000102,,,sub-045,45,80,700,bloc_loop.csv,2023-09-12_08h51.34.072,PainUncertainty,2022.2.5,143.1467081979757,
aigu,moderee,stimuli/660Hz,stimuli/moderee,bloc_1,prob20hthp_12trials.xlsx,4,48,20,80,0,,,,,0,0,0,0,2,2,26,9,,,,,,,,3.1,607.3636202999996,610.4628364999999,610.4628444099999,0.3046297999999297,610.9068436999996,610.9068436999996,,,n,614.5558266999997,614.5558266999997,26,2.921,0.6503233000003092,,,sub-045,45,80,700,bloc_loop.csv,2023-09-12_08h51.34.072,PainUncertainty,2022.2.5,143.1467081979757,
aigu,forte,stimuli/660Hz,stimuli/forte,bloc_1,prob20hthp_12trials.xlsx,4,48,20,80,0,,,,,0,0,0,0,2,3,27,11,,,,,,,,4.7,614.5558266999997,619.2554624999998,619.25518741,0.3057378000003155,619.7000796999996,619.7000796999996,,,m,622.7439175999998,622.7439175999998,74,2.289,0.6746109000000615,,,sub-045,45,80,700,bloc_loop.csv,2023-09-12_08h51.34.072,PainUncertainty,2022.2.5,143.1467081979757,
aigu,moderee,stimuli/660Hz,stimuli/moderee,bloc_1,prob20hthp_12trials.xlsx,4,48,20,80,0,,,,,0,0,0,0,2,4,28,8,,,,,,,,3.6,622.7439175999998,626.3464325999998,626.3463781099999,0.3052471000000878,626.7942321999999,626.7942321999999,,,n,630.4486439999996,630.4486439999996,25,2.302,1.2732402999999977,,,sub-045,45,80,700,bloc_loop.csv,2023-09-12_08h51.34.072,PainUncertainty,2022.2.5,143.1467081979757,
grave,forte,stimuli/330Hz,stimuli/forte,bloc_1,prob20hthp_12trials.xlsx,4,48,20,80,0,,,,,0,0,0,0,2,5,29,0,,,,,,,,3.4,630.4486439999996,633.8541292999998,633.8541741099998,0.3047217999996974,634.2983678,634.2983678,,,m,637.4004471999997,637.4004471999997,71,2.278,0.7692712000002757,,,sub-045,45,80,700,bloc_loop.csv,2023-09-12_08h51.34.072,PainUncertainty,2022.2.5,143.1467081979757,
grave,forte,stimuli/330Hz,stimuli/forte,bloc_1,prob20hthp_12trials.xlsx,4,48,20,80,0,,,,,0,0,0,0,2,6,30,2,,,,,,,,4.2,637.4004471999997,641.6050181999999,641.6051685099997,0.3041443000001891,642.0492433999998,642.0492433999998,,,m,646.3212550999997,646.3212550999997,72,3.553,0.6499665000005734,,,sub-045,45,80,700,bloc_loop.csv,2023-09-12_08h51.34.072,PainUncertainty,2022.2.5,143.1467081979757,
aigu,moderee,stimuli/660Hz,stimuli/moderee,bloc_1,prob20hthp_12trials.xlsx,4,48,20,80,0,,,,,0,0,0,0,2,7,31,6,,,,,,,,4.3,646.3212550999997,650.6204613,650.6204955099997,0.30489399999987654,651.0644336999999,651.0644336999999,,,n,653.0995877999999,653.0995877999999,24,1.414,0.5443497000001116,,,sub-045,45,80,700,bloc_loop.csv,2023-09-12_08h51.34.072,PainUncertainty,2022.2.5,143.1467081979757,
grave,forte,stimuli/330Hz,stimuli/forte,bloc_1,prob20hthp_12trials.xlsx,4,48,20,80,0,,,,,0,0,0,0,2,8,32,3,,,,,,,,4.7,653.0995877999999,657.8015031999998,657.80161731,0.3052330999998958,658.2496443999999,658.2496443999999,,,m,660.6941108999999,660.6941108999999,74,1.571,0.7953170999999202,,,sub-045,45,80,700,bloc_loop.csv,2023-09-12_08h51.34.072,PainUncertainty,2022.2.5,143.1467081979757,
aigu,moderee,stimuli/660Hz,stimuli/moderee,bloc_1,prob20hthp_12trials.xlsx,4,48,20,80,0,,,,,0,0,0,0,2,9,33,10,,,,,,,,5,660.6941108999999,665.6982542999999,665.69841361,0.3048322999998163,666.1428615999998,666.1428615999998,,,n,668.4290578999999,668.4290578999999,26,1.712,0.5113128000002689,,,sub-045,45,80,700,bloc_loop.csv,2023-09-12_08h51.34.072,PainUncertainty,2022.2.5,143.1467081979757,
grave,moderee,stimuli/330Hz,stimuli/moderee,bloc_1,prob20hthp_12trials.xlsx,4,48,20,80,0,,,,,0,0,0,0,2,10,34,5,,,,,,,,3,668.4290578999999,671.4281674999997,671.4282348099996,0.30497349999996004,671.8725568,671.8725568,,,n,674.7765946,674.7765946,24,2.102,0.7287126000001081,,,sub-045,45,80,700,bloc_loop.csv,2023-09-12_08h51.34.072,PainUncertainty,2022.2.5,143.1467081979757,
grave,forte,stimuli/330Hz,stimuli/forte,bloc_1,prob20hthp_12trials.xlsx,4,48,20,80,0,,,,,0,0,0,0,2,11,35,1,,,,,,,,3.5,674.7765946,678.2761919999998,678.2763092099999,0.3051252000000204,678.7244983999999,678.7244983999999,,,m,681.410022,681.410022,72,2.081,0.5428014000003714,,,sub-045,45,80,700,bloc_loop.csv,2023-09-12_08h51.34.072,PainUncertainty,2022.2.5,143.1467081979757,
grave,forte,stimuli/330Hz,stimuli/forte,bloc_1,prob20hthp_12trials.xlsx,4,48,20,80,0,,,,,0,0,0,0,3,0,36,4,,,,,,,,4.7,681.410022,686.1104284999997,686.1105109099999,0.30535310000004756,686.554999,686.554999,,,m,690.3322254,690.3322254,74,2.823,0.8737281999997322,,,sub-045,45,80,700,bloc_loop.csv,2023-09-12_08h51.34.072,PainUncertainty,2022.2.5,143.1467081979757,
grave,moderee,stimuli/330Hz,stimuli/moderee,bloc_1,prob20hthp_12trials.xlsx,4,48,20,80,0,,,,,0,0,0,0,3,1,37,5,,,,,,,,4.2,690.3322254,694.5357650999999,694.5358957099997,0.30479600000035134,694.9835180999999,694.9835180999999,,,n,697.6190861999999,697.6190861999999,22,1.768,0.7975525000001653,,,sub-045,45,80,700,bloc_loop.csv,2023-09-12_08h51.34.072,PainUncertainty,2022.2.5,143.1467081979757,
grave,forte,stimuli/330Hz,stimuli/forte,bloc_1,prob20hthp_12trials.xlsx,4,48,20,80,0,,,,,0,0,0,0,3,2,38,2,,,,,,,,3.5,697.6190861999999,701.1193997999999,701.1193957099999,0.30545740000025035,701.5682313999996,701.5682313999996,,,m,705.3263036999997,705.3263036999997,70,2.727,0.9579639000003226,,,sub-045,45,80,700,bloc_loop.csv,2023-09-12_08h51.34.072,PainUncertainty,2022.2.5,143.1467081979757,
aigu,moderee,stimuli/660Hz,stimuli/moderee,bloc_1,prob20hthp_12trials.xlsx,4,48,20,80,0,,,,,0,0,0,0,3,3,39,9,,,,,,,,4.5,705.3263036999997,709.8287467,709.8287418099999,0.30494039999985034,710.2730827,710.2730827,,,n,714.6619249,714.6619249,22,3.671,0.6378985999999713,,,sub-045,45,80,700,bloc_loop.csv,2023-09-12_08h51.34.072,PainUncertainty,2022.2.5,143.1467081979757,
grave,forte,stimuli/330Hz,stimuli/forte,bloc_1,prob20hthp_12trials.xlsx,4,48,20,80,0,,,,,0,0,0,0,3,4,40,1,,,,,,,,3.8,714.6619249,718.4616103999997,718.4616753099999,0.30504849999988437,718.9057518999998,718.9057518999998,,,m,721.9988653,721.9988653,71,2.365,0.6517530000000988,,,sub-045,45,80,700,bloc_loop.csv,2023-09-12_08h51.34.072,PainUncertainty,2022.2.5,143.1467081979757,
aigu,moderee,stimuli/660Hz,stimuli/moderee,bloc_1,prob20hthp_12trials.xlsx,4,48,20,80,0,,,,,0,0,0,0,3,5,41,6,,,,,,,,4.3,721.9988653,726.3031258999999,726.3031573099997,0.3015252000000146,726.747546,726.747546,,,n,730.6617788999997,730.6617788999997,24,3.289,0.5720116000002236,,,sub-045,45,80,700,bloc_loop.csv,2023-09-12_08h51.34.072,PainUncertainty,2022.2.5,143.1467081979757,
aigu,moderee,stimuli/660Hz,stimuli/moderee,bloc_1,prob20hthp_12trials.xlsx,4,48,20,80,0,,,,,0,0,0,0,3,6,42,10,,,,,,,,3.5,730.6617788999997,734.1648944999997,734.1648778099998,0.3048751999999695,734.6129065,734.6129065,,,n,736.2896728999999,736.2896728999999,24,1.033,0.5760457000001225,,,sub-045,45,80,700,bloc_loop.csv,2023-09-12_08h51.34.072,PainUncertainty,2022.2.5,143.1467081979757,
grave,forte,stimuli/330Hz,stimuli/forte,bloc_1,prob20hthp_12trials.xlsx,4,48,20,80,0,,,,,0,0,0,0,3,7,43,0,,,,,,,,4.3,736.2896728999999,740.5892451,740.5894460099998,0.3048159999998461,741.0335405999999,741.0335405999999,,,m,743.1794513999998,743.1794513999998,71,1.483,0.6066702000002806,,,sub-045,45,80,700,bloc_loop.csv,2023-09-12_08h51.34.072,PainUncertainty,2022.2.5,143.1467081979757,
grave,forte,stimuli/330Hz,stimuli/forte,bloc_1,prob20hthp_12trials.xlsx,4,48,20,80,0,,,,,0,0,0,0,3,8,44,3,,,,,,,,3,743.1794513999998,746.1806804999997,746.1809092099998,0.3046530999999959,746.6268664999998,746.6268664999998,,,m,749.1284422999997,749.1284422999997,71,1.408,1.029712600000039,,,sub-045,45,80,700,bloc_loop.csv,2023-09-12_08h51.34.072,PainUncertainty,2022.2.5,143.1467081979757,
aigu,forte,stimuli/660Hz,stimuli/forte,bloc_1,prob20hthp_12trials.xlsx,4,48,20,80,0,,,,,0,0,0,0,3,9,45,11,,,,,,,,4.8,749.1284422999997,753.9310382999997,753.93103071,0.3045766000000185,754.3755080999999,754.3755080999999,,,m,759.4865719,759.4865719,72,3.809,1.2177513000001454,,,sub-045,45,80,700,bloc_loop.csv,2023-09-12_08h51.34.072,PainUncertainty,2022.2.5,143.1467081979757,
aigu,moderee,stimuli/660Hz,stimuli/moderee,bloc_1,prob20hthp_12trials.xlsx,4,48,20,80,0,,,,,0,0,0,0,3,10,46,8,,,,,,,,3.8,759.4865719,763.2864353999998,763.2865226099998,0.3047257000002901,763.7305277,763.7305277,,,n,767.7345904999997,767.7345904999997,24,3.206,0.7354178000005049,,,sub-045,45,80,700,bloc_loop.csv,2023-09-12_08h51.34.072,PainUncertainty,2022.2.5,143.1467081979757,
aigu,moderee,stimuli/660Hz,stimuli/moderee,bloc_1,prob20hthp_12trials.xlsx,4,48,20,80,0,,,,,0,0,0,0,3,11,47,7,,,,,,,,4.4,767.7345904999997,772.1349129999999,772.1347579099997,0.3050295000002734,772.5792130999998,772.5792130999998,,,n,775.8561164999996,775.8561164999996,23,2.618,0.5716178000002401,,,sub-045,45,80,700,bloc_loop.csv,2023-09-12_08h51.34.072,PainUncertainty,2022.2.5,143.1467081979757,
grave,forte,stimuli/330Hz,stimuli/forte,bloc_2,prob50_50_4trials.xlsx,2,8,50,50,1,,,,,0,1,1,1,0,0,0,1,,,,,,,,4.4,775.8561164999996,780.2607163999996,780.26079351,0.30526770000005854,780.7049222,780.7049222,,,m,784.7429612999999,784.7429612999999,73,2.79,1.1785125000001244,,,sub-045,45,80,700,bloc_loop.csv,2023-09-12_08h51.34.072,PainUncertainty,2022.2.5,143.1467081979757,
grave,moderee,stimuli/330Hz,stimuli/moderee,bloc_2,prob50_50_4trials.xlsx,2,8,50,50,1,,,,,0,1,1,1,0,1,1,0,,,,,,,,3.4,784.7429612999999,788.1436119,788.1436344099998,0.30223160000014104,788.5894148999996,788.5894148999996,,,n,793.3285053,793.3285053,23,3.433,1.22219159999986,,,sub-045,45,80,700,bloc_loop.csv,2023-09-12_08h51.34.072,PainUncertainty,2022.2.5,143.1467081979757,
aigu,forte,stimuli/660Hz,stimuli/forte,bloc_2,prob50_50_4trials.xlsx,2,8,50,50,1,,,,,0,1,1,1,0,2,2,3,,,,,,,,3.3,793.3285053,796.6310681,796.6309883099998,0.3050847999998041,797.0750613,797.0750613,,,m,801.1294884999998,801.1294884999998,74,3.393,0.5845918000004531,,,sub-045,45,80,700,bloc_loop.csv,2023-09-12_08h51.34.072,PainUncertainty,2022.2.5,143.1467081979757,
aigu,moderee,stimuli/660Hz,stimuli/moderee,bloc_2,prob50_50_4trials.xlsx,2,8,50,50,1,,,,,0,1,1,1,0,3,3,2,,,,,,,,3.7,801.1294884999998,804.8331958999997,804.8332667099999,0.30469540000012785,805.2773657999996,805.2773657999996,,,n,807.8259797999999,807.8259797999999,23,1.845,0.6523449000001165,,,sub-045,45,80,700,bloc_loop.csv,2023-09-12_08h51.34.072,PainUncertainty,2022.2.5,143.1467081979757,
aigu,moderee,stimuli/660Hz,stimuli/moderee,bloc_2,prob50_50_4trials.xlsx,2,8,50,50,1,,,,,0,1,1,1,1,0,4,2,,,,,,,,3,807.8259797999999,810.8274108,810.8274809099998,0.3048539000001256,811.2746638999997,811.2746638999997,,,n,815.0046794,815.0046794,25,3.108,0.542399800000112,,,sub-045,45,80,700,bloc_loop.csv,2023-09-12_08h51.34.072,PainUncertainty,2022.2.5,143.1467081979757,
grave,forte,stimuli/330Hz,stimuli/forte,bloc_2,prob50_50_4trials.xlsx,2,8,50,50,1,,,,,0,1,1,1,1,1,5,1,,,,,,,,4.4,815.0046794,819.4044383,819.4045561099997,0.30491510000001654,819.8488914999998,819.8488914999998,,,m,822.4210444999999,822.4210444999999,73,1.921,0.5938188000000082,,,sub-045,45,80,700,bloc_loop.csv,2023-09-12_08h51.34.072,PainUncertainty,2022.2.5,143.1467081979757,
aigu,forte,stimuli/660Hz,stimuli/forte,bloc_2,prob50_50_4trials.xlsx,2,8,50,50,1,,,,,0,1,1,1,1,2,6,3,,,,,,,,4.6,822.4210444999999,827.0234631999997,827.0234996099998,0.3020369999999275,827.4682722999996,827.4682722999996,,,m,830.0957108999996,830.0957108999996,73,1.444,1.1097951000001558,,,sub-045,45,80,700,bloc_loop.csv,2023-09-12_08h51.34.072,PainUncertainty,2022.2.5,143.1467081979757,
grave,moderee,stimuli/330Hz,stimuli/moderee,bloc_2,prob50_50_4trials.xlsx,2,8,50,50,1,,,,,0,1,1,1,1,3,7,0,,,,,,,,3.5,830.0957108999996,833.6005861999997,833.6004606099996,0.30555169999979626,834.0490953999997,834.0490953999997,,,n,839.3124347999997,839.3124347999997,23,2.593,0.6382840000001124,,,sub-045,45,80,700,bloc_loop.csv,2023-09-12_08h51.34.072,PainUncertainty,2022.2.5,143.1467081979757,
,,,,bloc_2,prob50_50_4trials.xlsx,2,8,50,50,1,,,,,0,1,1,1,,,,,0,0,0,0,,,,,,,,,,,,,,,,,,,839.3124347999997,865.0416842999998,sub-045,45,80,700,bloc_loop.csv,2023-09-12_08h51.34.072,PainUncertainty,2022.2.5,143.1467081979757,
grave,moderee,stimuli/330Hz,stimuli/moderee,bloc_3,prob80hthp_12trials.xlsx,2,24,80,20,0,,,,,0,2,2,2,0,0,0,3,,,,,,,,3,866.8330020999997,869.8340162999998,869.8340905099999,0.30538830000023154,870.2784511999998,870.2784511999998,,,n,873.4987375999999,873.4987375999999,23,2.338,0.8036069000004318,,,sub-045,45,80,700,bloc_loop.csv,2023-09-12_08h51.34.072,PainUncertainty,2022.2.5,143.1467081979757,
aigu,forte,stimuli/660Hz,stimuli/forte,bloc_3,prob80hthp_12trials.xlsx,2,24,80,20,0,,,,,0,2,2,2,0,1,1,9,,,,,,,,3.9,873.4987375999999,877.4043779999997,877.4043825099998,0.30100169999968784,877.8492031999999,877.8492031999999,,,m,879.8919947999998,879.8919947999998,73,1.373,0.6019408000001931,,,sub-045,45,80,700,bloc_loop.csv,2023-09-12_08h51.34.072,PainUncertainty,2022.2.5,143.1467081979757,
grave,moderee,stimuli/330Hz,stimuli/moderee,bloc_3,prob80hthp_12trials.xlsx,2,24,80,20,0,,,,,0,2,2,2,0,2,2,1,,,,,,,,4.2,879.8919947999998,884.0926706,884.0927579099998,0.3049983999999313,884.5424426999998,884.5424426999998,,,n,889.0517362999999,889.0517362999999,27,3.859,0.5980589000000691,,,sub-045,45,80,700,bloc_loop.csv,2023-09-12_08h51.34.072,PainUncertainty,2022.2.5,143.1467081979757,
grave,moderee,stimuli/330Hz,stimuli/moderee,bloc_3,prob80hthp_12trials.xlsx,2,24,80,20,0,,,,,0,2,2,2,0,3,3,2,,,,,,,,4.1,889.0517362999999,893.1562882999997,893.1564270099998,0.30498149999993984,893.6003735999998,893.6003735999998,,,n,895.8450673999996,895.8450673999996,24,1.386,0.7980072000004839,,,sub-045,45,80,700,bloc_loop.csv,2023-09-12_08h51.34.072,PainUncertainty,2022.2.5,143.1467081979757,
grave,moderee,stimuli/330Hz,stimuli/moderee,bloc_3,prob80hthp_12trials.xlsx,2,24,80,20,0,,,,,0,2,2,2,0,4,4,0,,,,,,,,4.7,895.8450673999996,900.5461639999999,900.5460815099996,0.3053653000001759,900.9902484999998,900.9902484999998,,,n,904.5274855999996,904.5274855999996,24,2.671,0.7901563999998871,,,sub-045,45,80,700,bloc_loop.csv,2023-09-12_08h51.34.072,PainUncertainty,2022.2.5,143.1467081979757,
aigu,forte,stimuli/660Hz,stimuli/forte,bloc_3,prob80hthp_12trials.xlsx,2,24,80,20,0,,,,,0,2,2,2,0,5,5,8,,,,,,,,3.4,904.5274855999996,907.9309000999997,907.9293315099999,0.3052219999999579,908.3766044999998,908.3766044999998,,,m,912.0878869999997,912.0878869999997,71,2.44,1.1536801000002015,,,sub-045,45,80,700,bloc_loop.csv,2023-09-12_08h51.34.072,PainUncertainty,2022.2.5,143.1467081979757,
aigu,moderee,stimuli/660Hz,stimuli/moderee,bloc_3,prob80hthp_12trials.xlsx,2,24,80,20,0,,,,,0,2,2,2,0,6,6,11,,,,,,,,4.2,912.0878869999997,916.2910594,916.2910924099997,0.30519490000006044,916.7352997999997,916.7352997999997,,,n,921.3434116999997,921.3434116999997,23,3.234,1.304085400000531,,,sub-045,45,80,700,bloc_loop.csv,2023-09-12_08h51.34.072,PainUncertainty,2022.2.5,143.1467081979757,
aigu,forte,stimuli/660Hz,stimuli/forte,bloc_3,prob80hthp_12trials.xlsx,2,24,80,20,0,,,,,0,2,2,2,0,7,7,7,,,,,,,,3,921.3434116999997,924.3476719,924.3476765099999,0.3050242999997863,924.7919862999997,924.7919862999997,,,m,927.4981653999998,927.4981653999998,71,1.913,0.719055600000047,,,sub-045,45,80,700,bloc_loop.csv,2023-09-12_08h51.34.072,PainUncertainty,2022.2.5,143.1467081979757,
grave,moderee,stimuli/330Hz,stimuli/moderee,bloc_3,prob80hthp_12trials.xlsx,2,24,80,20,0,,,,,0,2,2,2,0,8,8,4,,,,,,,,3.3,927.4981653999998,930.7998233999997,930.8002828099998,0.30432740000014746,931.2442040999999,931.2442040999999,,,n,933.3478345999997,933.3478345999997,24,1.392,0.6338825000002544,,,sub-045,45,80,700,bloc_loop.csv,2023-09-12_08h51.34.072,PainUncertainty,2022.2.5,143.1467081979757,
aigu,forte,stimuli/660Hz,stimuli/forte,bloc_3,prob80hthp_12trials.xlsx,2,24,80,20,0,,,,,0,2,2,2,0,9,9,6,,,,,,,,5,933.3478345999997,938.3497112,938.3499100099998,0.30518050000000585,938.7986277,938.7986277,,,m,942.3469406999998,942.3469406999998,72,2.789,0.6977553000001535,,,sub-045,45,80,700,bloc_loop.csv,2023-09-12_08h51.34.072,PainUncertainty,2022.2.5,143.1467081979757,
grave,forte,stimuli/330Hz,stimuli/forte,bloc_3,prob80hthp_12trials.xlsx,2,24,80,20,0,,,,,0,2,2,2,0,10,10,5,,,,,,,,5,942.3469406999998,947.3505077,947.35061361,0.30487349999975777,947.7985819,947.7985819,,,m,952.7542228999996,952.7542228999996,72,3.747,1.14565950000042,,,sub-045,45,80,700,bloc_loop.csv,2023-09-12_08h51.34.072,PainUncertainty,2022.2.5,143.1467081979757,
aigu,forte,stimuli/660Hz,stimuli/forte,bloc_3,prob80hthp_12trials.xlsx,2,24,80,20,0,,,,,0,2,2,2,0,11,11,10,,,,,,,,3.1,952.7542228999996,955.8582609,955.8583250099996,0.30511550000028365,956.3024636,956.3024636,,,m,958.8122343999999,958.8122343999999,72,1.413,1.0397678000003907,,,sub-045,45,80,700,bloc_loop.csv,2023-09-12_08h51.34.072,PainUncertainty,2022.2.5,143.1467081979757,
aigu,forte,stimuli/660Hz,stimuli/forte,bloc_3,prob80hthp_12trials.xlsx,2,24,80,20,0,,,,,0,2,2,2,1,0,12,6,,,,,,,,4.3,958.8122343999999,963.1160562999999,963.11612191,0.2993765000001076,963.558513,963.558513,,,m,966.6626532,966.6626532,74,2.304,0.739759900000081,,,sub-045,45,80,700,bloc_loop.csv,2023-09-12_08h51.34.072,PainUncertainty,2022.2.5,143.1467081979757,
grave,forte,stimuli/330Hz,stimuli/forte,bloc_3,prob80hthp_12trials.xlsx,2,24,80,20,0,,,,,0,2,2,2,1,1,13,5,,,,,,,,4.7,966.6626532,971.3674265,971.3674211099997,0.30525189999980284,971.8149602999997,971.8149602999997,,,m,974.4956534999997,974.4956534999997,72,1.886,0.7278040000001056,,,sub-045,45,80,700,bloc_loop.csv,2023-09-12_08h51.34.072,PainUncertainty,2022.2.5,143.1467081979757,
aigu,forte,stimuli/660Hz,stimuli/forte,bloc_3,prob80hthp_12trials.xlsx,2,24,80,20,0,,,,,0,2,2,2,1,2,14,8,,,,,,,,4.4,974.4956534999997,978.8957499999997,978.8956369099997,0.30545670000037717,979.3398921999997,979.3398921999997,,,m,983.9434375999999,983.9434375999999,73,3.464,1.0678601999998136,,,sub-045,45,80,700,bloc_loop.csv,2023-09-12_08h51.34.072,PainUncertainty,2022.2.5,143.1467081979757,
grave,moderee,stimuli/330Hz,stimuli/moderee,bloc_3,prob80hthp_12trials.xlsx,2,24,80,20,0,,,,,0,2,2,2,1,3,15,0,,,,,,,,3.9,983.9434375999999,987.8485526999998,987.8484405099998,0.3050514999999905,988.2951270999997,988.2951270999997,,,n,991.4901867999997,991.4901867999997,24,2.406,0.709153800000422,,,sub-045,45,80,700,bloc_loop.csv,2023-09-12_08h51.34.072,PainUncertainty,2022.2.5,143.1467081979757,
aigu,forte,stimuli/660Hz,stimuli/forte,bloc_3,prob80hthp_12trials.xlsx,2,24,80,20,0,,,,,0,2,2,2,1,4,16,9,,,,,,,,4.7,991.4901867999997,996.1894021999997,996.1895627099998,0.3048223999999209,996.6336087,996.6336087,,,m,1003.5263900999998,1003.5263900999998,72,5.579,1.2302572000003238,,,sub-045,45,80,700,bloc_loop.csv,2023-09-12_08h51.34.072,PainUncertainty,2022.2.5,143.1467081979757,
grave,moderee,stimuli/330Hz,stimuli/moderee,bloc_3,prob80hthp_12trials.xlsx,2,24,80,20,0,,,,,0,2,2,2,1,5,17,4,,,,,,,,3.5,1003.5263900999998,1007.0309948999998,1007.0310971099998,0.29938080000010814,1007.469615,1007.469615,,,n,1010.8469958999999,1010.8469958999999,24,2.441,0.884327900000244,,,sub-045,45,80,700,bloc_loop.csv,2023-09-12_08h51.34.072,PainUncertainty,2022.2.5,143.1467081979757,
grave,moderee,stimuli/330Hz,stimuli/moderee,bloc_3,prob80hthp_12trials.xlsx,2,24,80,20,0,,,,,0,2,2,2,1,6,18,2,,,,,,,,4.3,1010.8469958999999,1015.1500312999997,1015.1501618099996,0.3050666999997702,1015.6015181999996,1015.6015181999996,,,n,1019.4643432999997,1019.4643432999997,23,3.178,0.6274149999999281,,,sub-045,45,80,700,bloc_loop.csv,2023-09-12_08h51.34.072,PainUncertainty,2022.2.5,143.1467081979757,
grave,moderee,stimuli/330Hz,stimuli/moderee,bloc_3,prob80hthp_12trials.xlsx,2,24,80,20,0,,,,,0,2,2,2,1,7,19,1,,,,,,,,4.9,1019.4643432999997,1024.3664458999997,1024.36643491,0.30510169999979553,1024.8106380999998,1024.8106380999998,,,n,1028.6072673999997,1028.6072673999997,22,3.039,0.7049186999997801,,,sub-045,45,80,700,bloc_loop.csv,2023-09-12_08h51.34.072,PainUncertainty,2022.2.5,143.1467081979757,
grave,moderee,stimuli/330Hz,stimuli/moderee,bloc_3,prob80hthp_12trials.xlsx,2,24,80,20,0,,,,,0,2,2,2,1,8,20,3,,,,,,,,4.3,1028.6072673999997,1032.9096783999998,1032.9095619099999,0.3051895000003242,1033.3555548999998,1033.3555548999998,,,n,1036.9519065999998,1036.9519065999998,23,2.915,0.620064000000184,,,sub-045,45,80,700,bloc_loop.csv,2023-09-12_08h51.34.072,PainUncertainty,2022.2.5,143.1467081979757,
aigu,moderee,stimuli/660Hz,stimuli/moderee,bloc_3,prob80hthp_12trials.xlsx,2,24,80,20,0,,,,,0,2,2,2,1,9,21,11,,,,,,,,3.8,1036.9519065999998,1040.7577517,1040.75759961,0.30519209999965824,1041.2055326999998,1041.2055326999998,,,n,1043.7628797999996,1043.7628797999996,25,1.252,1.222743199999968,,,sub-045,45,80,700,bloc_loop.csv,2023-09-12_08h51.34.072,PainUncertainty,2022.2.5,143.1467081979757,
aigu,forte,stimuli/660Hz,stimuli/forte,bloc_3,prob80hthp_12trials.xlsx,2,24,80,20,0,,,,,0,2,2,2,1,10,22,10,,,,,,,,4.2,1043.7628797999996,1047.9671945,1047.9672072099997,0.30488439999999173,1048.4158685999996,1048.4158685999996,,,m,1052.0903595999998,1052.0903595999998,72,2.947,0.6663109000000986,,,sub-045,45,80,700,bloc_loop.csv,2023-09-12_08h51.34.072,PainUncertainty,2022.2.5,143.1467081979757,
aigu,forte,stimuli/660Hz,stimuli/forte,bloc_3,prob80hthp_12trials.xlsx,2,24,80,20,0,,,,,0,2,2,2,1,11,23,7,,,,,,,,4.3,1052.0903595999998,1056.3911325,1056.3912512099996,0.3048732000002019,1056.835173,1056.835173,,,m,1059.8452009999996,1059.8452009999996,71,2.258,0.664933800000199,,,sub-045,45,80,700,bloc_loop.csv,2023-09-12_08h51.34.072,PainUncertainty,2022.2.5,143.1467081979757,
aigu,moderee,stimuli/660Hz,stimuli/moderee,bloc_4,prob50_50_4trials.xlsx,2,8,50,50,1,,,,,0,3,3,3,0,0,0,2,,,,,,,,3.9,1059.8452009999996,1063.7461018,1063.7461881099998,0.30500149999988935,1064.1902433999999,1064.1902433999999,,,n,1066.0324719999999,1066.0324719999999,22,1.115,0.6497584000003371,,,sub-045,45,80,700,bloc_loop.csv,2023-09-12_08h51.34.072,PainUncertainty,2022.2.5,143.1467081979757,
aigu,forte,stimuli/660Hz,stimuli/forte,bloc_4,prob50_50_4trials.xlsx,2,8,50,50,1,,,,,0,3,3,3,0,1,1,3,,,,,,,,3.7,1066.0324719999999,1069.7329172,1069.7329344099999,0.30196450000039476,1070.1777121999999,1070.1777121999999,,,m,1073.7857433,1073.7857433,72,2.948,0.577530200000183,,,sub-045,45,80,700,bloc_loop.csv,2023-09-12_08h51.34.072,PainUncertainty,2022.2.5,143.1467081979757,
grave,moderee,stimuli/330Hz,stimuli/moderee,bloc_4,prob50_50_4trials.xlsx,2,8,50,50,1,,,,,0,3,3,3,0,2,2,0,,,,,,,,3.4,1073.7857433,1077.1851118,1077.1850906099999,0.30534239999997226,1077.6293223999996,1077.6293223999996,,,n,1079.5867187,1079.5867187,23,1.276,0.6138888000000406,,,sub-045,45,80,700,bloc_loop.csv,2023-09-12_08h51.34.072,PainUncertainty,2022.2.5,143.1467081979757,
grave,forte,stimuli/330Hz,stimuli/forte,bloc_4,prob50_50_4trials.xlsx,2,8,50,50,1,,,,,0,3,3,3,0,3,3,1,,,,,,,,4.1,1079.5867187,1083.6863347999997,1083.68622551,0.3052044000000933,1084.1345530999997,1084.1345530999997,,,m,1087.8831166,1087.8831166,70,2.122,1.563971400000355,,,sub-045,45,80,700,bloc_loop.csv,2023-09-12_08h51.34.072,PainUncertainty,2022.2.5,143.1467081979757,
aigu,forte,stimuli/660Hz,stimuli/forte,bloc_4,prob50_50_4trials.xlsx,2,8,50,50,1,,,,,0,3,3,3,1,0,4,3,,,,,,,,4.7,1087.8831166,1092.5827957000001,1092.5829153099999,0.29914129999997385,1093.0235771999996,1093.0235771999996,,,m,1097.6663620999998,1097.6663620999998,73,3.15,1.4322591000000102,,,sub-045,45,80,700,bloc_loop.csv,2023-09-12_08h51.34.072,PainUncertainty,2022.2.5,143.1467081979757,
grave,forte,stimuli/330Hz,stimuli/forte,bloc_4,prob50_50_4trials.xlsx,2,8,50,50,1,,,,,0,3,3,3,1,1,5,1,,,,,,,,4.5,1097.6663620999998,1102.1675967,1102.1675297099996,0.30496190000030765,1102.6114214,1102.6114214,,,m,1105.7880852999997,1105.7880852999997,73,2.42,0.6852639999997336,,,sub-045,45,80,700,bloc_loop.csv,2023-09-12_08h51.34.072,PainUncertainty,2022.2.5,143.1467081979757,
grave,moderee,stimuli/330Hz,stimuli/moderee,bloc_4,prob50_50_4trials.xlsx,2,8,50,50,1,,,,,0,3,3,3,1,2,6,0,,,,,,,,4.9,1105.7880852999997,1110.6894309,1110.68947531,0.30508499999996275,1111.1334394999994,1111.1334394999994,,,n,1114.9643381999995,1114.9643381999995,24,3.137,0.6420428000001266,,,sub-045,45,80,700,bloc_loop.csv,2023-09-12_08h51.34.072,PainUncertainty,2022.2.5,143.1467081979757,
aigu,moderee,stimuli/660Hz,stimuli/moderee,bloc_4,prob50_50_4trials.xlsx,2,8,50,50,1,,,,,0,3,3,3,1,3,7,2,,,,,,,,3.7,1114.9643381999995,1118.6695613000002,1118.6695640100002,0.30516700000043784,1119.1161525999996,1119.1161525999996,,,n,1124.8281998000002,1124.8281998000002,24,3.074,0.6056422999999995,,,sub-045,45,80,700,bloc_loop.csv,2023-09-12_08h51.34.072,PainUncertainty,2022.2.5,143.1467081979757,
,,,,bloc_4,prob50_50_4trials.xlsx,2,8,50,50,1,,,,,0,3,3,3,,,,,0,0,0,0,,,,,,,,,,,,,,,,,,,1124.8281998000002,1157.3751708999998,sub-045,45,80,700,bloc_loop.csv,2023-09-12_08h51.34.072,PainUncertainty,2022.2.5,143.1467081979757,
aigu,moderee,stimuli/660Hz,stimuli/moderee,bloc_5,prob20hthp_12trials.xlsx,2,24,20,80,0,,,,,0,4,4,4,0,0,0,9,,,,,,,,4.2,1158.5114524,1162.7161986,1162.7162852099996,0.3050392999994074,1163.1604492999995,1163.1604492999995,,,n,1165.0308135999994,1165.0308135999994,24,1.254,0.5560589000006075,,,sub-045,45,80,700,bloc_loop.csv,2023-09-12_08h51.34.072,PainUncertainty,2022.2.5,143.1467081979757,
grave,moderee,stimuli/330Hz,stimuli/moderee,bloc_5,prob20hthp_12trials.xlsx,2,24,20,80,0,,,,,0,4,4,4,0,1,1,5,,,,,,,,4.5,1165.0308135999994,1169.5363854999996,1169.5364938099997,0.2990407999996023,1169.9771200999994,1169.9771200999994,,,n,1174.6725608999996,1174.6725608999996,22,4.068,0.5495088000006945,,,sub-045,45,80,700,bloc_loop.csv,2023-09-12_08h51.34.072,PainUncertainty,2022.2.5,143.1467081979757,
grave,forte,stimuli/330Hz,stimuli/forte,bloc_5,prob20hthp_12trials.xlsx,2,24,20,80,0,,,,,0,4,4,4,0,2,2,0,,,,,,,,4.5,1174.6725608999996,1179.1764031000002,1179.1763761099996,0.3052594000000681,1179.6208568000002,1179.6208568000002,,,m,1184.0235887,1184.0235887,73,3.067,1.2755326999995305,,,sub-045,45,80,700,bloc_loop.csv,2023-09-12_08h51.34.072,PainUncertainty,2022.2.5,143.1467081979757,
grave,forte,stimuli/330Hz,stimuli/forte,bloc_5,prob20hthp_12trials.xlsx,2,24,20,80,0,,,,,0,4,4,4,0,3,3,4,,,,,,,,4.7,1184.0235887,1188.7267611999996,1188.7267927099997,0.30436269999972865,1189.1703614999997,1189.1703614999997,,,m,1192.9282654999997,1192.9282654999997,71,2.552,1.1290783000004012,,,sub-045,45,80,700,bloc_loop.csv,2023-09-12_08h51.34.072,PainUncertainty,2022.2.5,143.1467081979757,
aigu,moderee,stimuli/660Hz,stimuli/moderee,bloc_5,prob20hthp_12trials.xlsx,2,24,20,80,0,,,,,0,4,4,4,0,4,4,7,,,,,,,,4.5,1192.9282654999997,1197.4286284,1197.4286295099996,0.3050553000002765,1197.8727232,1197.8727232,,,n,1199.7707603999997,1199.7707603999997,25,1.198,0.6192009000005783,,,sub-045,45,80,700,bloc_loop.csv,2023-09-12_08h51.34.072,PainUncertainty,2022.2.5,143.1467081979757,
aigu,forte,stimuli/660Hz,stimuli/forte,bloc_5,prob20hthp_12trials.xlsx,2,24,20,80,0,,,,,0,4,4,4,0,5,5,11,,,,,,,,3.3,1199.7707603999997,1203.0753878999994,1203.0755982099995,0.3046274000007543,1203.5193282999999,1203.5193282999999,,,m,1206.5175147,1206.5175147,71,2.275,0.6646742000002632,,,sub-045,45,80,700,bloc_loop.csv,2023-09-12_08h51.34.072,PainUncertainty,2022.2.5,143.1467081979757,
grave,forte,stimuli/330Hz,stimuli/forte,bloc_5,prob20hthp_12trials.xlsx,2,24,20,80,0,,,,,0,4,4,4,0,6,6,1,,,,,,,,3.2,1206.5175147,1209.7216209999997,1209.7223107099994,0.30469260000063514,1210.1658986000002,1210.1658986000002,,,m,1212.1585782000002,1212.1585782000002,70,1.356,0.5608327999998437,,,sub-045,45,80,700,bloc_loop.csv,2023-09-12_08h51.34.072,PainUncertainty,2022.2.5,143.1467081979757,
aigu,moderee,stimuli/660Hz,stimuli/moderee,bloc_5,prob20hthp_12trials.xlsx,2,24,20,80,0,,,,,0,4,4,4,0,7,7,10,,,,,,,,3.3,1212.1585782000002,1215.4584319999994,1215.45856701,0.3052122999997664,1215.9068073999997,1215.9068073999997,,,n,1219.8470792999997,1219.8470792999997,23,3.351,0.5319306000001234,,,sub-045,45,80,700,bloc_loop.csv,2023-09-12_08h51.34.072,PainUncertainty,2022.2.5,143.1467081979757,
aigu,moderee,stimuli/660Hz,stimuli/moderee,bloc_5,prob20hthp_12trials.xlsx,2,24,20,80,0,,,,,0,4,4,4,0,8,8,8,,,,,,,,3.2,1219.8470792999997,1223.0495487999997,1223.04969931,0.305008700000144,1223.4936992000003,1223.4936992000003,,,n,1227.0114498000003,1227.0114498000003,23,2.858,0.5815813000008347,,,sub-045,45,80,700,bloc_loop.csv,2023-09-12_08h51.34.072,PainUncertainty,2022.2.5,143.1467081979757,
grave,forte,stimuli/330Hz,stimuli/forte,bloc_5,prob20hthp_12trials.xlsx,2,24,20,80,0,,,,,0,4,4,4,0,9,9,2,,,,,,,,4.9,1227.0114498000003,1231.9119604999996,1231.9121605099995,0.30467510000016773,1232.3559236,1232.3559236,,,m,1234.5388388000001,1234.5388388000001,71,1.393,0.7274696000004042,,,sub-045,45,80,700,bloc_loop.csv,2023-09-12_08h51.34.072,PainUncertainty,2022.2.5,143.1467081979757,
grave,forte,stimuli/330Hz,stimuli/forte,bloc_5,prob20hthp_12trials.xlsx,2,24,20,80,0,,,,,0,4,4,4,0,10,10,3,,,,,,,,3.4,1234.5388388000001,1237.9401823999997,1237.94030101,0.3046664999992572,1238.3843822999997,1238.3843822999997,,,m,1242.8041655999996,1242.8041655999996,72,3.768,0.5796883000002708,,,sub-045,45,80,700,bloc_loop.csv,2023-09-12_08h51.34.072,PainUncertainty,2022.2.5,143.1467081979757,
aigu,moderee,stimuli/660Hz,stimuli/moderee,bloc_5,prob20hthp_12trials.xlsx,2,24,20,80,0,,,,,0,4,4,4,0,11,11,6,,,,,,,,4.7,1242.8041655999996,1247.5043906,1247.5041173099994,0.3004649000004065,1247.9498107999998,1247.9498107999998,,,n,1251.4214614000002,1251.4214614000002,25,2.753,0.644151100000272,,,sub-045,45,80,700,bloc_loop.csv,2023-09-12_08h51.34.072,PainUncertainty,2022.2.5,143.1467081979757,
grave,forte,stimuli/330Hz,stimuli/forte,bloc_5,prob20hthp_12trials.xlsx,2,24,20,80,0,,,,,0,4,4,4,1,0,12,2,,,,,,,,4.2,1251.4214614000002,1255.6232591999997,1255.6232791099997,0.3012889000001451,1256.0688363,1256.0688363,,,m,1259.7481073,1259.7481073,71,2.956,0.6667366000001493,,,sub-045,45,80,700,bloc_loop.csv,2023-09-12_08h51.34.072,PainUncertainty,2022.2.5,143.1467081979757,
grave,forte,stimuli/330Hz,stimuli/forte,bloc_5,prob20hthp_12trials.xlsx,2,24,20,80,0,,,,,0,4,4,4,1,1,13,1,,,,,,,,4,1259.7481073,1263.7489482,1263.74894721,0.3050388000001476,1264.1934798000002,1264.1934798000002,,,m,1269.0691670999995,1269.0691670999995,73,3.866,0.945920400000432,,,sub-045,45,80,700,bloc_loop.csv,2023-09-12_08h51.34.072,PainUncertainty,2022.2.5,143.1467081979757,
grave,forte,stimuli/330Hz,stimuli/forte,bloc_5,prob20hthp_12trials.xlsx,2,24,20,80,0,,,,,0,4,4,4,1,2,14,0,,,,,,,,3.8,1269.0691670999995,1272.8702563999996,1272.8684223099995,0.30528029999913997,1273.3158463,1273.3158463,,,m,1278.0688025,1278.0688025,70,3.518,1.1592709000005925,,,sub-045,45,80,700,bloc_loop.csv,2023-09-12_08h51.34.072,PainUncertainty,2022.2.5,143.1467081979757,
aigu,moderee,stimuli/660Hz,stimuli/moderee,bloc_5,prob20hthp_12trials.xlsx,2,24,20,80,0,,,,,0,4,4,4,1,3,15,9,,,,,,,,3.9,1278.0688025,1281.9731812,1281.97323981,0.305145000000266,1282.4174934000002,1282.4174934000002,,,n,1284.8302257999994,1284.8302257999994,22,1.733,0.6293267999999443,,,sub-045,45,80,700,bloc_loop.csv,2023-09-12_08h51.34.072,PainUncertainty,2022.2.5,143.1467081979757,
grave,moderee,stimuli/330Hz,stimuli/moderee,bloc_5,prob20hthp_12trials.xlsx,2,24,20,80,0,,,,,0,4,4,4,1,4,16,5,,,,,,,,4.7,1284.8302257999994,1289.5296405,1289.5296311099996,0.3051614000005429,1289.9741556999998,1289.9741556999998,,,n,1293.5109204,1293.5109204,21,2.747,0.7182747000006202,,,sub-045,45,80,700,bloc_loop.csv,2023-09-12_08h51.34.072,PainUncertainty,2022.2.5,143.1467081979757,
grave,forte,stimuli/330Hz,stimuli/forte,bloc_5,prob20hthp_12trials.xlsx,2,24,20,80,0,,,,,0,4,4,4,1,5,17,4,,,,,,,,4.8,1293.5109204,1298.3154118000002,1298.3154723100001,0.3050062000002072,1298.7595123,1298.7595123,,,m,1302.5432724000002,1302.5432724000002,71,2.261,1.4580094000002646,,,sub-045,45,80,700,bloc_loop.csv,2023-09-12_08h51.34.072,PainUncertainty,2022.2.5,143.1467081979757,
aigu,moderee,stimuli/660Hz,stimuli/moderee,bloc_5,prob20hthp_12trials.xlsx,2,24,20,80,0,,,,,0,4,4,4,1,6,18,7,,,,,,,,3.6,1302.5432724000002,1306.1433686,1306.14339891,0.30450590000054945,1306.5874382000002,1306.5874382000002,,,n,1309.7215251999996,1309.7215251999996,21,2.352,0.7126649000001635,,,sub-045,45,80,700,bloc_loop.csv,2023-09-12_08h51.34.072,PainUncertainty,2022.2.5,143.1467081979757,
grave,forte,stimuli/330Hz,stimuli/forte,bloc_5,prob20hthp_12trials.xlsx,2,24,20,80,0,,,,,0,4,4,4,1,7,19,3,,,,,,,,4.5,1309.7215251999996,1314.2269221999995,1314.2272001099996,0.3048789000004035,1314.6712105999995,1314.6712105999995,1317.1400893,1317.1400893,None,1319.6807214,1319.6807214,69,2.491,,,,sub-045,45,80,700,bloc_loop.csv,2023-09-12_08h51.34.072,PainUncertainty,2022.2.5,143.1467081979757,
aigu,moderee,stimuli/660Hz,stimuli/moderee,bloc_5,prob20hthp_12trials.xlsx,2,24,20,80,0,,,,,0,4,4,4,1,8,20,8,,,,,,,,4.6,1319.6807214,1324.2836799999995,1324.2837392099996,0.3051348999997572,1324.7278711999998,1324.7278711999998,,,n,1327.9454717999997,1327.9454717999997,23,2.56,0.5838896999994176,,,sub-045,45,80,700,bloc_loop.csv,2023-09-12_08h51.34.072,PainUncertainty,2022.2.5,143.1467081979757,
aigu,forte,stimuli/660Hz,stimuli/forte,bloc_5,prob20hthp_12trials.xlsx,2,24,20,80,0,,,,,0,4,4,4,1,9,21,11,,,,,,,,3.8,1327.9454717999997,1331.7499189999999,1331.7497839100001,0.3053410000002259,1332.1976797999996,1332.1976797999996,,,m,1335.7636942999998,1335.7636942999998,73,2.812,0.6834127000001899,,,sub-045,45,80,700,bloc_loop.csv,2023-09-12_08h51.34.072,PainUncertainty,2022.2.5,143.1467081979757,
aigu,moderee,stimuli/660Hz,stimuli/moderee,bloc_5,prob20hthp_12trials.xlsx,2,24,20,80,0,,,,,0,4,4,4,1,10,22,6,,,,,,,,3.5,1335.7636942999998,1339.2647646999994,1339.2646869099995,0.30503310000040074,1339.7088091999995,1339.7088091999995,,,n,1342.0916816,1342.0916816,23,1.789,0.5286598000002414,,,sub-045,45,80,700,bloc_loop.csv,2023-09-12_08h51.34.072,PainUncertainty,2022.2.5,143.1467081979757,
aigu,moderee,stimuli/660Hz,stimuli/moderee,bloc_5,prob20hthp_12trials.xlsx,2,24,20,80,0,,,,,0,4,4,4,1,11,23,10,,,,,,,,4.5,1342.0916816,1346.5921960999995,1346.5925907099995,0.3045078999994075,1347.0360615999998,1347.0360615999998,,,n,1349.7972940999998,1349.7972940999998,25,2.136,0.5598744999997507,,,sub-045,45,80,700,bloc_loop.csv,2023-09-12_08h51.34.072,PainUncertainty,2022.2.5,143.1467081979757,
grave,moderee,stimuli/330Hz,stimuli/moderee,bloc_6,prob50_50_4trials.xlsx,2,8,50,50,0,,,,,0,5,5,5,0,0,0,0,,,,,,,,4.7,1349.7972940999998,1354.5024622,1354.50251601,0.30508929999996326,1354.9466618999995,1354.9466618999995,,,n,1358.6549284000002,1358.6549284000002,23,3.081,0.5459006000000954,,,sub-045,45,80,700,bloc_loop.csv,2023-09-12_08h51.34.072,PainUncertainty,2022.2.5,143.1467081979757,
aigu,forte,stimuli/660Hz,stimuli/forte,bloc_6,prob50_50_4trials.xlsx,2,8,50,50,0,,,,,0,5,5,5,0,1,1,3,,,,,,,,4.8,1358.6549284000002,1363.4552902999994,1363.4553274099994,0.30480489999990823,1363.8990723999996,1363.8990723999996,,,m,1367.6714106,1367.6714106,71,2.281,1.4183860000002824,,,sub-045,45,80,700,bloc_loop.csv,2023-09-12_08h51.34.072,PainUncertainty,2022.2.5,143.1467081979757,
aigu,moderee,stimuli/660Hz,stimuli/moderee,bloc_6,prob50_50_4trials.xlsx,2,8,50,50,0,,,,,0,5,5,5,0,2,2,2,,,,,,,,4.5,1367.6714106,1372.1712225,1372.17121981,0.3055948000001081,1372.6182423999999,1372.6182423999999,,,n,1376.415129,1376.415129,21,2.844,0.8799296999995931,,,sub-045,45,80,700,bloc_loop.csv,2023-09-12_08h51.34.072,PainUncertainty,2022.2.5,143.1467081979757,
grave,forte,stimuli/330Hz,stimuli/forte,bloc_6,prob50_50_4trials.xlsx,2,8,50,50,0,,,,,0,5,5,5,0,3,3,1,,,,,,,,3,1376.415129,1379.4151818,1379.4151220099998,0.30538699999942764,1379.8596546999997,1379.8596546999997,,,m,1382.8744130999994,1382.8744130999994,73,2.324,0.6139462000001004,,,sub-045,45,80,700,bloc_loop.csv,2023-09-12_08h51.34.072,PainUncertainty,2022.2.5,143.1467081979757,
aigu,moderee,stimuli/660Hz,stimuli/moderee,bloc_6,prob50_50_4trials.xlsx,2,8,50,50,0,,,,,0,5,5,5,1,0,4,2,,,,,,,,3.5,1382.8744130999994,1386.3747833999996,1386.3748097100001,0.30001309999988734,1386.8191151,1386.8191151,,,n,1388.7868123999997,1388.7868123999997,22,1.323,0.5630933000002187,,,sub-045,45,80,700,bloc_loop.csv,2023-09-12_08h51.34.072,PainUncertainty,2022.2.5,143.1467081979757,
grave,forte,stimuli/330Hz,stimuli/forte,bloc_6,prob50_50_4trials.xlsx,2,8,50,50,0,,,,,0,5,5,5,1,1,5,1,,,,,,,,3.7,1388.7868123999997,1392.4865181999994,1392.4866701099995,0.3051070000001346,1392.9341951999995,1392.9341951999995,,,m,1397.2283273000003,1397.2283273000003,69,3.629,0.6091034999999465,,,sub-045,45,80,700,bloc_loop.csv,2023-09-12_08h51.34.072,PainUncertainty,2022.2.5,143.1467081979757,
aigu,forte,stimuli/660Hz,stimuli/forte,bloc_6,prob50_50_4trials.xlsx,2,8,50,50,0,,,,,0,5,5,5,1,2,6,3,,,,,,,,4.5,1397.2283273000003,1401.7302983999998,1401.73038081,0.3050809999995181,1402.1746359999997,1402.1746359999997,1404.6446557999998,1404.6446557999998,None,1408.0520287999998,1408.0520287999998,73,3.363,,,,sub-045,45,80,700,bloc_loop.csv,2023-09-12_08h51.34.072,PainUncertainty,2022.2.5,143.1467081979757,
grave,moderee,stimuli/330Hz,stimuli/moderee,bloc_6,prob50_50_4trials.xlsx,2,8,50,50,0,,,,,0,5,5,5,1,3,7,0,,,,,,,,3.7,1408.0520287999998,1411.7527699000002,1411.75298411,0.3044368000000759,1412.1967894999998,1412.1967894999998,,,n,1415.4045421,1415.4045421,22,2.427,0.6962141999993037,,,sub-045,45,80,700,bloc_loop.csv,2023-09-12_08h51.34.072,PainUncertainty,2022.2.5,143.1467081979757,
aigu,forte,stimuli/660Hz,stimuli/forte,bloc_7,prob80hthp_12trials.xlsx,2,24,80,20,1,,,,,0,6,6,6,0,0,0,10,,,,,,,,3.4,1415.4045421,1418.8088852,1418.8089154099994,0.30530780000026425,1419.2577572,1419.2577572,,,m,1426.2916907,1426.2916907,70,4.607,2.345973700000286,,,sub-045,45,80,700,bloc_loop.csv,2023-09-12_08h51.34.072,PainUncertainty,2022.2.5,143.1467081979757,
aigu,moderee,stimuli/660Hz,stimuli/moderee,bloc_7,prob80hthp_12trials.xlsx,2,24,80,20,1,,,,,0,6,6,6,0,1,1,11,,,,,,,,4.2,1426.2916907,1430.4911972999998,1430.49115141,0.30514020000009623,1430.9387884999996,1430.9387884999996,,,n,1434.5393585000002,1434.5393585000002,20,2.726,0.8046579000001657,,,sub-045,45,80,700,bloc_loop.csv,2023-09-12_08h51.34.072,PainUncertainty,2022.2.5,143.1467081979757,
aigu,forte,stimuli/660Hz,stimuli/forte,bloc_7,prob80hthp_12trials.xlsx,2,24,80,20,1,,,,,0,6,6,6,0,2,2,9,,,,,,,,4.2,1434.5393585000002,1438.7416899,1438.74159311,0.305260700000872,1439.1857887999995,1439.1857887999995,,,m,1448.6239073999996,1448.6239073999996,72,8.053,1.3208194999997431,,,sub-045,45,80,700,bloc_loop.csv,2023-09-12_08h51.34.072,PainUncertainty,2022.2.5,143.1467081979757,
aigu,forte,stimuli/660Hz,stimuli/forte,bloc_7,prob80hthp_12trials.xlsx,2,24,80,20,1,,,,,0,6,6,6,0,3,3,8,,,,,,,,4.3,1448.6239073999996,1452.9243036999997,1452.9242065100002,0.30038650000005873,1453.3683602,1453.3683602,,,m,1460.1654865,1460.1654865,74,6.13,0.5843273999998928,,,sub-045,45,80,700,bloc_loop.csv,2023-09-12_08h51.34.072,PainUncertainty,2022.2.5,143.1467081979757,
grave,moderee,stimuli/330Hz,stimuli/moderee,bloc_7,prob80hthp_12trials.xlsx,2,24,80,20,1,,,,,0,6,6,6,0,4,4,1,,,,,,,,3.8,1460.1654865,1463.9667364999996,1463.9669321099996,0.3052992000002632,1464.4150123999998,1464.4150123999998,,,n,1467.5346545000002,1467.5346545000002,25,2.421,0.6397245999996812,,,sub-045,45,80,700,bloc_loop.csv,2023-09-12_08h51.34.072,PainUncertainty,2022.2.5,143.1467081979757,
grave,moderee,stimuli/330Hz,stimuli/moderee,bloc_7,prob80hthp_12trials.xlsx,2,24,80,20,1,,,,,0,6,6,6,0,5,5,0,,,,,,,,3.1,1467.5346545000002,1470.6347248000002,1470.6347937099995,0.30030700000043,1471.0789546999995,1471.0789546999995,,,n,1473.0487458999996,1473.0487458999996,23,1.078,0.8208102999997209,,,sub-045,45,80,700,bloc_loop.csv,2023-09-12_08h51.34.072,PainUncertainty,2022.2.5,143.1467081979757,
aigu,forte,stimuli/660Hz,stimuli/forte,bloc_7,prob80hthp_12trials.xlsx,2,24,80,20,1,,,,,0,6,6,6,0,6,6,6,,,,,,,,3.3,1473.0487458999996,1476.3501845,1476.3502040099997,0.3050924999997733,1476.7942832999997,1476.7942832999997,,,m,1478.8993437999998,1478.8993437999998,71,1.482,0.5578937999998743,,,sub-045,45,80,700,bloc_loop.csv,2023-09-12_08h51.34.072,PainUncertainty,2022.2.5,143.1467081979757,
grave,forte,stimuli/330Hz,stimuli/forte,bloc_7,prob80hthp_12trials.xlsx,2,24,80,20,1,,,,,0,6,6,6,0,7,7,5,,,,,,,,4,1478.8993437999998,1482.9004343999995,1482.8999100099995,0.3071055000000342,1483.3513154000002,1483.3513154000002,,,m,1486.5585798000002,1486.5585798000002,70,2.518,0.6052583000000595,,,sub-045,45,80,700,bloc_loop.csv,2023-09-12_08h51.34.072,PainUncertainty,2022.2.5,143.1467081979757,
grave,moderee,stimuli/330Hz,stimuli/moderee,bloc_7,prob80hthp_12trials.xlsx,2,24,80,20,1,,,,,0,6,6,6,0,8,8,3,,,,,,,,3.3,1486.5585798000002,1489.8586846999997,1489.8586560099998,0.3054925999995248,1490.3031154,1490.3031154,,,n,1492.6318197,1492.6318197,25,1.407,0.8581520000007004,,,sub-045,45,80,700,bloc_loop.csv,2023-09-12_08h51.34.072,PainUncertainty,2022.2.5,143.1467081979757,
grave,moderee,stimuli/330Hz,stimuli/moderee,bloc_7,prob80hthp_12trials.xlsx,2,24,80,20,1,,,,,0,6,6,6,0,9,9,2,,,,,,,,3.5,1492.6318197,1496.1372524999997,1496.1372804099997,0.3053138000004765,1496.5839475000002,1496.5839475000002,,,n,1499.6998322,1499.6998322,24,2.462,0.5723860999996759,,,sub-045,45,80,700,bloc_loop.csv,2023-09-12_08h51.34.072,PainUncertainty,2022.2.5,143.1467081979757,
aigu,forte,stimuli/660Hz,stimuli/forte,bloc_7,prob80hthp_12trials.xlsx,2,24,80,20,1,,,,,0,6,6,6,0,10,10,7,,,,,,,,4.2,1499.6998322,1503.9020504999999,1503.9020447099997,0.3052151000001686,1504.3509091999995,1504.3509091999995,,,m,1506.2531718,1506.2531718,70,1.254,0.5660844000003635,,,sub-045,45,80,700,bloc_loop.csv,2023-09-12_08h51.34.072,PainUncertainty,2022.2.5,143.1467081979757,
grave,moderee,stimuli/330Hz,stimuli/moderee,bloc_7,prob80hthp_12trials.xlsx,2,24,80,20,1,,,,,0,6,6,6,0,11,11,4,,,,,,,,3.4,1506.2531718,1509.6526419000002,1509.6526904099997,0.30491949999941426,1510.0968135000003,1510.0968135000003,,,n,1512.1049424000003,1512.1049424000003,25,1.392,0.5290203000004112,,,sub-045,45,80,700,bloc_loop.csv,2023-09-12_08h51.34.072,PainUncertainty,2022.2.5,143.1467081979757,
grave,forte,stimuli/330Hz,stimuli/forte,bloc_7,prob80hthp_12trials.xlsx,2,24,80,20,1,,,,,0,6,6,6,1,0,12,5,,,,,,,,4.9,1512.1049424000003,1517.0082377999997,1517.0080074100001,0.30491410000013275,1517.4519971,1517.4519971,,,m,1520.2231913999995,1520.2231913999995,74,1.899,0.8151830000006157,,,sub-045,45,80,700,bloc_loop.csv,2023-09-12_08h51.34.072,PainUncertainty,2022.2.5,143.1467081979757,
aigu,forte,stimuli/660Hz,stimuli/forte,bloc_7,prob80hthp_12trials.xlsx,2,24,80,20,1,,,,,0,6,6,6,1,1,13,10,,,,,,,,3,1520.2231913999995,1523.2244061000001,1523.2255156099995,0.30356140000003506,1523.6680835999996,1523.6680835999996,,,m,1528.0080288999998,1528.0080288999998,71,2.921,1.3425801000003048,,,sub-045,45,80,700,bloc_loop.csv,2023-09-12_08h51.34.072,PainUncertainty,2022.2.5,143.1467081979757,
aigu,moderee,stimuli/660Hz,stimuli/moderee,bloc_7,prob80hthp_12trials.xlsx,2,24,80,20,1,,,,,0,6,6,6,1,2,14,11,,,,,,,,5,1528.0080288999998,1533.0097584999994,1533.0097521100001,0.305295400000432,1533.4538830000001,1533.4538830000001,,,n,1535.5695649,1535.5695649,23,1.433,0.6194652000003771,,,sub-045,45,80,700,bloc_loop.csv,2023-09-12_08h51.34.072,PainUncertainty,2022.2.5,143.1467081979757,
grave,moderee,stimuli/330Hz,stimuli/moderee,bloc_7,prob80hthp_12trials.xlsx,2,24,80,20,1,,,,,0,6,6,6,1,3,15,3,,,,,,,,4.6,1535.5695649,1540.1702225,1540.1703254099998,0.3050726000001305,1540.6188700000002,1540.6188700000002,,,n,1543.9314875999999,1543.9314875999999,25,1.712,1.5236024999994697,,,sub-045,45,80,700,bloc_loop.csv,2023-09-12_08h51.34.072,PainUncertainty,2022.2.5,143.1467081979757,
aigu,forte,stimuli/660Hz,stimuli/forte,bloc_7,prob80hthp_12trials.xlsx,2,24,80,20,1,,,,,0,6,6,6,1,4,16,6,,,,,,,,4.9,1543.9314875999999,1548.831123,1548.8310794099993,0.30510969999977533,1549.2755527999998,1549.2755527999998,,,m,1552.6760352000001,1552.6760352000001,73,1.83,1.507962900000166,,,sub-045,45,80,700,bloc_loop.csv,2023-09-12_08h51.34.072,PainUncertainty,2022.2.5,143.1467081979757,
aigu,forte,stimuli/660Hz,stimuli/forte,bloc_7,prob80hthp_12trials.xlsx,2,24,80,20,1,,,,,0,6,6,6,1,5,17,9,,,,,,,,4,1552.6760352000001,1556.6793013999995,1556.6794406099993,0.3051973999999973,1557.1266722999999,1557.1266722999999,,,m,1563.0336336,1563.0336336,72,4.825,1.0072940000000017,,,sub-045,45,80,700,bloc_loop.csv,2023-09-12_08h51.34.072,PainUncertainty,2022.2.5,143.1467081979757,
grave,moderee,stimuli/330Hz,stimuli/moderee,bloc_7,prob80hthp_12trials.xlsx,2,24,80,20,1,,,,,0,6,6,6,1,6,18,2,,,,,,,,4.4,1563.0336336,1567.4376501999996,1567.43784801,0.30516290000014124,1567.8859698999995,1567.8859698999995,,,n,1570.0998509,1570.0998509,22,1.566,0.5832069999996747,,,sub-045,45,80,700,bloc_loop.csv,2023-09-12_08h51.34.072,PainUncertainty,2022.2.5,143.1467081979757,
grave,moderee,stimuli/330Hz,stimuli/moderee,bloc_7,prob80hthp_12trials.xlsx,2,24,80,20,1,,,,,0,6,6,6,1,7,19,0,,,,,,,,4.5,1570.0998509,1574.6049439999997,1574.6047615100001,0.3008090000002994,1575.0496813,1575.0496813,,,n,1577.2626507999994,1577.2626507999994,21,1.532,0.5977585000000545,,,sub-045,45,80,700,bloc_loop.csv,2023-09-12_08h51.34.072,PainUncertainty,2022.2.5,143.1467081979757,
aigu,forte,stimuli/660Hz,stimuli/forte,bloc_7,prob80hthp_12trials.xlsx,2,24,80,20,1,,,,,0,6,6,6,1,8,20,8,,,,,,,,3.3,1577.2626507999994,1580.5639049000001,1580.5638428099996,0.30521669999961887,1581.0079429999996,1581.0079429999996,,,m,1584.3439841,1584.3439841,70,2.587,0.6719235999999,,,sub-045,45,80,700,bloc_loop.csv,2023-09-12_08h51.34.072,PainUncertainty,2022.2.5,143.1467081979757,
grave,moderee,stimuli/330Hz,stimuli/moderee,bloc_7,prob80hthp_12trials.xlsx,2,24,80,20,1,,,,,0,6,6,6,1,9,21,1,,,,,,,,4.7,1584.3439841,1589.0439986000001,1589.04392221,0.3054579999998168,1589.4881454999995,1589.4881454999995,,,n,1592.8629519999995,1592.8629519999995,24,2.782,0.5418877000001885,,,sub-045,45,80,700,bloc_loop.csv,2023-09-12_08h51.34.072,PainUncertainty,2022.2.5,143.1467081979757,
grave,moderee,stimuli/330Hz,stimuli/moderee,bloc_7,prob80hthp_12trials.xlsx,2,24,80,20,1,,,,,0,6,6,6,1,10,22,4,,,,,,,,4.7,1592.8629519999995,1597.5661210999997,1597.56618751,0.30467199999930017,1598.0100616999998,1598.0100616999998,,,n,1601.0320976000003,1601.0320976000003,24,2.302,0.6411440000001676,,,sub-045,45,80,700,bloc_loop.csv,2023-09-12_08h51.34.072,PainUncertainty,2022.2.5,143.1467081979757,
aigu,forte,stimuli/660Hz,stimuli/forte,bloc_7,prob80hthp_12trials.xlsx,2,24,80,20,1,,,,,0,6,6,6,1,11,23,7,,,,,,,,4.4,1601.0320976000003,1605.4348074999998,1605.4349070100002,0.30476550000003044,1605.8862241999996,1605.8862241999996,,,m,1611.9095117999996,1611.9095117999996,71,3.359,0.6371003000003839,,,sub-045,45,80,700,bloc_loop.csv,2023-09-12_08h51.34.072,PainUncertainty,2022.2.5,143.1467081979757,
,,,,bloc_7,prob80hthp_12trials.xlsx,2,24,80,20,1,,,,,0,6,6,6,,,,,0,0,0,0,,,,,,,,,,,,,,,,,,,1611.9095117999996,1630.4307125999994,sub-045,45,80,700,bloc_loop.csv,2023-09-12_08h51.34.072,PainUncertainty,2022.2.5,143.1467081979757,
grave,moderee,stimuli/330Hz,stimuli/moderee,bloc_8,prob50_50_4trials.xlsx,3,12,50,50,0,,,,,0,7,7,7,0,0,0,0,,,,,,,,4.3,1631.9200124,1636.2234031999997,1636.22362441,0.30463479999980336,1636.6672517999996,1636.6672517999996,,,n,1640.2799043999994,1640.2799043999994,24,2.934,0.5969565999994302,,,sub-045,45,80,700,bloc_loop.csv,2023-09-12_08h51.34.072,PainUncertainty,2022.2.5,143.1467081979757,
aigu,forte,stimuli/660Hz,stimuli/forte,bloc_8,prob50_50_4trials.xlsx,3,12,50,50,0,,,,,0,7,7,7,0,1,1,3,,,,,,,,3.8,1640.2799043999994,1644.0851031000002,1644.0851732099995,0.30513780000001134,1644.5294244999995,1644.5294244999995,,,m,1648.4962286,1648.4962286,71,2.274,1.6315511000002516,,,sub-045,45,80,700,bloc_loop.csv,2023-09-12_08h51.34.072,PainUncertainty,2022.2.5,143.1467081979757,
grave,forte,stimuli/330Hz,stimuli/forte,bloc_8,prob50_50_4trials.xlsx,3,12,50,50,0,,,,,0,7,7,7,0,2,2,1,,,,,,,,3,1648.4962286,1651.4956162999997,1651.4955920099997,0.3055110999994213,1651.9400103999997,1651.9400103999997,,,m,1655.3850162999997,1655.3850162999997,72,1.425,1.952255199999854,,,sub-045,45,80,700,bloc_loop.csv,2023-09-12_08h51.34.072,PainUncertainty,2022.2.5,143.1467081979757,
aigu,moderee,stimuli/660Hz,stimuli/moderee,bloc_8,prob50_50_4trials.xlsx,3,12,50,50,0,,,,,0,7,7,7,0,3,3,2,,,,,,,,3.2,1655.3850162999997,1658.5869031000002,1658.5869012099997,0.30512699999962933,1659.0313674,1659.0313674,,,n,1662.1481710999997,1662.1481710999997,24,2.447,0.6035190000002331,,,sub-045,45,80,700,bloc_loop.csv,2023-09-12_08h51.34.072,PainUncertainty,2022.2.5,143.1467081979757,
grave,moderee,stimuli/330Hz,stimuli/moderee,bloc_8,prob50_50_4trials.xlsx,3,12,50,50,0,,,,,0,7,7,7,1,0,4,0,,,,,,,,5,1662.1481710999997,1667.1504939999995,1667.1505895099995,0.3069550000000163,1667.6023477999997,1667.6023477999997,,,n,1670.9576532,1670.9576532,25,2.587,0.6849879999999757,,,sub-045,45,80,700,bloc_loop.csv,2023-09-12_08h51.34.072,PainUncertainty,2022.2.5,143.1467081979757,
aigu,forte,stimuli/660Hz,stimuli/forte,bloc_8,prob50_50_4trials.xlsx,3,12,50,50,0,,,,,0,7,7,7,1,1,5,3,,,,,,,,4.7,1670.9576532,1675.6582192999995,1675.6583436099995,0.3050827000006393,1676.1024902,1676.1024902,,,m,1679.0440583999998,1679.0440583999998,71,2.233,0.6375742999998693,,,sub-045,45,80,700,bloc_loop.csv,2023-09-12_08h51.34.072,PainUncertainty,2022.2.5,143.1467081979757,
aigu,moderee,stimuli/660Hz,stimuli/moderee,bloc_8,prob50_50_4trials.xlsx,3,12,50,50,0,,,,,0,7,7,7,1,2,6,2,,,,,,,,3.4,1679.0440583999998,1682.4441373999998,1682.4442552099995,0.3008726999996725,1682.8882703,1682.8882703,,,n,1685.6333828999996,1685.6333828999996,25,2.065,0.5950869000007515,,,sub-045,45,80,700,bloc_loop.csv,2023-09-12_08h51.34.072,PainUncertainty,2022.2.5,143.1467081979757,
grave,forte,stimuli/330Hz,stimuli/forte,bloc_8,prob50_50_4trials.xlsx,3,12,50,50,0,,,,,0,7,7,7,1,3,7,1,,,,,,,,4.8,1685.6333828999996,1690.4377066999996,1690.4377505099997,0.3053634999996575,1690.8821481999994,1690.8821481999994,,,m,1695.4296196999994,1695.4296196999994,77,3.644,0.8415144999999029,,,sub-045,45,80,700,bloc_loop.csv,2023-09-12_08h51.34.072,PainUncertainty,2022.2.5,143.1467081979757,
grave,forte,stimuli/330Hz,stimuli/forte,bloc_8,prob50_50_4trials.xlsx,3,12,50,50,0,,,,,0,7,7,7,2,0,8,1,,,,,,,,3.3,1695.4296196999994,1698.7303633000001,1698.73039061,0.3051798999995299,1699.1748515,1699.1748515,,,m,1702.1932377000003,1702.1932377000003,73,2.281,0.6597530999997616,,,sub-045,45,80,700,bloc_loop.csv,2023-09-12_08h51.34.072,PainUncertainty,2022.2.5,143.1467081979757,
grave,moderee,stimuli/330Hz,stimuli/moderee,bloc_8,prob50_50_4trials.xlsx,3,12,50,50,0,,,,,0,7,7,7,2,1,9,0,,,,,,,,4.5,1702.1932377000003,1706.6966378999996,1706.6966970099998,0.30511659999956464,1707.1412614,1707.1412614,,,n,1710.8733519999996,1710.8733519999996,17,3.025,0.647745300000679,,,sub-045,45,80,700,bloc_loop.csv,2023-09-12_08h51.34.072,PainUncertainty,2022.2.5,143.1467081979757,
aigu,moderee,stimuli/660Hz,stimuli/moderee,bloc_8,prob50_50_4trials.xlsx,3,12,50,50,0,,,,,0,7,7,7,2,2,10,2,,,,,,,,4,1710.8733519999996,1714.8785705,1714.8785095099997,0.3054736000003686,1715.3267264999995,1715.3267264999995,,,n,1719.8086483999996,1719.8086483999996,16,3.865,0.5459927000001699,,,sub-045,45,80,700,bloc_loop.csv,2023-09-12_08h51.34.072,PainUncertainty,2022.2.5,143.1467081979757,
aigu,forte,stimuli/660Hz,stimuli/forte,bloc_8,prob50_50_4trials.xlsx,3,12,50,50,0,,,,,0,7,7,7,2,3,11,3,,,,,,,,4.3,1719.8086483999996,1724.1084165000002,1724.10843661,0.30503070000031585,1724.5529646999994,1724.5529646999994,,,m,1728.3464788,1728.3464788,78,1.948,1.77097380000032,,,sub-045,45,80,700,bloc_loop.csv,2023-09-12_08h51.34.072,PainUncertainty,2022.2.5,143.1467081979757,
aigu,moderee,stimuli/660Hz,stimuli/moderee,bloc_9,prob20hthp_12trials.xlsx,3,36,80,20,0,,,,,0,8,8,8,0,0,0,10,,,,,,,,3,1728.3464788,1731.3452938,1731.3455123099998,0.30494699999962904,1731.7894666000002,1731.7894666000002,,,n,1735.3316361999996,1735.3316361999996,23,2.852,0.6218503999998575,,,sub-045,45,80,700,bloc_loop.csv,2023-09-12_08h51.34.072,PainUncertainty,2022.2.5,143.1467081979757,
grave,forte,stimuli/330Hz,stimuli/forte,bloc_9,prob20hthp_12trials.xlsx,3,36,80,20,0,,,,,0,8,8,8,0,1,1,1,,,,,,,,3.1,1735.3316361999996,1738.4368951999995,1738.43705921,0.30491259999962494,1738.8831707,1738.8831707,,,m,1741.2469703999996,1741.2469703999996,70,1.477,0.7968918000005942,,,sub-045,45,80,700,bloc_loop.csv,2023-09-12_08h51.34.072,PainUncertainty,2022.2.5,143.1467081979757,
aigu,moderee,stimuli/660Hz,stimuli/moderee,bloc_9,prob20hthp_12trials.xlsx,3,36,80,20,0,,,,,0,8,8,8,0,2,2,7,,,,,,,,4.6,1741.2469703999996,1745.8473257999995,1745.8473768099998,0.3051838000001226,1746.2946909000002,1746.2946909000002,,,n,1749.3359025999998,1749.3359025999998,23,2.381,0.5818612000002759,,,sub-045,45,80,700,bloc_loop.csv,2023-09-12_08h51.34.072,PainUncertainty,2022.2.5,143.1467081979757,
aigu,forte,stimuli/660Hz,stimuli/forte,bloc_9,prob20hthp_12trials.xlsx,3,36,80,20,0,,,,,0,8,8,8,0,3,3,11,,,,,,,,4.1,1749.3359025999998,1753.4381826,1753.4382838099996,0.30705530000068393,1753.8896984000003,1753.8896984000003,,,None,1760.3335158999998,1760.3335158999998,72,3.927,,,,sub-045,45,80,700,bloc_loop.csv,2023-09-12_08h51.34.072,PainUncertainty,2022.2.5,143.1467081979757,
aigu,moderee,stimuli/660Hz,stimuli/moderee,bloc_9,prob20hthp_12trials.xlsx,3,36,80,20,0,,,,,0,8,8,8,0,4,4,6,,,,,,,,4.4,1760.3335158999998,1764.7382591999994,1764.7382894099997,0.3051194999998188,1765.1826579999997,1765.1826579999997,,,n,1768.4374841,1768.4374841,24,2.657,0.5407051000001957,,,sub-045,45,80,700,bloc_loop.csv,2023-09-12_08h51.34.072,PainUncertainty,2022.2.5,143.1467081979757,
aigu,moderee,stimuli/660Hz,stimuli/moderee,bloc_9,prob20hthp_12trials.xlsx,3,36,80,20,0,,,,,0,8,8,8,0,5,5,9,,,,,,,,3.7,1768.4374841,1772.1417730000003,1772.1418560099996,0.3065844000002471,1772.5936530999998,1772.5936530999998,,,n,1777.4084443000002,1777.4084443000002,22,4.199,0.5299629999999524,,,sub-045,45,80,700,bloc_loop.csv,2023-09-12_08h51.34.072,PainUncertainty,2022.2.5,143.1467081979757,
grave,forte,stimuli/330Hz,stimuli/forte,bloc_9,prob20hthp_12trials.xlsx,3,36,80,20,0,,,,,0,8,8,8,0,6,6,0,,,,,,,,4.1,1777.4084443000002,1781.5114377,1781.51155771,0.3047179999994114,1781.9550658999997,1781.9550658999997,,,m,1786.9167246999996,1786.9167246999996,75,2.935,1.9680963000000702,,,sub-045,45,80,700,bloc_loop.csv,2023-09-12_08h51.34.072,PainUncertainty,2022.2.5,143.1467081979757,
grave,forte,stimuli/330Hz,stimuli/forte,bloc_9,prob20hthp_12trials.xlsx,3,36,80,20,0,,,,,0,8,8,8,0,7,7,4,,,,,,,,3.2,1786.9167246999996,1790.1163171999997,1790.1161371100002,0.30501749999984895,1790.5603553,1790.5603553,,,m,1797.9790013000002,1797.9790013000002,70,6.702,0.6578374000000622,,,sub-045,45,80,700,bloc_loop.csv,2023-09-12_08h51.34.072,PainUncertainty,2022.2.5,143.1467081979757,
grave,forte,stimuli/330Hz,stimuli/forte,bloc_9,prob20hthp_12trials.xlsx,3,36,80,20,0,,,,,0,8,8,8,0,8,8,2,,,,,,,,4,1797.9790013000002,1801.9787568000002,1801.9787698099994,0.30510839999988093,1802.4229264999994,1802.4229264999994,,,m,1806.5492061999994,1806.5492061999994,69,1.997,2.054683600000317,,,sub-045,45,80,700,bloc_loop.csv,2023-09-12_08h51.34.072,PainUncertainty,2022.2.5,143.1467081979757,
grave,moderee,stimuli/330Hz,stimuli/moderee,bloc_9,prob20hthp_12trials.xlsx,3,36,80,20,0,,,,,0,8,8,8,0,9,9,5,,,,,,,,3.5,1806.5492061999994,1810.0494307999998,1810.0493686099994,0.304779499999313,1810.4931367,1810.4931367,,,n,1814.3976725000002,1814.3976725000002,23,3.137,0.6913879000003362,,,sub-045,45,80,700,bloc_loop.csv,2023-09-12_08h51.34.072,PainUncertainty,2022.2.5,143.1467081979757,
grave,forte,stimuli/330Hz,stimuli/forte,bloc_9,prob20hthp_12trials.xlsx,3,36,80,20,0,,,,,0,8,8,8,0,10,10,3,,,,,,,,4.5,1814.3976725000002,1818.8977243,1818.89789891,0.3051777000000584,1819.3466360000002,1819.3466360000002,,,None,1823.4631967999994,1823.4631967999994,72,1.602,,,,sub-045,45,80,700,bloc_loop.csv,2023-09-12_08h51.34.072,PainUncertainty,2022.2.5,143.1467081979757,
aigu,moderee,stimuli/660Hz,stimuli/moderee,bloc_9,prob20hthp_12trials.xlsx,3,36,80,20,0,,,,,0,8,8,8,0,11,11,8,,,,,,,,3.7,1823.4631967999994,1827.1621493000002,1827.1622184100002,0.2993830999994316,1827.6046773999997,1827.6046773999997,,,n,1831.1657145,1831.1657145,24,2.989,0.5215064000003622,,,sub-045,45,80,700,bloc_loop.csv,2023-09-12_08h51.34.072,PainUncertainty,2022.2.5,143.1467081979757,
aigu,moderee,stimuli/660Hz,stimuli/moderee,bloc_9,prob20hthp_12trials.xlsx,3,36,80,20,0,,,,,0,8,8,8,1,0,12,9,,,,,,,,4.7,1831.1657145,1835.8648323999996,1835.8648745099995,0.3048259999995935,1836.3087417999996,1836.3087417999996,,,n,1840.6934721999996,1840.6934721999996,22,3.745,0.5833480999999665,,,sub-045,45,80,700,bloc_loop.csv,2023-09-12_08h51.34.072,PainUncertainty,2022.2.5,143.1467081979757,
aigu,moderee,stimuli/660Hz,stimuli/moderee,bloc_9,prob20hthp_12trials.xlsx,3,36,80,20,0,,,,,0,8,8,8,1,1,13,8,,,,,,,,3.6,1840.6934721999996,1844.2961262999997,1844.2960651099997,0.3053234999997585,1844.7402905,1844.7402905,,,n,1847.1054629999999,1847.1054629999999,25,1.774,0.5086736000002929,,,sub-045,45,80,700,bloc_loop.csv,2023-09-12_08h51.34.072,PainUncertainty,2022.2.5,143.1467081979757,
grave,forte,stimuli/330Hz,stimuli/forte,bloc_9,prob20hthp_12trials.xlsx,3,36,80,20,0,,,,,0,8,8,8,1,2,14,4,,,,,,,,3.4,1847.1054629999999,1850.505118,1850.5052274099994,0.30514060000041354,1850.9536243000002,1850.9536243000002,,,m,1854.2666603999996,1854.2666603999996,70,1.365,1.8738547000002654,,,sub-045,45,80,700,bloc_loop.csv,2023-09-12_08h51.34.072,PainUncertainty,2022.2.5,143.1467081979757,
aigu,moderee,stimuli/660Hz,stimuli/moderee,bloc_9,prob20hthp_12trials.xlsx,3,36,80,20,0,,,,,0,8,8,8,1,3,15,6,,,,,,,,3.8,1854.2666603999996,1858.0685667999996,1858.06856861,0.30497449999984383,1858.5127111000002,1858.5127111000002,,,n,1861.8452872999997,1861.8452872999997,22,2.623,0.6499977000003128,,,sub-045,45,80,700,bloc_loop.csv,2023-09-12_08h51.34.072,PainUncertainty,2022.2.5,143.1467081979757,
grave,moderee,stimuli/330Hz,stimuli/moderee,bloc_9,prob20hthp_12trials.xlsx,3,36,80,20,0,,,,,0,8,8,8,1,4,16,5,,,,,,,,3.7,1861.8452872999997,1865.5486621999999,1865.5486694099995,0.3050663000003624,1865.9929532999995,1865.9929532999995,,,n,1869.8689662999996,1869.8689662999996,24,3.164,0.6433397000000696,,,sub-045,45,80,700,bloc_loop.csv,2023-09-12_08h51.34.072,PainUncertainty,2022.2.5,143.1467081979757,
grave,forte,stimuli/330Hz,stimuli/forte,bloc_9,prob20hthp_12trials.xlsx,3,36,80,20,0,,,,,0,8,8,8,1,5,17,0,,,,,,,,5,1869.8689662999996,1874.8691958,1874.8692493100002,0.3048392000000604,1875.3136465999996,1875.3136465999996,,,m,1879.1260022999995,1879.1260022999995,71,3.178,0.5645318000006228,,,sub-045,45,80,700,bloc_loop.csv,2023-09-12_08h51.34.072,PainUncertainty,2022.2.5,143.1467081979757,
aigu,moderee,stimuli/660Hz,stimuli/moderee,bloc_9,prob20hthp_12trials.xlsx,3,36,80,20,0,,,,,0,8,8,8,1,6,18,7,,,,,,,,3.4,1879.1260022999995,1882.5297593999994,1882.5297662099997,0.30556129999968107,1882.9777377999999,1882.9777377999999,,,n,1885.6635951999997,1885.6635951999997,22,2.04,0.5798549000001003,,,sub-045,45,80,700,bloc_loop.csv,2023-09-12_08h51.34.072,PainUncertainty,2022.2.5,143.1467081979757,
grave,forte,stimuli/330Hz,stimuli/forte,bloc_9,prob20hthp_12trials.xlsx,3,36,80,20,0,,,,,0,8,8,8,1,7,19,2,,,,,,,,4.9,1885.6635951999997,1890.5655355,1890.5655458099995,0.3050063999999111,1891.0097845999999,1891.0097845999999,,,m,1895.5419780000002,1895.5419780000002,68,2.754,1.720729499999834,,,sub-045,45,80,700,bloc_loop.csv,2023-09-12_08h51.34.072,PainUncertainty,2022.2.5,143.1467081979757,
aigu,forte,stimuli/660Hz,stimuli/forte,bloc_9,prob20hthp_12trials.xlsx,3,36,80,20,0,,,,,0,8,8,8,1,8,20,11,,,,,,,,4,1895.5419780000002,1899.5463260999995,1899.54653251,0.3045650999993086,1899.9923764999994,1899.9923764999994,,,m,1907.1971039999999,1907.1971039999999,70,6.415,0.711137599999347,,,sub-045,45,80,700,bloc_loop.csv,2023-09-12_08h51.34.072,PainUncertainty,2022.2.5,143.1467081979757,
aigu,moderee,stimuli/660Hz,stimuli/moderee,bloc_9,prob20hthp_12trials.xlsx,3,36,80,20,0,,,,,0,8,8,8,1,9,21,10,,,,,,,,3.3,1907.1971039999999,1910.4984740999998,1910.49851721,0.3048419000006106,1910.9430345,1910.9430345,,,n,1914.0061831000003,1914.0061831000003,25,2.414,0.5706551000002946,,,sub-045,45,80,700,bloc_loop.csv,2023-09-12_08h51.34.072,PainUncertainty,2022.2.5,143.1467081979757,
grave,forte,stimuli/330Hz,stimuli/forte,bloc_9,prob20hthp_12trials.xlsx,3,36,80,20,0,,,,,0,8,8,8,1,10,22,1,,,,,,,,3.1,1914.0061831000003,1917.1102461,1917.1101920099995,0.3051524000002246,1917.5543154999996,1917.5543154999996,,,m,1919.5846155,1919.5846155,70,1.51,0.46698580000065704,,,sub-045,45,80,700,bloc_loop.csv,2023-09-12_08h51.34.072,PainUncertainty,2022.2.5,143.1467081979757,
grave,forte,stimuli/330Hz,stimuli/forte,bloc_9,prob20hthp_12trials.xlsx,3,36,80,20,0,,,,,0,8,8,8,1,11,23,3,,,,,,,,3.2,1919.5846155,1922.7846504,1922.7846040099998,0.30517800000052375,1923.2286862,1923.2286862,,,m,1925.3553273999996,1925.3553273999996,70,1.49,0.5751662000002398,,,sub-045,45,80,700,bloc_loop.csv,2023-09-12_08h51.34.072,PainUncertainty,2022.2.5,143.1467081979757,
grave,forte,stimuli/330Hz,stimuli/forte,bloc_9,prob20hthp_12trials.xlsx,3,36,80,20,0,,,,,0,8,8,8,2,0,24,0,,,,,,,,3.8,1925.3553273999996,1929.1602015999997,1929.1603252099999,0.30516350000016246,1929.6087022000002,1929.6087022000002,,,m,1933.2701356999996,1933.2701356999996,72,2.99,0.5923702999998568,,,sub-045,45,80,700,bloc_loop.csv,2023-09-12_08h51.34.072,PainUncertainty,2022.2.5,143.1467081979757,
aigu,moderee,stimuli/660Hz,stimuli/moderee,bloc_9,prob20hthp_12trials.xlsx,3,36,80,20,0,,,,,0,8,8,8,2,1,25,10,,,,,,,,4.1,1933.2701356999996,1937.3696375,1937.36949821,0.3051335999998628,1937.8158287999995,1937.8158287999995,,,n,1940.7525547999994,1940.7525547999994,22,2.35,0.5120312999997623,,,sub-045,45,80,700,bloc_loop.csv,2023-09-12_08h51.34.072,PainUncertainty,2022.2.5,143.1467081979757,
grave,forte,stimuli/330Hz,stimuli/forte,bloc_9,prob20hthp_12trials.xlsx,3,36,80,20,0,,,,,0,8,8,8,2,2,26,3,,,,,,,,3.4,1940.7525547999994,1944.1551505999996,1944.1550925099996,0.3052453999998761,1944.5995015999997,1944.5995015999997,,,m,1950.9657387999996,1950.9657387999996,69,5.642,0.6605706999998802,,,sub-045,45,80,700,bloc_loop.csv,2023-09-12_08h51.34.072,PainUncertainty,2022.2.5,143.1467081979757,
grave,forte,stimuli/330Hz,stimuli/forte,bloc_9,prob20hthp_12trials.xlsx,3,36,80,20,0,,,,,0,8,8,8,2,3,27,4,,,,,,,,4.8,1950.9657387999996,1955.7679816999998,1955.7678429100001,0.305216400000063,1956.215983,1956.215983,,,m,1958.9908445,1958.9908445,71,2.123,0.5966134000000238,,,sub-045,45,80,700,bloc_loop.csv,2023-09-12_08h51.34.072,PainUncertainty,2022.2.5,143.1467081979757,
grave,forte,stimuli/330Hz,stimuli/forte,bloc_9,prob20hthp_12trials.xlsx,3,36,80,20,0,,,,,0,8,8,8,2,4,28,1,,,,,,,,4,1958.9908445,1962.9905510999997,1962.9907192099995,0.30476249999992433,1963.4347226999998,1963.4347226999998,,,m,1965.5452163999998,1965.5452163999998,71,1.504,0.5408592000003409,,,sub-045,45,80,700,bloc_loop.csv,2023-09-12_08h51.34.072,PainUncertainty,2022.2.5,143.1467081979757,
aigu,moderee,stimuli/660Hz,stimuli/moderee,bloc_9,prob20hthp_12trials.xlsx,3,36,80,20,0,,,,,0,8,8,8,2,5,29,7,,,,,,,,3.4,1965.5452163999998,1968.9496053000003,1968.9496558099995,0.30497550000018236,1969.3936855000002,1969.3936855000002,,,n,1971.7011464999996,1971.7011464999996,23,1.831,0.4091719000007288,,,sub-045,45,80,700,bloc_loop.csv,2023-09-12_08h51.34.072,PainUncertainty,2022.2.5,143.1467081979757,
grave,forte,stimuli/330Hz,stimuli/forte,bloc_9,prob20hthp_12trials.xlsx,3,36,80,20,0,,,,,0,8,8,8,2,6,30,2,,,,,,,,4.8,1971.7011464999996,1976.5060395,1976.5060591099996,0.3050502999994933,1976.9540058000002,1976.9540058000002,,,m,1980.2673260000001,1980.2673260000001,68,2.727,0.5361245000003692,,,sub-045,45,80,700,bloc_loop.csv,2023-09-12_08h51.34.072,PainUncertainty,2022.2.5,143.1467081979757,
aigu,forte,stimuli/660Hz,stimuli/forte,bloc_9,prob20hthp_12trials.xlsx,3,36,80,20,0,,,,,0,8,8,8,2,7,31,11,,,,,,,,4.1,1980.2673260000001,1984.3679850999997,1984.3680837099996,0.30521760000010545,1984.8124026999994,1984.8124026999994,,,n,1989.8125579999996,1989.8125579999996,37,4.288,0.6458511999999246,,,sub-045,45,80,700,bloc_loop.csv,2023-09-12_08h51.34.072,PainUncertainty,2022.2.5,143.1467081979757,
aigu,moderee,stimuli/660Hz,stimuli/moderee,bloc_9,prob20hthp_12trials.xlsx,3,36,80,20,0,,,,,0,8,8,8,2,8,32,9,,,,,,,,4.6,1989.8125579999996,1994.4183662999994,1994.4182247100002,0.30536539999957313,1994.8657154000002,1994.8657154000002,,,n,1997.6460181000002,1997.6460181000002,18,2.126,0.5875495999998748,,,sub-045,45,80,700,bloc_loop.csv,2023-09-12_08h51.34.072,PainUncertainty,2022.2.5,143.1467081979757,
aigu,moderee,stimuli/660Hz,stimuli/moderee,bloc_9,prob20hthp_12trials.xlsx,3,36,80,20,0,,,,,0,8,8,8,2,9,33,6,,,,,,,,3.9,1997.6460181000002,2001.5506300999996,2001.5506446099994,0.2997133999997459,2001.9893972,2001.9893972,,,n,2004.7584941999994,2004.7584941999994,18,2.108,0.5978043000004618,,,sub-045,45,80,700,bloc_loop.csv,2023-09-12_08h51.34.072,PainUncertainty,2022.2.5,143.1467081979757,
grave,moderee,stimuli/330Hz,stimuli/moderee,bloc_9,prob20hthp_12trials.xlsx,3,36,80,20,0,,,,,0,8,8,8,2,10,34,5,,,,,,,,4.8,2004.7584941999994,2009.5586384999997,2009.5585859099997,0.3049932000003537,2010.0027490000002,2010.0027490000002,,,n,2013.4699185999998,2013.4699185999998,22,2.371,1.038394199999857,,,sub-045,45,80,700,bloc_loop.csv,2023-09-12_08h51.34.072,PainUncertainty,2022.2.5,143.1467081979757,
aigu,moderee,stimuli/660Hz,stimuli/moderee,bloc_9,prob20hthp_12trials.xlsx,3,36,80,20,0,,,,,0,8,8,8,2,11,35,8,,,,,,,,3.9,2013.4699185999998,2017.3723908000002,2017.3724051099994,0.3049412000000302,2017.8163667,2017.8163667,,,n,2019.7798629999998,2019.7798629999998,21,1.365,0.5736862000003384,,,sub-045,45,80,700,bloc_loop.csv,2023-09-12_08h51.34.072,PainUncertainty,2022.2.5,143.1467081979757,
