cue_,stimulus_,cue_fichier,stimulus_fichier,block_name,block_trials_file,block_n_reps,block_ntrials,block_prob_highP_highT,block_prob_highP_lowT,block_pause_after,Bloc_essai.thisRepN,Bloc_essai.thisTrialN,Bloc_essai.thisN,Bloc_essai.thisIndex,blocks.thisRepN,blocks.thisTrialN,blocks.thisN,blocks.thisIndex,trials.thisRepN,trials.thisTrialN,trials.thisN,trials.thisIndex,pause_loop.thisRepN,pause_loop.thisTrialN,pause_loop.thisN,pause_loop.thisIndex,key_resp_5.started,start_calib.started,key_resp_2.started,ISI_duration,pause.started,pause.stopped,cue.started,ISI.started,choice_pain.started,Choice.started,choice_pain.keys,choice_pain.rt,main_text.started,confirm_text.started,ratingScale.response,ratingScale.rt,key_resp_3.started,key_resp_6.started,participant,low_ma,high_ma,failsafe_ma,block_file,date,expName,psychopyVersion,frameRate,
aigu,forte,stimuli/660Hz,stimuli/forte,,,,,,,,0,0,0,3,,,,,,,,,,,,,25.55973670000094,40.087353599999915,43.101078399999096,4.7,45.779220299999,50.48423890000049,50.48392881999898,0.30551329999798327,50.92877840000074,50.92877840000074,m,1.020400500001415,57.33001629999853,57.33001629999853,44,5.3,,,sub-047,40,65,700,bloc_loop.csv,2023-09-12_16h24.27.654,PainUncertainty,2022.2.5,144.21815014076125,
aigu,moderee,stimuli/660Hz,stimuli/moderee,,,,,,,,0,1,1,2,,,,,,,,,,,,,,,,3.2,57.33001629999853,60.53376460000072,60.533833919999594,0.30501749999893946,60.97791109999889,60.97791109999889,n,0.9961207000014838,66.84124579999843,66.84124579999843,28,4.803,,,sub-047,40,65,700,bloc_loop.csv,2023-09-12_16h24.27.654,PainUncertainty,2022.2.5,144.21815014076125,
grave,moderee,stimuli/330Hz,stimuli/moderee,,,,,,,,0,2,2,0,,,,,,,,,,,,,,,,3.3,66.84124579999843,70.14614050000091,70.14616412000105,0.29993649999960326,70.59047830000054,70.59047830000054,n,0.7876967999982298,74.77204619999975,74.77204619999975,28,3.308,,,sub-047,40,65,700,bloc_loop.csv,2023-09-12_16h24.27.654,PainUncertainty,2022.2.5,144.21815014076125,
grave,forte,stimuli/330Hz,stimuli/forte,,,,,,,,0,3,3,1,,,,,,,,,,,,,,,,4.9,74.77204619999975,79.6750123999991,79.67528831999952,0.3048546999998507,80.12644240000009,80.12644240000009,m,0.8882755999984511,83.88348960000076,83.88348960000076,42,2.844,,,sub-047,40,65,700,bloc_loop.csv,2023-09-12_16h24.27.654,PainUncertainty,2022.2.5,144.21815014076125,
aigu,moderee,stimuli/660Hz,stimuli/moderee,bloc_1,prob20hthp_12trials.xlsx,4,48,20,80,0,,,,,0,0,0,0,0,0,0,10,,,,,,,,4,105.28823499999999,109.28976200000034,109.28973172000114,0.30505540000012843,109.73380510000061,109.73380510000061,n,0.6114210999985517,114.0481581999993,114.0481581999993,25,3.628,,,sub-047,40,65,700,bloc_loop.csv,2023-09-12_16h24.27.654,PainUncertainty,2022.2.5,144.21815014076125,
grave,forte,stimuli/330Hz,stimuli/forte,bloc_1,prob20hthp_12trials.xlsx,4,48,20,80,0,,,,,0,0,0,0,0,1,1,0,,,,,,,,3.3,114.0481581999993,117.35311340000044,117.35325942000127,0.30499480000071344,117.79735710000023,117.79735710000023,m,0.6512987999958568,122.34444369999983,122.34444369999983,42,3.816,,,sub-047,40,65,700,bloc_loop.csv,2023-09-12_16h24.27.654,PainUncertainty,2022.2.5,144.21815014076125,
aigu,moderee,stimuli/660Hz,stimuli/moderee,bloc_1,prob20hthp_12trials.xlsx,4,48,20,80,0,,,,,0,0,0,0,0,2,2,9,,,,,,,,4.8,122.34444369999983,127.14606379999896,127.14610542000155,0.3054190999973798,127.5951298,127.5951298,n,0.6275141000005533,131.51914060000126,131.51914060000126,25,3.232,,,sub-047,40,65,700,bloc_loop.csv,2023-09-12_16h24.27.654,PainUncertainty,2022.2.5,144.21815014076125,
aigu,moderee,stimuli/660Hz,stimuli/moderee,bloc_1,prob20hthp_12trials.xlsx,4,48,20,80,0,,,,,0,0,0,0,0,3,3,7,,,,,,,,3.3,131.51914060000126,134.82054760000028,134.82058731999933,0.30519180000192137,135.26671799999895,135.26671799999895,n,0.47053669999877457,138.7917024999988,138.7917024999988,26,2.996,,,sub-047,40,65,700,bloc_loop.csv,2023-09-12_16h24.27.654,PainUncertainty,2022.2.5,144.21815014076125,
aigu,moderee,stimuli/660Hz,stimuli/moderee,bloc_1,prob20hthp_12trials.xlsx,4,48,20,80,0,,,,,0,0,0,0,0,4,4,8,,,,,,,,4.2,138.7917024999988,142.99531449999995,142.9952235200006,0.30510119999962626,143.4393773999982,143.4393773999982,n,1.0208961999996973,150.09526030000052,150.09526030000052,22,5.574,,,sub-047,40,65,700,bloc_loop.csv,2023-09-12_16h24.27.654,PainUncertainty,2022.2.5,144.21815014076125,
aigu,moderee,stimuli/660Hz,stimuli/moderee,bloc_1,prob20hthp_12trials.xlsx,4,48,20,80,0,,,,,0,0,0,0,0,5,5,6,,,,,,,,3.3,150.09526030000052,153.3994462999981,153.39941941999933,0.3048863000003621,153.84393089999867,153.84393089999867,n,0.5114309999989928,158.9680288999989,158.9680288999989,23,4.532,,,sub-047,40,65,700,bloc_loop.csv,2023-09-12_16h24.27.654,PainUncertainty,2022.2.5,144.21815014076125,
grave,forte,stimuli/330Hz,stimuli/forte,bloc_1,prob20hthp_12trials.xlsx,4,48,20,80,0,,,,,0,0,0,0,0,6,6,4,,,,,,,,4.2,158.9680288999989,163.1717892000015,163.17171981999928,0.3045568999987154,163.61569719999898,163.61569719999898,m,1.2670746000003419,169.16643009999825,169.16643009999825,43,4.206,,,sub-047,40,65,700,bloc_loop.csv,2023-09-12_16h24.27.654,PainUncertainty,2022.2.5,144.21815014076125,
grave,moderee,stimuli/330Hz,stimuli/moderee,bloc_1,prob20hthp_12trials.xlsx,4,48,20,80,0,,,,,0,0,0,0,0,7,7,5,,,,,,,,3.1,169.16643009999825,172.26955839999937,172.26958431999884,0.3051820000000589,172.7139285000012,172.7139285000012,n,0.8982762999985425,176.72817349999968,176.72817349999968,23,3.031,,,sub-047,40,65,700,bloc_loop.csv,2023-09-12_16h24.27.654,PainUncertainty,2022.2.5,144.21815014076125,
grave,forte,stimuli/330Hz,stimuli/forte,bloc_1,prob20hthp_12trials.xlsx,4,48,20,80,0,,,,,0,0,0,0,0,8,8,1,,,,,,,,4.1,176.72817349999968,180.83295920000091,180.83300841999954,0.30531300000075134,181.27712959999917,181.27712959999917,m,1.3932046000008995,185.45641980000073,185.45641980000073,42,2.72,,,sub-047,40,65,700,bloc_loop.csv,2023-09-12_16h24.27.654,PainUncertainty,2022.2.5,144.21815014076125,
grave,forte,stimuli/330Hz,stimuli/forte,bloc_1,prob20hthp_12trials.xlsx,4,48,20,80,0,,,,,0,0,0,0,0,9,9,2,,,,,,,,4.5,185.45641980000073,189.95960439999908,189.9594698199988,0.3049466000011307,190.4034032999989,190.4034032999989,m,1.043058099996415,195.5262604999989,195.5262604999989,42,4.025,,,sub-047,40,65,700,bloc_loop.csv,2023-09-12_16h24.27.654,PainUncertainty,2022.2.5,144.21815014076125,
aigu,forte,stimuli/660Hz,stimuli/forte,bloc_1,prob20hthp_12trials.xlsx,4,48,20,80,0,,,,,0,0,0,0,0,10,10,11,,,,,,,,4.1,195.5262604999989,199.62730849999934,199.62755782000096,0.3052257000017562,200.0756560000009,200.0756560000009,m,0.7026197999985015,205.51582509999935,205.51582509999935,44,4.685,,,sub-047,40,65,700,bloc_loop.csv,2023-09-12_16h24.27.654,PainUncertainty,2022.2.5,144.21815014076125,
grave,forte,stimuli/330Hz,stimuli/forte,bloc_1,prob20hthp_12trials.xlsx,4,48,20,80,0,,,,,0,0,0,0,0,11,11,3,,,,,,,,4.7,205.51582509999935,210.21898940000028,210.22025461999948,0.3039578999996593,210.6678080999991,210.6678080999991,m,0.7298488999949768,215.50697890000083,215.50697890000083,41,4.052,,,sub-047,40,65,700,bloc_loop.csv,2023-09-12_16h24.27.654,PainUncertainty,2022.2.5,144.21815014076125,
aigu,forte,stimuli/660Hz,stimuli/forte,bloc_1,prob20hthp_12trials.xlsx,4,48,20,80,0,,,,,0,0,0,0,1,0,12,11,,,,,,,,3.9,215.50697890000083,219.407126099999,219.40715712000093,0.30495560000053956,219.85144310000032,219.85144310000032,m,0.8026491000018723,223.99710620000042,223.99710620000042,42,3.282,,,sub-047,40,65,700,bloc_loop.csv,2023-09-12_16h24.27.654,PainUncertainty,2022.2.5,144.21815014076125,
grave,forte,stimuli/330Hz,stimuli/forte,bloc_1,prob20hthp_12trials.xlsx,4,48,20,80,0,,,,,0,0,0,0,1,1,13,0,,,,,,,,4.6,223.99710620000042,228.60276430000158,228.60274161999843,0.30517970000073547,229.04710500000147,229.04710500000147,m,0.8974490999971749,233.939503900001,233.939503900001,41,3.914,,,sub-047,40,65,700,bloc_loop.csv,2023-09-12_16h24.27.654,PainUncertainty,2022.2.5,144.21815014076125,
aigu,moderee,stimuli/660Hz,stimuli/moderee,bloc_1,prob20hthp_12trials.xlsx,4,48,20,80,0,,,,,0,0,0,0,1,2,14,8,,,,,,,,4.3,233.939503900001,238.24278739999863,238.24276582000022,0.30508670000199345,238.69417299999986,238.69417299999986,n,0.6977197999985947,242.42684000000008,242.42684000000008,21,2.976,,,sub-047,40,65,700,bloc_loop.csv,2023-09-12_16h24.27.654,PainUncertainty,2022.2.5,144.21815014076125,
grave,moderee,stimuli/330Hz,stimuli/moderee,bloc_1,prob20hthp_12trials.xlsx,4,48,20,80,0,,,,,0,0,0,0,1,3,15,5,,,,,,,,4.1,242.42684000000008,246.52853289999985,246.52871251999824,0.3048623000031512,246.97298779999983,246.97298779999983,n,0.5873564999965311,250.43819989999974,250.43819989999974,22,2.798,,,sub-047,40,65,700,bloc_loop.csv,2023-09-12_16h24.27.654,PainUncertainty,2022.2.5,144.21815014076125,
grave,forte,stimuli/330Hz,stimuli/forte,bloc_1,prob20hthp_12trials.xlsx,4,48,20,80,0,,,,,0,0,0,0,1,4,16,2,,,,,,,,4.8,250.43819989999974,255.2378847,255.2379738200005,0.30470759999661823,255.68202449999808,255.68202449999808,m,0.6435038999952667,260.5231601000014,260.5231601000014,42,4.129,,,sub-047,40,65,700,bloc_loop.csv,2023-09-12_16h24.27.654,PainUncertainty,2022.2.5,144.21815014076125,
aigu,moderee,stimuli/660Hz,stimuli/moderee,bloc_1,prob20hthp_12trials.xlsx,4,48,20,80,0,,,,,0,0,0,0,1,5,17,9,,,,,,,,3.1,260.5231601000014,263.6282766000004,263.6283751199997,0.30443469999954687,264.07194190000155,264.07194190000155,n,0.6031693999975687,268.932697799999,268.932697799999,20,4.178,,,sub-047,40,65,700,bloc_loop.csv,2023-09-12_16h24.27.654,PainUncertainty,2022.2.5,144.21815014076125,
grave,forte,stimuli/330Hz,stimuli/forte,bloc_1,prob20hthp_12trials.xlsx,4,48,20,80,0,,,,,0,0,0,0,1,6,18,3,,,,,,,,3.3,268.932697799999,272.2332710999981,272.23313542000034,0.30492619999859016,272.6772978000008,272.6772978000008,m,1.1077366999998048,277.3253134000006,277.3253134000006,40,3.465,,,sub-047,40,65,700,bloc_loop.csv,2023-09-12_16h24.27.654,PainUncertainty,2022.2.5,144.21815014076125,
aigu,moderee,stimuli/660Hz,stimuli/moderee,bloc_1,prob20hthp_12trials.xlsx,4,48,20,80,0,,,,,0,0,0,0,1,7,19,7,,,,,,,,4.4,277.3253134000006,281.72726780000085,281.7272382199997,0.30540259999906993,282.1743830000014,282.1743830000014,n,0.589135800000804,286.8058735000013,286.8058735000013,17,3.955,,,sub-047,40,65,700,bloc_loop.csv,2023-09-12_16h24.27.654,PainUncertainty,2022.2.5,144.21815014076125,
grave,forte,stimuli/330Hz,stimuli/forte,bloc_1,prob20hthp_12trials.xlsx,4,48,20,80,0,,,,,0,0,0,0,1,8,20,1,,,,,,,,3.1,286.8058735000013,289.9087478000001,289.9089200200004,0.3054417999992438,290.3571026999998,290.3571026999998,m,0.6024246999986644,293.27917779999916,293.27917779999916,43,2.238,,,sub-047,40,65,700,bloc_loop.csv,2023-09-12_16h24.27.654,PainUncertainty,2022.2.5,144.21815014076125,
aigu,moderee,stimuli/660Hz,stimuli/moderee,bloc_1,prob20hthp_12trials.xlsx,4,48,20,80,0,,,,,0,0,0,0,1,9,21,6,,,,,,,,3.3,293.27917779999916,296.583202400001,296.58323362000084,0.3051090999979351,297.0276741999987,297.0276741999987,n,0.7889995999976236,301.1582353999984,301.1582353999984,21,3.289,,,sub-047,40,65,700,bloc_loop.csv,2023-09-12_16h24.27.654,PainUncertainty,2022.2.5,144.21815014076125,
aigu,moderee,stimuli/660Hz,stimuli/moderee,bloc_1,prob20hthp_12trials.xlsx,4,48,20,80,0,,,,,0,0,0,0,1,10,22,10,,,,,,,,3.5,301.1582353999984,304.6605380000001,304.66068241999966,0.30520699999760836,305.10873029999857,305.10873029999857,n,0.5895988999982364,310.03111889999855,310.03111889999855,15,4.261,,,sub-047,40,65,700,bloc_loop.csv,2023-09-12_16h24.27.654,PainUncertainty,2022.2.5,144.21815014076125,
grave,forte,stimuli/330Hz,stimuli/forte,bloc_1,prob20hthp_12trials.xlsx,4,48,20,80,0,,,,,0,0,0,0,1,11,23,4,,,,,,,,4.9,310.03111889999855,314.9326614999991,314.9328269199985,0.3047134000007645,315.3809173000009,315.3809173000009,m,0.6101221999997506,319.4316327999986,319.4316327999986,43,3.364,,,sub-047,40,65,700,bloc_loop.csv,2023-09-12_16h24.27.654,PainUncertainty,2022.2.5,144.21815014076125,
aigu,moderee,stimuli/660Hz,stimuli/moderee,bloc_1,prob20hthp_12trials.xlsx,4,48,20,80,0,,,,,0,0,0,0,2,0,24,7,,,,,,,,3.7,319.4316327999986,323.13506159999815,323.13502002000024,0.30540800000017043,323.58358099999896,323.58358099999896,n,1.0589313999989827,327.56913469999927,327.56913469999927,14,2.85,,,sub-047,40,65,700,bloc_loop.csv,2023-09-12_16h24.27.654,PainUncertainty,2022.2.5,144.21815014076125,
grave,forte,stimuli/330Hz,stimuli/forte,bloc_1,prob20hthp_12trials.xlsx,4,48,20,80,0,,,,,0,0,0,0,2,1,25,3,,,,,,,,3.3,327.56913469999927,330.8720680000006,330.8720979200014,0.3049203000009584,331.3161457999995,331.3161457999995,m,0.6041516000004776,337.0478292000007,337.0478292000007,41,5.06,,,sub-047,40,65,700,bloc_loop.csv,2023-09-12_16h24.27.654,PainUncertainty,2022.2.5,144.21815014076125,
aigu,moderee,stimuli/660Hz,stimuli/moderee,bloc_1,prob20hthp_12trials.xlsx,4,48,20,80,0,,,,,0,0,0,0,2,2,26,10,,,,,,,,3.4,337.0478292000007,340.4496614999989,340.4496663200014,0.30517580000014277,340.89777409999806,340.89777409999806,n,0.7055740999967384,345.5205242000011,345.5205242000011,17,3.853,,,sub-047,40,65,700,bloc_loop.csv,2023-09-12_16h24.27.654,PainUncertainty,2022.2.5,144.21815014076125,
grave,moderee,stimuli/330Hz,stimuli/moderee,bloc_1,prob20hthp_12trials.xlsx,4,48,20,80,0,,,,,0,0,0,0,2,3,27,5,,,,,,,,4.8,345.5205242000011,350.32580959999905,350.32581461999945,0.3050829999992857,350.7699676000011,350.7699676000011,n,0.8358093999995617,356.2796742999999,356.2796742999999,19,4.587,,,sub-047,40,65,700,bloc_loop.csv,2023-09-12_16h24.27.654,PainUncertainty,2022.2.5,144.21815014076125,
grave,forte,stimuli/330Hz,stimuli/forte,bloc_1,prob20hthp_12trials.xlsx,4,48,20,80,0,,,,,0,0,0,0,2,4,28,1,,,,,,,,4.1,356.2796742999999,360.38312999999835,360.38307391999916,0.30507459999716957,360.83066619999954,360.83066619999954,m,1.1128517999968608,366.5256283999988,366.5256283999988,36,4.511,,,sub-047,40,65,700,bloc_loop.csv,2023-09-12_16h24.27.654,PainUncertainty,2022.2.5,144.21815014076125,
aigu,moderee,stimuli/660Hz,stimuli/moderee,bloc_1,prob20hthp_12trials.xlsx,4,48,20,80,0,,,,,0,0,0,0,2,5,29,8,,,,,,,,3.4,366.5256283999988,369.9253658000016,369.9254176199982,0.30494439999893075,370.3695235000014,370.3695235000014,n,0.5843325999994704,373.9442913999992,373.9442913999992,16,2.914,,,sub-047,40,65,700,bloc_loop.csv,2023-09-12_16h24.27.654,PainUncertainty,2022.2.5,144.21815014076125,
grave,forte,stimuli/330Hz,stimuli/forte,bloc_1,prob20hthp_12trials.xlsx,4,48,20,80,0,,,,,0,0,0,0,2,6,30,4,,,,,,,,3.1,373.9442913999992,377.04431750000003,377.0443808200005,0.3050675999984378,377.4887787000007,377.4887787000007,m,1.1115133999992395,383.02284130000044,383.02284130000044,41,4.345,,,sub-047,40,65,700,bloc_loop.csv,2023-09-12_16h24.27.654,PainUncertainty,2022.2.5,144.21815014076125,
aigu,moderee,stimuli/660Hz,stimuli/moderee,bloc_1,prob20hthp_12trials.xlsx,4,48,20,80,0,,,,,0,0,0,0,2,7,31,6,,,,,,,,4,383.02284130000044,387.0246392000008,387.0246378199998,0.30509800000072573,387.46884919999866,387.46884919999866,n,0.7194693999990704,392.22896089999995,392.22896089999995,14,3.962,,,sub-047,40,65,700,bloc_loop.csv,2023-09-12_16h24.27.654,PainUncertainty,2022.2.5,144.21815014076125,
aigu,forte,stimuli/660Hz,stimuli/forte,bloc_1,prob20hthp_12trials.xlsx,4,48,20,80,0,,,,,0,0,0,0,2,8,32,11,,,,,,,,4.6,392.22896089999995,396.83195290000003,396.8317119200008,0.29941730000064126,397.2698891,397.2698891,m,0.8430420999975468,401.7242914999988,401.7242914999988,42,3.545,,,sub-047,40,65,700,bloc_loop.csv,2023-09-12_16h24.27.654,PainUncertainty,2022.2.5,144.21815014076125,
grave,forte,stimuli/330Hz,stimuli/forte,bloc_1,prob20hthp_12trials.xlsx,4,48,20,80,0,,,,,0,0,0,0,2,9,33,2,,,,,,,,4.9,401.7242914999988,406.62486699999863,406.62506492000176,0.3002139999989595,407.06884880000143,407.06884880000143,m,0.6650203999961377,411.9227514999984,411.9227514999984,43,4.136,,,sub-047,40,65,700,bloc_loop.csv,2023-09-12_16h24.27.654,PainUncertainty,2022.2.5,144.21815014076125,
grave,forte,stimuli/330Hz,stimuli/forte,bloc_1,prob20hthp_12trials.xlsx,4,48,20,80,0,,,,,0,0,0,0,2,10,34,0,,,,,,,,5,411.9227514999984,416.92453359999854,416.92464062000073,0.3049461999980849,417.37309879999884,417.37309879999884,m,0.6647918999988178,422.842904000001,422.842904000001,44,4.735,,,sub-047,40,65,700,bloc_loop.csv,2023-09-12_16h24.27.654,PainUncertainty,2022.2.5,144.21815014076125,
aigu,moderee,stimuli/660Hz,stimuli/moderee,bloc_1,prob20hthp_12trials.xlsx,4,48,20,80,0,,,,,0,0,0,0,2,11,35,9,,,,,,,,4.8,422.842904000001,427.6479736000001,427.64863322000093,0.3042802000018128,428.09179420000146,428.09179420000146,n,0.6759668999984569,433.58595459999924,433.58595459999924,10,4.741,,,sub-047,40,65,700,bloc_loop.csv,2023-09-12_16h24.27.654,PainUncertainty,2022.2.5,144.21815014076125,
grave,forte,stimuli/330Hz,stimuli/forte,bloc_1,prob20hthp_12trials.xlsx,4,48,20,80,0,,,,,0,0,0,0,3,0,36,4,,,,,,,,4.6,433.58595459999924,438.1908997999999,438.190949820001,0.30521070000031614,438.63913010000033,438.63913010000033,m,0.691613499999221,443.6556907000013,443.6556907000013,45,4.261,,,sub-047,40,65,700,bloc_loop.csv,2023-09-12_16h24.27.654,PainUncertainty,2022.2.5,144.21815014076125,
grave,forte,stimuli/330Hz,stimuli/forte,bloc_1,prob20hthp_12trials.xlsx,4,48,20,80,0,,,,,0,0,0,0,3,1,37,0,,,,,,,,3.6,443.6556907000013,447.2610577999985,447.26116772000097,0.29920440000205417,447.703650200001,447.703650200001,m,0.7524082999989332,451.9686217999988,451.9686217999988,45,3.463,,,sub-047,40,65,700,bloc_loop.csv,2023-09-12_16h24.27.654,PainUncertainty,2022.2.5,144.21815014076125,
grave,forte,stimuli/330Hz,stimuli/forte,bloc_1,prob20hthp_12trials.xlsx,4,48,20,80,0,,,,,0,0,0,0,3,2,38,1,,,,,,,,3.3,451.9686217999988,455.2690298000016,455.26899312000097,0.3055997999981628,455.7170985999983,455.7170985999983,m,0.8765335999996751,462.59847549999904,462.59847549999904,44,5.934,,,sub-047,40,65,700,bloc_loop.csv,2023-09-12_16h24.27.654,PainUncertainty,2022.2.5,144.21815014076125,
aigu,moderee,stimuli/660Hz,stimuli/moderee,bloc_1,prob20hthp_12trials.xlsx,4,48,20,80,0,,,,,0,0,0,0,3,3,39,8,,,,,,,,3.7,462.59847549999904,466.2982024000012,466.2982187200003,0.3053169999984675,466.74655789999815,466.74655789999815,n,0.5787088999968546,471.6773796000016,471.6773796000016,6,4.289,,,sub-047,40,65,700,bloc_loop.csv,2023-09-12_16h24.27.654,PainUncertainty,2022.2.5,144.21815014076125,
grave,moderee,stimuli/330Hz,stimuli/moderee,bloc_1,prob20hthp_12trials.xlsx,4,48,20,80,0,,,,,0,0,0,0,3,4,40,5,,,,,,,,5,471.6773796000016,476.6816452999992,476.6816777200009,0.3046427000008407,477.12560160000066,477.12560160000066,n,0.6242533999975421,480.82105070000034,480.82105070000034,13,3.01,,,sub-047,40,65,700,bloc_loop.csv,2023-09-12_16h24.27.654,PainUncertainty,2022.2.5,144.21815014076125,
aigu,moderee,stimuli/660Hz,stimuli/moderee,bloc_1,prob20hthp_12trials.xlsx,4,48,20,80,0,,,,,0,0,0,0,3,5,41,6,,,,,,,,4.1,480.82105070000034,484.92543039999873,484.92539372000175,0.3052663000016764,485.36954400000104,485.36954400000104,n,0.6462891000010131,488.8456401000003,488.8456401000003,14,2.769,,,sub-047,40,65,700,bloc_loop.csv,2023-09-12_16h24.27.654,PainUncertainty,2022.2.5,144.21815014076125,
aigu,moderee,stimuli/660Hz,stimuli/moderee,bloc_1,prob20hthp_12trials.xlsx,4,48,20,80,0,,,,,0,0,0,0,3,6,42,9,,,,,,,,4.8,488.8456401000003,493.6490803000015,493.6490918200005,0.30505900000207475,494.09492859999955,494.09492859999955,n,1.2281703999979072,499.7795967999991,499.7795967999991,19,4.391,,,sub-047,40,65,700,bloc_loop.csv,2023-09-12_16h24.27.654,PainUncertainty,2022.2.5,144.21815014076125,
aigu,moderee,stimuli/660Hz,stimuli/moderee,bloc_1,prob20hthp_12trials.xlsx,4,48,20,80,0,,,,,0,0,0,0,3,7,43,10,,,,,,,,3,499.7795967999991,502.78173080000124,502.78175211999843,0.30508150000241585,503.2258642000015,503.2258642000015,n,1.1514172999959555,509.27606390000074,509.27606390000074,24,4.824,,,sub-047,40,65,700,bloc_loop.csv,2023-09-12_16h24.27.654,PainUncertainty,2022.2.5,144.21815014076125,
aigu,forte,stimuli/660Hz,stimuli/forte,bloc_1,prob20hthp_12trials.xlsx,4,48,20,80,0,,,,,0,0,0,0,3,8,44,11,,,,,,,,3.1,509.27606390000074,512.3807563000009,512.3809333200013,0.29955709999921964,512.824994300001,512.824994300001,m,1.192901799997344,517.4787823000006,517.4787823000006,43,3.392,,,sub-047,40,65,700,bloc_loop.csv,2023-09-12_16h24.27.654,PainUncertainty,2022.2.5,144.21815014076125,
aigu,moderee,stimuli/660Hz,stimuli/moderee,bloc_1,prob20hthp_12trials.xlsx,4,48,20,80,0,,,,,0,0,0,0,3,9,45,7,,,,,,,,3.9,517.4787823000006,521.3812074000016,521.381339119999,0.3022552000002179,521.826525299999,521.826525299999,n,0.6645277999959944,524.8312994000007,524.8312994000007,3,2.261,,,sub-047,40,65,700,bloc_loop.csv,2023-09-12_16h24.27.654,PainUncertainty,2022.2.5,144.21815014076125,
grave,forte,stimuli/330Hz,stimuli/forte,bloc_1,prob20hthp_12trials.xlsx,4,48,20,80,0,,,,,0,0,0,0,3,10,46,3,,,,,,,,3.1,524.8312994000007,527.9306561000012,527.9306895199995,0.3050709999988612,528.3790506000005,528.3790506000005,m,0.6479882999992697,533.0316205999989,533.0316205999989,42,3.94,,,sub-047,40,65,700,bloc_loop.csv,2023-09-12_16h24.27.654,PainUncertainty,2022.2.5,144.21815014076125,
grave,forte,stimuli/330Hz,stimuli/forte,bloc_1,prob20hthp_12trials.xlsx,4,48,20,80,0,,,,,0,0,0,0,3,11,47,2,,,,,,,,4.5,533.0316205999989,537.5359012000008,537.5359740200008,0.30501709999953164,537.9800703000001,537.9800703000001,m,0.7106477999986964,543.4531376999985,543.4531376999985,44,4.692,,,sub-047,40,65,700,bloc_loop.csv,2023-09-12_16h24.27.654,PainUncertainty,2022.2.5,144.21815014076125,
grave,forte,stimuli/330Hz,stimuli/forte,bloc_2,prob50_50_4trials.xlsx,2,8,50,50,1,,,,,0,1,1,1,0,0,0,1,,,,,,,,5,543.4531376999985,548.4538876000006,548.4539441200002,0.30503069999758736,548.8980005000012,548.8980005000012,m,0.8784538999971119,552.965030899999,552.965030899999,45,3.115,,,sub-047,40,65,700,bloc_loop.csv,2023-09-12_16h24.27.654,PainUncertainty,2022.2.5,144.21815014076125,
aigu,moderee,stimuli/660Hz,stimuli/moderee,bloc_2,prob50_50_4trials.xlsx,2,8,50,50,1,,,,,0,1,1,1,0,1,1,2,,,,,,,,4.8,552.965030899999,557.7677757999991,557.7678580200015,0.3048155000033148,558.2116740999991,558.2116740999991,n,0.7002518999979657,563.7085077999982,563.7085077999982,28,4.72,,,sub-047,40,65,700,bloc_loop.csv,2023-09-12_16h24.27.654,PainUncertainty,2022.2.5,144.21815014076125,
aigu,forte,stimuli/660Hz,stimuli/forte,bloc_2,prob50_50_4trials.xlsx,2,8,50,50,1,,,,,0,1,1,1,0,2,2,3,,,,,,,,3.3,563.7085077999982,567.0116964000008,567.0118345199996,0.3047450000012759,567.4557889999996,567.4557889999996,m,0.9709011999984796,572.3396853999984,572.3396853999984,38,3.838,,,sub-047,40,65,700,bloc_loop.csv,2023-09-12_16h24.27.654,PainUncertainty,2022.2.5,144.21815014076125,
grave,moderee,stimuli/330Hz,stimuli/moderee,bloc_2,prob50_50_4trials.xlsx,2,8,50,50,1,,,,,0,1,1,1,0,3,3,0,,,,,,,,5,572.3396853999984,577.3392346,577.3394722199998,0.3049976999973296,577.7834567999998,577.7834567999998,n,0.5640652999973099,583.6256341000008,583.6256341000008,8,5.22,,,sub-047,40,65,700,bloc_loop.csv,2023-09-12_16h24.27.654,PainUncertainty,2022.2.5,144.21815014076125,
aigu,moderee,stimuli/660Hz,stimuli/moderee,bloc_2,prob50_50_4trials.xlsx,2,8,50,50,1,,,,,0,1,1,1,1,0,4,2,,,,,,,,3.1,583.6256341000008,586.7297388000006,586.7297965199984,0.30493829999977606,587.1740748999982,587.1740748999982,n,0.5844634999994014,590.978639500001,590.978639500001,12,3.15,,,sub-047,40,65,700,bloc_loop.csv,2023-09-12_16h24.27.654,PainUncertainty,2022.2.5,144.21815014076125,
aigu,forte,stimuli/660Hz,stimuli/forte,bloc_2,prob50_50_4trials.xlsx,2,8,50,50,1,,,,,0,1,1,1,1,1,5,3,,,,,,,,3.6,590.978639500001,594.5843351000003,594.5843835200001,0.305192600000737,595.0285003999998,595.0285003999998,m,0.6873180999973556,598.669512299999,598.669512299999,39,2.872,,,sub-047,40,65,700,bloc_loop.csv,2023-09-12_16h24.27.654,PainUncertainty,2022.2.5,144.21815014076125,
grave,moderee,stimuli/330Hz,stimuli/moderee,bloc_2,prob50_50_4trials.xlsx,2,8,50,50,1,,,,,0,1,1,1,1,2,6,0,,,,,,,,4.4,598.669512299999,603.0719634999987,603.0718651200011,0.302271100001235,603.5173426000001,603.5173426000001,n,0.6254110999980185,608.0198813999996,608.0198813999996,17,3.803,,,sub-047,40,65,700,bloc_loop.csv,2023-09-12_16h24.27.654,PainUncertainty,2022.2.5,144.21815014076125,
grave,forte,stimuli/330Hz,stimuli/forte,bloc_2,prob50_50_4trials.xlsx,2,8,50,50,1,,,,,0,1,1,1,1,3,7,1,,,,,,,,3,608.0198813999996,611.0238400999988,611.023867820001,0.30522930000006454,611.468039899999,611.468039899999,m,0.5575528999979724,617.6118062999994,617.6118062999994,44,3.553,,,sub-047,40,65,700,bloc_loop.csv,2023-09-12_16h24.27.654,PainUncertainty,2022.2.5,144.21815014076125,
,,,,bloc_2,prob50_50_4trials.xlsx,2,8,50,50,1,,,,,0,1,1,1,,,,,0,0,0,0,,,,,,,,,,,,,,,,,617.6118062999994,633.8181871000015,sub-047,40,65,700,bloc_loop.csv,2023-09-12_16h24.27.654,PainUncertainty,2022.2.5,144.21815014076125,
aigu,forte,stimuli/660Hz,stimuli/forte,bloc_3,prob80hthp_12trials.xlsx,2,24,80,20,0,,,,,0,2,2,2,0,0,0,6,,,,,,,,3.1,634.9244519999993,638.0277186999992,638.0273819199981,0.3053983000027074,638.4754643000015,638.4754643000015,m,0.5808108999990509,643.9055736999981,643.9055736999981,42,4.787,,,sub-047,40,65,700,bloc_loop.csv,2023-09-12_16h24.27.654,PainUncertainty,2022.2.5,144.21815014076125,
grave,forte,stimuli/330Hz,stimuli/forte,bloc_3,prob80hthp_12trials.xlsx,2,24,80,20,0,,,,,0,2,2,2,0,1,1,5,,,,,,,,4.6,643.9055736999981,648.5076579000015,648.5076985200001,0.3054298999995808,648.9564012999981,648.9564012999981,m,0.6306077999979607,652.6655829999982,652.6655829999982,42,3.011,,,sub-047,40,65,700,bloc_loop.csv,2023-09-12_16h24.27.654,PainUncertainty,2022.2.5,144.21815014076125,
grave,moderee,stimuli/330Hz,stimuli/moderee,bloc_3,prob80hthp_12trials.xlsx,2,24,80,20,0,,,,,0,2,2,2,0,2,2,1,,,,,,,,3.6,652.6655829999982,656.2654011000013,656.265348220001,0.30509770000207936,656.7095509999999,656.7095509999999,n,0.542712999995274,662.7066236999999,662.7066236999999,3,5.38,,,sub-047,40,65,700,bloc_loop.csv,2023-09-12_16h24.27.654,PainUncertainty,2022.2.5,144.21815014076125,
grave,moderee,stimuli/330Hz,stimuli/moderee,bloc_3,prob80hthp_12trials.xlsx,2,24,80,20,0,,,,,0,2,2,2,0,3,3,2,,,,,,,,3.7,662.7066236999999,666.4122930000012,666.4126103200003,0.30515509999895585,666.8568925,666.8568925,n,0.43368309999641497,670.0764707999988,670.0764707999988,5,2.708,,,sub-047,40,65,700,bloc_loop.csv,2023-09-12_16h24.27.654,PainUncertainty,2022.2.5,144.21815014076125,
aigu,forte,stimuli/660Hz,stimuli/forte,bloc_3,prob80hthp_12trials.xlsx,2,24,80,20,0,,,,,0,2,2,2,0,4,4,10,,,,,,,,4.5,670.0764707999988,674.5800436999998,674.5800234200003,0.30505489999995916,675.0242175999992,675.0242175999992,m,1.0559657999983756,680.3237244999982,680.3237244999982,40,4.164,,,sub-047,40,65,700,bloc_loop.csv,2023-09-12_16h24.27.654,PainUncertainty,2022.2.5,144.21815014076125,
grave,moderee,stimuli/330Hz,stimuli/moderee,bloc_3,prob80hthp_12trials.xlsx,2,24,80,20,0,,,,,0,2,2,2,0,5,5,4,,,,,,,,5,680.3237244999982,685.324414499999,685.3245651199984,0.3049101000033261,685.7689823000001,685.7689823000001,n,0.6261917999981961,690.9037658999987,690.9037658999987,9,4.442,,,sub-047,40,65,700,bloc_loop.csv,2023-09-12_16h24.27.654,PainUncertainty,2022.2.5,144.21815014076125,
aigu,moderee,stimuli/660Hz,stimuli/moderee,bloc_3,prob80hthp_12trials.xlsx,2,24,80,20,0,,,,,0,2,2,2,0,6,6,11,,,,,,,,3.9,690.9037658999987,694.8046420999999,694.8047098200011,0.3050154999982624,695.2489400999984,695.2489400999984,n,0.8897695999985444,699.8727141999989,699.8727141999989,17,3.665,,,sub-047,40,65,700,bloc_loop.csv,2023-09-12_16h24.27.654,PainUncertainty,2022.2.5,144.21815014076125,
grave,moderee,stimuli/330Hz,stimuli/moderee,bloc_3,prob80hthp_12trials.xlsx,2,24,80,20,0,,,,,0,2,2,2,0,7,7,3,,,,,,,,3.7,699.8727141999989,703.576537500001,703.5765669200016,0.3055642000035732,704.0253276000003,704.0253276000003,n,0.5513783999995212,708.1550243999991,708.1550243999991,10,3.498,,,sub-047,40,65,700,bloc_loop.csv,2023-09-12_16h24.27.654,PainUncertainty,2022.2.5,144.21815014076125,
aigu,forte,stimuli/660Hz,stimuli/forte,bloc_3,prob80hthp_12trials.xlsx,2,24,80,20,0,,,,,0,2,2,2,0,8,8,9,,,,,,,,3.6,708.1550243999991,711.7584850999992,711.7586474200004,0.3048147000008612,712.2061872000013,712.2061872000013,m,0.5656549000013911,715.938224999998,715.938224999998,42,3.108,,,sub-047,40,65,700,bloc_loop.csv,2023-09-12_16h24.27.654,PainUncertainty,2022.2.5,144.21815014076125,
aigu,forte,stimuli/660Hz,stimuli/forte,bloc_3,prob80hthp_12trials.xlsx,2,24,80,20,0,,,,,0,2,2,2,0,9,9,7,,,,,,,,4.2,715.938224999998,720.1410298999981,720.1410975199985,0.30499370000325143,720.585119899999,720.585119899999,m,0.7336009999999078,724.426152,724.426152,43,3.031,,,sub-047,40,65,700,bloc_loop.csv,2023-09-12_16h24.27.654,PainUncertainty,2022.2.5,144.21815014076125,
grave,moderee,stimuli/330Hz,stimuli/moderee,bloc_3,prob80hthp_12trials.xlsx,2,24,80,20,0,,,,,0,2,2,2,0,10,10,0,,,,,,,,4.2,724.426152,728.6285036000008,728.6284120200005,0.30549470000187284,729.0765855999998,729.0765855999998,n,0.6075909999963187,734.0674991999986,734.0674991999986,4,4.299,,,sub-047,40,65,700,bloc_loop.csv,2023-09-12_16h24.27.654,PainUncertainty,2022.2.5,144.21815014076125,
aigu,forte,stimuli/660Hz,stimuli/forte,bloc_3,prob80hthp_12trials.xlsx,2,24,80,20,0,,,,,0,2,2,2,0,11,11,8,,,,,,,,4.6,734.0674991999986,738.6714547999982,738.671335920001,0.30250770000202465,739.1158174999982,739.1158174999982,m,0.6077814999953262,744.0070282999986,744.0070282999986,44,4.233,,,sub-047,40,65,700,bloc_loop.csv,2023-09-12_16h24.27.654,PainUncertainty,2022.2.5,144.21815014076125,
grave,forte,stimuli/330Hz,stimuli/forte,bloc_3,prob80hthp_12trials.xlsx,2,24,80,20,0,,,,,0,2,2,2,1,0,12,5,,,,,,,,3.5,744.0070282999986,747.5122699999993,747.5122714200013,0.30503780000071856,747.9564446000004,747.9564446000004,m,0.9169305999967037,752.0641353999999,752.0641353999999,43,3.142,,,sub-047,40,65,700,bloc_loop.csv,2023-09-12_16h24.27.654,PainUncertainty,2022.2.5,144.21815014076125,
aigu,forte,stimuli/660Hz,stimuli/forte,bloc_3,prob80hthp_12trials.xlsx,2,24,80,20,0,,,,,0,2,2,2,1,1,13,9,,,,,,,,3.6,752.0641353999999,755.6659811999998,755.6660893199994,0.30514770000081626,756.1102758000015,756.1102758000015,m,0.6917182999968645,764.2145917000016,764.2145917000016,43,7.351,,,sub-047,40,65,700,bloc_loop.csv,2023-09-12_16h24.27.654,PainUncertainty,2022.2.5,144.21815014076125,
aigu,forte,stimuli/660Hz,stimuli/forte,bloc_3,prob80hthp_12trials.xlsx,2,24,80,20,0,,,,,0,2,2,2,1,2,14,7,,,,,,,,3,764.2145917000016,767.2166246000015,767.2166478199986,0.30471489999763435,767.664667099998,767.664667099998,m,0.7511515000005602,772.9598604999992,772.9598604999992,45,4.475,,,sub-047,40,65,700,bloc_loop.csv,2023-09-12_16h24.27.654,PainUncertainty,2022.2.5,144.21815014076125,
grave,moderee,stimuli/330Hz,stimuli/moderee,bloc_3,prob80hthp_12trials.xlsx,2,24,80,20,0,,,,,0,2,2,2,1,3,15,2,,,,,,,,4,772.9598604999992,776.9602096999988,776.9601404200009,0.30528269999922486,777.4043872000002,777.4043872000002,n,0.6138811999990139,781.3840715000006,781.3840715000006,14,3.303,,,sub-047,40,65,700,bloc_loop.csv,2023-09-12_16h24.27.654,PainUncertainty,2022.2.5,144.21815014076125,
grave,moderee,stimuli/330Hz,stimuli/moderee,bloc_3,prob80hthp_12trials.xlsx,2,24,80,20,0,,,,,0,2,2,2,1,4,16,4,,,,,,,,3.2,781.3840715000006,784.5861344000004,784.5861401199988,0.3056386000025668,785.0343929999981,785.0343929999981,n,0.6898851999976614,788.945554599999,788.945554599999,9,3.151,,,sub-047,40,65,700,bloc_loop.csv,2023-09-12_16h24.27.654,PainUncertainty,2022.2.5,144.21815014076125,
aigu,forte,stimuli/660Hz,stimuli/forte,bloc_3,prob80hthp_12trials.xlsx,2,24,80,20,0,,,,,0,2,2,2,1,5,17,6,,,,,,,,4.5,788.945554599999,793.4486208999988,793.4488231199982,0.30497570000079577,793.895631899999,793.895631899999,m,0.7519489000005706,798.3137128999988,798.3137128999988,43,3.589,,,sub-047,40,65,700,bloc_loop.csv,2023-09-12_16h24.27.654,PainUncertainty,2022.2.5,144.21815014076125,
aigu,moderee,stimuli/660Hz,stimuli/moderee,bloc_3,prob80hthp_12trials.xlsx,2,24,80,20,0,,,,,0,2,2,2,1,6,18,11,,,,,,,,3.1,798.3137128999988,801.4143715999999,801.4144470200015,0.3053990000007616,801.8626181,801.8626181,n,0.8416929999984859,806.9767981000005,806.9767981000005,7,4.212,,,sub-047,40,65,700,bloc_loop.csv,2023-09-12_16h24.27.654,PainUncertainty,2022.2.5,144.21815014076125,
grave,moderee,stimuli/330Hz,stimuli/moderee,bloc_3,prob80hthp_12trials.xlsx,2,24,80,20,0,,,,,0,2,2,2,1,7,19,0,,,,,,,,3.2,806.9767981000005,810.1796122999986,810.1796395200006,0.30514450000191573,810.623595099998,810.623595099998,n,0.6279968999988341,816.1529459000012,816.1529459000012,10,4.785,,,sub-047,40,65,700,bloc_loop.csv,2023-09-12_16h24.27.654,PainUncertainty,2022.2.5,144.21815014076125,
aigu,forte,stimuli/660Hz,stimuli/forte,bloc_3,prob80hthp_12trials.xlsx,2,24,80,20,0,,,,,0,2,2,2,1,8,20,8,,,,,,,,4.4,816.1529459000012,820.5559882000016,820.5559572200007,0.30488010000044596,820.9997507000007,820.9997507000007,m,0.6566224999987753,825.6005617999981,825.6005617999981,40,3.871,,,sub-047,40,65,700,bloc_loop.csv,2023-09-12_16h24.27.654,PainUncertainty,2022.2.5,144.21815014076125,
grave,moderee,stimuli/330Hz,stimuli/moderee,bloc_3,prob80hthp_12trials.xlsx,2,24,80,20,0,,,,,0,2,2,2,1,9,21,3,,,,,,,,4.3,825.6005617999981,829.9042422999992,829.9042593199999,0.3050489999986894,830.3515646999986,830.3515646999986,n,0.5343307000002824,834.7445560999986,834.7445560999986,10,3.775,,,sub-047,40,65,700,bloc_loop.csv,2023-09-12_16h24.27.654,PainUncertainty,2022.2.5,144.21815014076125,
aigu,forte,stimuli/660Hz,stimuli/forte,bloc_3,prob80hthp_12trials.xlsx,2,24,80,20,0,,,,,0,2,2,2,1,10,22,10,,,,,,,,3.9,834.7445560999986,838.6480090000005,838.6479683199984,0.3052137999984552,839.096368399998,839.096368399998,m,0.6033670999968308,844.1264539000003,844.1264539000003,40,4.358,,,sub-047,40,65,700,bloc_loop.csv,2023-09-12_16h24.27.654,PainUncertainty,2022.2.5,144.21815014076125,
grave,moderee,stimuli/330Hz,stimuli/moderee,bloc_3,prob80hthp_12trials.xlsx,2,24,80,20,0,,,,,0,2,2,2,1,11,23,1,,,,,,,,3.6,844.1264539000003,847.7255590999994,847.7254722199984,0.3051956000017526,848.1697118999982,848.1697118999982,n,0.5521250999991025,852.1998791000005,852.1998791000005,7,3.414,,,sub-047,40,65,700,bloc_loop.csv,2023-09-12_16h24.27.654,PainUncertainty,2022.2.5,144.21815014076125,
grave,moderee,stimuli/330Hz,stimuli/moderee,bloc_4,prob50_50_4trials.xlsx,2,8,50,50,1,,,,,0,3,3,3,0,0,0,0,,,,,,,,3.9,852.1998791000005,856.1014341000009,856.1014822199984,0.3013911000016378,856.5461146000016,856.5461146000016,n,0.5059399999991001,860.7680460999982,860.7680460999982,4,3.651,,,sub-047,40,65,700,bloc_loop.csv,2023-09-12_16h24.27.654,PainUncertainty,2022.2.5,144.21815014076125,
aigu,forte,stimuli/660Hz,stimuli/forte,bloc_4,prob50_50_4trials.xlsx,2,8,50,50,1,,,,,0,3,3,3,0,1,1,3,,,,,,,,4.6,860.7680460999982,865.3667280000009,865.3671536199988,0.3049401999996917,865.8134887999986,865.8134887999986,m,0.6177102999972703,869.6406356000007,869.6406356000007,41,3.143,,,sub-047,40,65,700,bloc_loop.csv,2023-09-12_16h24.27.654,PainUncertainty,2022.2.5,144.21815014076125,
grave,forte,stimuli/330Hz,stimuli/forte,bloc_4,prob50_50_4trials.xlsx,2,8,50,50,1,,,,,0,3,3,3,0,2,2,1,,,,,,,,4.9,869.6406356000007,874.5411653999981,874.5412939200003,0.30503830000088783,874.9852888999994,874.9852888999994,m,0.674943499998335,879.4077954999993,879.4077954999993,45,3.665,,,sub-047,40,65,700,bloc_loop.csv,2023-09-12_16h24.27.654,PainUncertainty,2022.2.5,144.21815014076125,
aigu,moderee,stimuli/660Hz,stimuli/moderee,bloc_4,prob50_50_4trials.xlsx,2,8,50,50,1,,,,,0,3,3,3,0,3,3,2,,,,,,,,3,879.4077954999993,882.4109110999998,882.4107496199983,0.29937169999902835,882.8549942999998,882.8549942999998,n,0.6142365999985486,886.9529707000002,886.9529707000002,8,3.428,,,sub-047,40,65,700,bloc_loop.csv,2023-09-12_16h24.27.654,PainUncertainty,2022.2.5,144.21815014076125,
grave,moderee,stimuli/330Hz,stimuli/moderee,bloc_4,prob50_50_4trials.xlsx,2,8,50,50,1,,,,,0,3,3,3,1,0,4,0,,,,,,,,3,886.9529707000002,889.9527926999981,889.9529124199987,0.30473710000296705,890.3974206999992,890.3974206999992,n,0.5419221999982256,892.7865314999981,892.7865314999981,10,1.781,,,sub-047,40,65,700,bloc_loop.csv,2023-09-12_16h24.27.654,PainUncertainty,2022.2.5,144.21815014076125,
aigu,moderee,stimuli/660Hz,stimuli/moderee,bloc_4,prob50_50_4trials.xlsx,2,8,50,50,1,,,,,0,3,3,3,1,1,5,2,,,,,,,,3.3,892.7865314999981,896.0922162999996,896.0923141200008,0.30506289999902947,896.5365947999999,896.5365947999999,n,0.6340057999987039,900.3335799999986,900.3335799999986,6,3.09,,,sub-047,40,65,700,bloc_loop.csv,2023-09-12_16h24.27.654,PainUncertainty,2022.2.5,144.21815014076125,
aigu,forte,stimuli/660Hz,stimuli/forte,bloc_4,prob50_50_4trials.xlsx,2,8,50,50,1,,,,,0,3,3,3,1,2,6,3,,,,,,,,4.2,900.3335799999986,904.5377214,904.5378452199991,0.30514779999793973,904.9818880999992,904.9818880999992,m,0.7322093999973731,912.2730115000013,912.2730115000013,34,6.503,,,sub-047,40,65,700,bloc_loop.csv,2023-09-12_16h24.27.654,PainUncertainty,2022.2.5,144.21815014076125,
grave,forte,stimuli/330Hz,stimuli/forte,bloc_4,prob50_50_4trials.xlsx,2,8,50,50,1,,,,,0,3,3,3,1,3,7,1,,,,,,,,3.6,912.2730115000013,915.872297599999,915.8725025200008,0.30545730000085314,916.319489999998,916.319489999998,m,1.2090128999989247,922.4861462000008,922.4861462000008,42,2.928,,,sub-047,40,65,700,bloc_loop.csv,2023-09-12_16h24.27.654,PainUncertainty,2022.2.5,144.21815014076125,
,,,,bloc_4,prob50_50_4trials.xlsx,2,8,50,50,1,,,,,0,3,3,3,,,,,0,0,0,0,,,,,,,,,,,,,,,,,922.4861462000008,938.0554816000003,sub-047,40,65,700,bloc_loop.csv,2023-09-12_16h24.27.654,PainUncertainty,2022.2.5,144.21815014076125,
grave,forte,stimuli/330Hz,stimuli/forte,bloc_5,prob20hthp_12trials.xlsx,2,24,20,80,0,,,,,0,4,4,4,0,0,0,2,,,,,,,,3,938.8754044999987,941.8758610000004,941.8758656200014,0.3050127999995311,942.3237203999997,942.3237203999997,m,1.011552699997992,947.0102942999983,947.0102942999983,40,3.609,,,sub-047,40,65,700,bloc_loop.csv,2023-09-12_16h24.27.654,PainUncertainty,2022.2.5,144.21815014076125,
grave,forte,stimuli/330Hz,stimuli/forte,bloc_5,prob20hthp_12trials.xlsx,2,24,20,80,0,,,,,0,4,4,4,0,1,1,1,,,,,,,,4.8,947.0102942999983,951.8146177999988,951.8153021199985,0.3045330999993894,952.2629572000005,952.2629572000005,m,0.8607598999988113,958.7921983000015,958.7921983000015,46,5.609,,,sub-047,40,65,700,bloc_loop.csv,2023-09-12_16h24.27.654,PainUncertainty,2022.2.5,144.21815014076125,
grave,forte,stimuli/330Hz,stimuli/forte,bloc_5,prob20hthp_12trials.xlsx,2,24,20,80,0,,,,,0,4,4,4,0,2,2,3,,,,,,,,3.8,958.7921983000015,962.5934610000004,962.5934319199994,0.30504780000046594,963.0372752000003,963.0372752000003,m,0.7191373999958159,967.2007292999988,967.2007292999988,42,3.364,,,sub-047,40,65,700,bloc_loop.csv,2023-09-12_16h24.27.654,PainUncertainty,2022.2.5,144.21815014076125,
aigu,moderee,stimuli/660Hz,stimuli/moderee,bloc_5,prob20hthp_12trials.xlsx,2,24,20,80,0,,,,,0,4,4,4,0,3,3,10,,,,,,,,4.6,967.2007292999988,971.8026420999995,971.8025922200002,0.30511810000098194,972.2507636999981,972.2507636999981,n,0.6243495999988227,975.1609951999999,975.1609951999999,5,2.233,,,sub-047,40,65,700,bloc_loop.csv,2023-09-12_16h24.27.654,PainUncertainty,2022.2.5,144.21815014076125,
grave,moderee,stimuli/330Hz,stimuli/moderee,bloc_5,prob20hthp_12trials.xlsx,2,24,20,80,0,,,,,0,4,4,4,0,4,4,5,,,,,,,,4.9,975.1609951999999,980.0604802999987,980.0605043199982,0.30505099999936647,980.5048645999996,980.5048645999996,n,0.660168699996575,984.1116962999986,984.1116962999986,5,2.892,,,sub-047,40,65,700,bloc_loop.csv,2023-09-12_16h24.27.654,PainUncertainty,2022.2.5,144.21815014076125,
aigu,moderee,stimuli/660Hz,stimuli/moderee,bloc_5,prob20hthp_12trials.xlsx,2,24,20,80,0,,,,,0,4,4,4,0,5,5,7,,,,,,,,3.2,984.1116962999986,987.3120682000008,987.3121627199987,0.3006893999991007,987.7558256000011,987.7558256000011,n,0.5506664999993518,993.5782499000015,993.5782499000015,6,5.18,,,sub-047,40,65,700,bloc_loop.csv,2023-09-12_16h24.27.654,PainUncertainty,2022.2.5,144.21815014076125,
grave,forte,stimuli/330Hz,stimuli/forte,bloc_5,prob20hthp_12trials.xlsx,2,24,20,80,0,,,,,0,4,4,4,0,6,6,0,,,,,,,,4.4,993.5782499000015,997.9792438000004,997.9793856199983,0.30509109999911743,998.4235847999989,998.4235847999989,m,0.587703799999872,1001.6981678999982,1001.6981678999982,41,2.614,,,sub-047,40,65,700,bloc_loop.csv,2023-09-12_16h24.27.654,PainUncertainty,2022.2.5,144.21815014076125,
aigu,moderee,stimuli/660Hz,stimuli/moderee,bloc_5,prob20hthp_12trials.xlsx,2,24,20,80,0,,,,,0,4,4,4,0,7,7,8,,,,,,,,3.3,1001.6981678999982,1005.001019299998,1005.0010572200015,0.3051359999990382,1005.4453434999996,1005.4453434999996,n,0.642252899997402,1009.2916129000005,1009.2916129000005,10,3.127,,,sub-047,40,65,700,bloc_loop.csv,2023-09-12_16h24.27.654,PainUncertainty,2022.2.5,144.21815014076125,
grave,forte,stimuli/330Hz,stimuli/forte,bloc_5,prob20hthp_12trials.xlsx,2,24,20,80,0,,,,,0,4,4,4,0,8,8,4,,,,,,,,3.6,1009.2916129000005,1012.8907341999984,1012.8907513199999,0.30522449999989476,1013.336686300001,1013.336686300001,m,0.9627164000012272,1020.4631613999991,1020.4631613999991,32,6.115,,,sub-047,40,65,700,bloc_loop.csv,2023-09-12_16h24.27.654,PainUncertainty,2022.2.5,144.21815014076125,
aigu,forte,stimuli/660Hz,stimuli/forte,bloc_5,prob20hthp_12trials.xlsx,2,24,20,80,0,,,,,0,4,4,4,0,9,9,11,,,,,,,,4.7,1020.4631613999991,1025.163321,1025.1633698199992,0.30522130000099423,1025.6112213999986,1025.6112213999986,m,0.9089122999976098,1029.1610705999992,1029.1610705999992,42,2.559,,,sub-047,40,65,700,bloc_loop.csv,2023-09-12_16h24.27.654,PainUncertainty,2022.2.5,144.21815014076125,
aigu,moderee,stimuli/660Hz,stimuli/moderee,bloc_5,prob20hthp_12trials.xlsx,2,24,20,80,0,,,,,0,4,4,4,0,10,10,6,,,,,,,,5,1029.1610705999992,1034.1641273999994,1034.1640758200017,0.30518449999726727,1034.6081921000005,1034.6081921000005,n,0.574909299997671,1040.0804672000013,1040.0804672000013,6,4.831,,,sub-047,40,65,700,bloc_loop.csv,2023-09-12_16h24.27.654,PainUncertainty,2022.2.5,144.21815014076125,
aigu,moderee,stimuli/660Hz,stimuli/moderee,bloc_5,prob20hthp_12trials.xlsx,2,24,20,80,0,,,,,0,4,4,4,0,11,11,9,,,,,,,,3.1,1040.0804672000013,1043.1860258000015,1043.1861240199985,0.30498870000155875,1043.6339711,1043.6339711,n,0.5278556999983266,1048.1687705000004,1048.1687705000004,5,3.927,,,sub-047,40,65,700,bloc_loop.csv,2023-09-12_16h24.27.654,PainUncertainty,2022.2.5,144.21815014076125,
grave,forte,stimuli/330Hz,stimuli/forte,bloc_5,prob20hthp_12trials.xlsx,2,24,20,80,0,,,,,0,4,4,4,1,0,12,0,,,,,,,,3.6,1048.1687705000004,1051.7706605999992,1051.77084722,0.3050156000026618,1052.2184677000005,1052.2184677000005,m,0.8028994999986026,1057.2302826000014,1057.2302826000014,39,4.13,,,sub-047,40,65,700,bloc_loop.csv,2023-09-12_16h24.27.654,PainUncertainty,2022.2.5,144.21815014076125,
aigu,moderee,stimuli/660Hz,stimuli/moderee,bloc_5,prob20hthp_12trials.xlsx,2,24,20,80,0,,,,,0,4,4,4,1,1,13,8,,,,,,,,4.9,1057.2302826000014,1062.1330804999998,1062.133191319998,0.30033629999888944,1062.5774482000015,1062.5774482000015,n,0.5484187999973074,1067.4929637999994,1067.4929637999994,6,4.318,,,sub-047,40,65,700,bloc_loop.csv,2023-09-12_16h24.27.654,PainUncertainty,2022.2.5,144.21815014076125,
grave,moderee,stimuli/330Hz,stimuli/moderee,bloc_5,prob20hthp_12trials.xlsx,2,24,20,80,0,,,,,0,4,4,4,1,2,14,5,,,,,,,,3.4,1067.4929637999994,1070.897903000001,1070.8978600199996,0.30517429999963497,1071.3451427,1071.3451427,n,0.5304534999995667,1074.5289140999994,1074.5289140999994,5,2.573,,,sub-047,40,65,700,bloc_loop.csv,2023-09-12_16h24.27.654,PainUncertainty,2022.2.5,144.21815014076125,
grave,forte,stimuli/330Hz,stimuli/forte,bloc_5,prob20hthp_12trials.xlsx,2,24,20,80,0,,,,,0,4,4,4,1,3,15,4,,,,,,,,4.8,1074.5289140999994,1079.3292016999985,1079.3292506199984,0.30459399999745074,1079.7732982000016,1079.7732982000016,m,0.7029099999963364,1083.7508414000004,1083.7508414000004,43,3.205,,,sub-047,40,65,700,bloc_loop.csv,2023-09-12_16h24.27.654,PainUncertainty,2022.2.5,144.21815014076125,
aigu,moderee,stimuli/660Hz,stimuli/moderee,bloc_5,prob20hthp_12trials.xlsx,2,24,20,80,0,,,,,0,4,4,4,1,4,16,9,,,,,,,,4.7,1083.7508414000004,1088.4551595000012,1088.4551936200012,0.30520099999921513,1088.9065045999996,1088.9065045999996,n,0.5096269999958167,1092.0647715999985,1092.0647715999985,12,2.565,,,sub-047,40,65,700,bloc_loop.csv,2023-09-12_16h24.27.654,PainUncertainty,2022.2.5,144.21815014076125,
aigu,forte,stimuli/660Hz,stimuli/forte,bloc_5,prob20hthp_12trials.xlsx,2,24,20,80,0,,,,,0,4,4,4,1,5,17,11,,,,,,,,4.6,1092.0647715999985,1096.6647002999998,1096.6648780199982,0.3047785000017029,1097.1086317000008,1097.1086317000008,m,0.7313919000007445,1102.118091799999,1102.118091799999,43,4.219,,,sub-047,40,65,700,bloc_loop.csv,2023-09-12_16h24.27.654,PainUncertainty,2022.2.5,144.21815014076125,
grave,forte,stimuli/330Hz,stimuli/forte,bloc_5,prob20hthp_12trials.xlsx,2,24,20,80,0,,,,,0,4,4,4,1,6,18,1,,,,,,,,3.9,1102.118091799999,1106.0197838999993,1106.0197342200015,0.3054805000028864,1106.4683301000005,1106.4683301000005,m,0.6760461999983818,1111.8069520999998,1111.8069520999998,43,4.601,,,sub-047,40,65,700,bloc_loop.csv,2023-09-12_16h24.27.654,PainUncertainty,2022.2.5,144.21815014076125,
grave,forte,stimuli/330Hz,stimuli/forte,bloc_5,prob20hthp_12trials.xlsx,2,24,20,80,0,,,,,0,4,4,4,1,7,19,2,,,,,,,,3.4,1111.8069520999998,1115.2083228999982,1115.2083692200001,0.3055725000012899,1115.657565999998,1115.657565999998,m,0.672899299999699,1119.3351551000014,1119.3351551000014,45,2.934,,,sub-047,40,65,700,bloc_loop.csv,2023-09-12_16h24.27.654,PainUncertainty,2022.2.5,144.21815014076125,
aigu,moderee,stimuli/660Hz,stimuli/moderee,bloc_5,prob20hthp_12trials.xlsx,2,24,20,80,0,,,,,0,4,4,4,1,8,20,10,,,,,,,,3.5,1119.3351551000014,1122.8348301000005,1122.834768720001,0.30466379999779747,1123.278704299999,1123.278704299999,n,0.5690180999954464,1127.2321047000005,1127.2321047000005,6,3.328,,,sub-047,40,65,700,bloc_loop.csv,2023-09-12_16h24.27.654,PainUncertainty,2022.2.5,144.21815014076125,
aigu,moderee,stimuli/660Hz,stimuli/moderee,bloc_5,prob20hthp_12trials.xlsx,2,24,20,80,0,,,,,0,4,4,4,1,9,21,6,,,,,,,,3.3,1127.2321047000005,1130.5364448,1130.5365758199994,0.30502029999843217,1130.9809437000004,1130.9809437000004,n,0.5657638999982737,1135.6740351000008,1135.6740351000008,2,4.053,,,sub-047,40,65,700,bloc_loop.csv,2023-09-12_16h24.27.654,PainUncertainty,2022.2.5,144.21815014076125,
grave,forte,stimuli/330Hz,stimuli/forte,bloc_5,prob20hthp_12trials.xlsx,2,24,20,80,0,,,,,0,4,4,4,1,10,22,3,,,,,,,,4.9,1135.6740351000008,1140.579290900001,1140.5793652200016,0.30525549999947543,1141.0234567000007,1141.0234567000007,m,0.6511974999993981,1145.9217892999986,1145.9217892999986,45,4.171,,,sub-047,40,65,700,bloc_loop.csv,2023-09-12_16h24.27.654,PainUncertainty,2022.2.5,144.21815014076125,
aigu,moderee,stimuli/660Hz,stimuli/moderee,bloc_5,prob20hthp_12trials.xlsx,2,24,20,80,0,,,,,0,4,4,4,1,11,23,7,,,,,,,,4.5,1145.9217892999986,1150.4277361999993,1150.427797519999,0.30501210000147694,1150.8719682999981,1150.8719682999981,n,0.5690931999961322,1154.1545823000015,1154.1545823000015,3,2.628,,,sub-047,40,65,700,bloc_loop.csv,2023-09-12_16h24.27.654,PainUncertainty,2022.2.5,144.21815014076125,
aigu,forte,stimuli/660Hz,stimuli/forte,bloc_6,prob50_50_4trials.xlsx,2,8,50,50,0,,,,,0,5,5,5,0,0,0,3,,,,,,,,4.3,1154.1545823000015,1158.456471900001,1158.4564669200015,0.30500240000037593,1158.9006225999983,1158.9006225999983,m,0.5807309000010719,1163.2652759000011,1163.2652759000011,44,3.704,,,sub-047,40,65,700,bloc_loop.csv,2023-09-12_16h24.27.654,PainUncertainty,2022.2.5,144.21815014076125,
aigu,moderee,stimuli/660Hz,stimuli/moderee,bloc_6,prob50_50_4trials.xlsx,2,8,50,50,0,,,,,0,5,5,5,0,1,1,2,,,,,,,,3.3,1163.2652759000011,1166.5685349999985,1166.56854782,0.30504389999987325,1167.0171088999996,1167.0171088999996,n,0.6036989999993239,1172.2961837000003,1172.2961837000003,20,4.616,,,sub-047,40,65,700,bloc_loop.csv,2023-09-12_16h24.27.654,PainUncertainty,2022.2.5,144.21815014076125,
grave,moderee,stimuli/330Hz,stimuli/moderee,bloc_6,prob50_50_4trials.xlsx,2,8,50,50,0,,,,,0,5,5,5,0,2,2,0,,,,,,,,3.7,1172.2961837000003,1176.000069499998,1176.0000699199998,0.3052117000006547,1176.4442729000002,1176.4442729000002,n,0.5979760999980499,1180.003005999999,1180.003005999999,5,2.892,,,sub-047,40,65,700,bloc_loop.csv,2023-09-12_16h24.27.654,PainUncertainty,2022.2.5,144.21815014076125,
grave,forte,stimuli/330Hz,stimuli/forte,bloc_6,prob50_50_4trials.xlsx,2,8,50,50,0,,,,,0,5,5,5,0,3,3,1,,,,,,,,3.2,1180.003005999999,1183.2023693999981,1183.2024697200002,0.3049626000029093,1183.6465806000015,1183.6465806000015,m,0.8365616999981285,1190.4883852999992,1190.4883852999992,34,5.942,,,sub-047,40,65,700,bloc_loop.csv,2023-09-12_16h24.27.654,PainUncertainty,2022.2.5,144.21815014076125,
aigu,forte,stimuli/660Hz,stimuli/forte,bloc_6,prob50_50_4trials.xlsx,2,8,50,50,0,,,,,0,5,5,5,1,0,4,3,,,,,,,,3.9,1190.4883852999992,1194.3912395000007,1194.3911350200003,0.30507809999835445,1194.8354088999986,1194.8354088999986,m,0.6917608000003383,1198.8032822999994,1198.8032822999994,35,3.191,,,sub-047,40,65,700,bloc_loop.csv,2023-09-12_16h24.27.654,PainUncertainty,2022.2.5,144.21815014076125,
grave,moderee,stimuli/330Hz,stimuli/moderee,bloc_6,prob50_50_4trials.xlsx,2,8,50,50,0,,,,,0,5,5,5,1,1,5,0,,,,,,,,4.9,1198.8032822999994,1203.7048106000002,1203.7048699199993,0.30489850000230945,1204.1491889999998,1204.1491889999998,n,0.6176657999967574,1210.167285399999,1210.167285399999,2,5.351,,,sub-047,40,65,700,bloc_loop.csv,2023-09-12_16h24.27.654,PainUncertainty,2022.2.5,144.21815014076125,
aigu,moderee,stimuli/660Hz,stimuli/moderee,bloc_6,prob50_50_4trials.xlsx,2,8,50,50,0,,,,,0,5,5,5,1,2,6,2,,,,,,,,3.9,1210.167285399999,1214.0675893000007,1214.0675299199982,0.30523489999904996,1214.5138872999996,1214.5138872999996,n,0.5747562999968068,1220.9889852999986,1220.9889852999986,0,5.824,,,sub-047,40,65,700,bloc_loop.csv,2023-09-12_16h24.27.654,PainUncertainty,2022.2.5,144.21815014076125,
grave,forte,stimuli/330Hz,stimuli/forte,bloc_6,prob50_50_4trials.xlsx,2,8,50,50,0,,,,,0,5,5,5,1,3,7,1,,,,,,,,3.5,1220.9889852999986,1224.4924414000016,1224.49270752,0.3014498000011372,1224.9373358999983,1224.9373358999983,m,1.132896699997218,1230.0698699999994,1230.0698699999994,31,3.925,,,sub-047,40,65,700,bloc_loop.csv,2023-09-12_16h24.27.654,PainUncertainty,2022.2.5,144.21815014076125,
grave,forte,stimuli/330Hz,stimuli/forte,bloc_7,prob80hthp_12trials.xlsx,2,24,80,20,1,,,,,0,6,6,6,0,0,0,5,,,,,,,,4.4,1230.0698699999994,1234.4724330999998,1234.47256042,0.3048424000007799,1234.916666099998,1234.916666099998,m,0.892147999998997,1239.7731494,1239.7731494,35,3.892,,,sub-047,40,65,700,bloc_loop.csv,2023-09-12_16h24.27.654,PainUncertainty,2022.2.5,144.21815014076125,
grave,moderee,stimuli/330Hz,stimuli/moderee,bloc_7,prob80hthp_12trials.xlsx,2,24,80,20,1,,,,,0,6,6,6,0,1,1,2,,,,,,,,4.8,1239.7731494,1244.5778281999992,1244.57785812,0.3052046999982849,1245.0260314000006,1245.0260314000006,n,0.5715812999987975,1249.1250027999995,1249.1250027999995,1,3.462,,,sub-047,40,65,700,bloc_loop.csv,2023-09-12_16h24.27.654,PainUncertainty,2022.2.5,144.21815014076125,
grave,moderee,stimuli/330Hz,stimuli/moderee,bloc_7,prob80hthp_12trials.xlsx,2,24,80,20,1,,,,,0,6,6,6,0,2,2,1,,,,,,,,3.7,1249.1250027999995,1252.8289253000003,1252.829041419999,0.3049834999983432,1253.272815100001,1253.272815100001,n,0.5225685999976122,1257.2446657,1257.2446657,5,3.379,,,sub-047,40,65,700,bloc_loop.csv,2023-09-12_16h24.27.654,PainUncertainty,2022.2.5,144.21815014076125,
aigu,forte,stimuli/660Hz,stimuli/forte,bloc_7,prob80hthp_12trials.xlsx,2,24,80,20,1,,,,,0,6,6,6,0,3,3,8,,,,,,,,4.3,1257.2446657,1261.5449751000015,1261.544941519999,0.30521370000133174,1261.9890295000005,1261.9890295000005,m,0.864320199998474,1266.6127243999981,1266.6127243999981,44,3.68,,,sub-047,40,65,700,bloc_loop.csv,2023-09-12_16h24.27.654,PainUncertainty,2022.2.5,144.21815014076125,
aigu,moderee,stimuli/660Hz,stimuli/moderee,bloc_7,prob80hthp_12trials.xlsx,2,24,80,20,1,,,,,0,6,6,6,0,4,4,11,,,,,,,,3.3,1266.6127243999981,1269.9144178999995,1269.9145102199989,0.3047962999989977,1270.3581283999993,1270.3581283999993,n,0.7365277999961108,1275.3235782999982,1275.3235782999982,2,4.178,,,sub-047,40,65,700,bloc_loop.csv,2023-09-12_16h24.27.654,PainUncertainty,2022.2.5,144.21815014076125,
grave,moderee,stimuli/330Hz,stimuli/moderee,bloc_7,prob80hthp_12trials.xlsx,2,24,80,20,1,,,,,0,6,6,6,0,5,5,4,,,,,,,,3.7,1275.3235782999982,1279.0265024,1279.0274518199992,0.29945609999776934,1279.4708575000004,1279.4708575000004,n,0.5672618999960832,1282.407960299999,1282.407960299999,7,2.288,,,sub-047,40,65,700,bloc_loop.csv,2023-09-12_16h24.27.654,PainUncertainty,2022.2.5,144.21815014076125,
aigu,forte,stimuli/660Hz,stimuli/forte,bloc_7,prob80hthp_12trials.xlsx,2,24,80,20,1,,,,,0,6,6,6,0,6,6,6,,,,,,,,4,1282.407960299999,1286.4089222000002,1286.409040719999,0.3048739999976533,1286.856885199999,1286.856885199999,m,1.1924009999966074,1292.111312699999,1292.111312699999,40,3.975,,,sub-047,40,65,700,bloc_loop.csv,2023-09-12_16h24.27.654,PainUncertainty,2022.2.5,144.21815014076125,
grave,moderee,stimuli/330Hz,stimuli/moderee,bloc_7,prob80hthp_12trials.xlsx,2,24,80,20,1,,,,,0,6,6,6,0,7,7,3,,,,,,,,3.6,1292.111312699999,1295.7156117000013,1295.7156333200007,0.30515620000005583,1296.1603013999993,1296.1603013999993,n,0.8056239999968966,1301.0148507999984,1301.0148507999984,1,3.969,,,sub-047,40,65,700,bloc_loop.csv,2023-09-12_16h24.27.654,PainUncertainty,2022.2.5,144.21815014076125,
aigu,forte,stimuli/660Hz,stimuli/forte,bloc_7,prob80hthp_12trials.xlsx,2,24,80,20,1,,,,,0,6,6,6,0,8,8,7,,,,,,,,3.8,1301.0148507999984,1304.813880400001,1304.8139683199995,0.30513910000081523,1305.2618661999986,1305.2618661999986,m,0.9736693000013474,1310.4619562000007,1310.4619562000007,40,4.173,,,sub-047,40,65,700,bloc_loop.csv,2023-09-12_16h24.27.654,PainUncertainty,2022.2.5,144.21815014076125,
aigu,forte,stimuli/660Hz,stimuli/forte,bloc_7,prob80hthp_12trials.xlsx,2,24,80,20,1,,,,,0,6,6,6,0,9,9,10,,,,,,,,4.8,1310.4619562000007,1315.2668262000007,1315.26702842,0.3050495999996201,1315.712775,1315.712775,m,0.896319699997548,1319.6041003999999,1319.6041003999999,46,2.927,,,sub-047,40,65,700,bloc_loop.csv,2023-09-12_16h24.27.654,PainUncertainty,2022.2.5,144.21815014076125,
grave,moderee,stimuli/330Hz,stimuli/moderee,bloc_7,prob80hthp_12trials.xlsx,2,24,80,20,1,,,,,0,6,6,6,0,10,10,0,,,,,,,,4.1,1319.6041003999999,1323.7055188000013,1323.7054897200003,0.30511639999895124,1324.152791299999,1324.152791299999,n,0.5944894999956887,1327.693972000001,1327.693972000001,12,2.878,,,sub-047,40,65,700,bloc_loop.csv,2023-09-12_16h24.27.654,PainUncertainty,2022.2.5,144.21815014076125,
aigu,forte,stimuli/660Hz,stimuli/forte,bloc_7,prob80hthp_12trials.xlsx,2,24,80,20,1,,,,,0,6,6,6,0,11,11,9,,,,,,,,4.1,1327.693972000001,1331.7961165999986,1331.7961685199996,0.30556280000018887,1332.245541799999,1332.245541799999,m,0.9131641999993008,1338.1323219000005,1338.1323219000005,30,4.914,,,sub-047,40,65,700,bloc_loop.csv,2023-09-12_16h24.27.654,PainUncertainty,2022.2.5,144.21815014076125,
aigu,forte,stimuli/660Hz,stimuli/forte,bloc_7,prob80hthp_12trials.xlsx,2,24,80,20,1,,,,,0,6,6,6,1,0,12,10,,,,,,,,5,1338.1323219000005,1343.1378947000012,1343.1379837200009,0.30558770000061486,1343.5848483000009,1343.5848483000009,m,1.2584877000008419,1348.5392509999983,1348.5392509999983,44,3.629,,,sub-047,40,65,700,bloc_loop.csv,2023-09-12_16h24.27.654,PainUncertainty,2022.2.5,144.21815014076125,
grave,moderee,stimuli/330Hz,stimuli/moderee,bloc_7,prob80hthp_12trials.xlsx,2,24,80,20,1,,,,,0,6,6,6,1,1,13,1,,,,,,,,4.9,1348.5392509999983,1353.4448653,1353.446312419998,0.30411069999900064,1353.8933227999987,1353.8933227999987,n,0.6412853999972867,1357.9562984000004,1357.9562984000004,5,3.343,,,sub-047,40,65,700,bloc_loop.csv,2023-09-12_16h24.27.654,PainUncertainty,2022.2.5,144.21815014076125,
aigu,forte,stimuli/660Hz,stimuli/forte,bloc_7,prob80hthp_12trials.xlsx,2,24,80,20,1,,,,,0,6,6,6,1,2,14,9,,,,,,,,3.8,1357.9562984000004,1361.7586641999987,1361.7586719200015,0.3047885000014503,1362.2095277000008,1362.2095277000008,m,0.6666534999967553,1367.7366618999986,1367.7366618999986,45,4.809,,,sub-047,40,65,700,bloc_loop.csv,2023-09-12_16h24.27.654,PainUncertainty,2022.2.5,144.21815014076125,
grave,forte,stimuli/330Hz,stimuli/forte,bloc_7,prob80hthp_12trials.xlsx,2,24,80,20,1,,,,,0,6,6,6,1,3,15,5,,,,,,,,4.5,1367.7366618999986,1372.238777399998,1372.2387490199987,0.30529089999981807,1372.6864026000003,1372.6864026000003,m,0.9073250000001281,1381.1971053999987,1381.1971053999987,45,7.532,,,sub-047,40,65,700,bloc_loop.csv,2023-09-12_16h24.27.654,PainUncertainty,2022.2.5,144.21815014076125,
grave,moderee,stimuli/330Hz,stimuli/moderee,bloc_7,prob80hthp_12trials.xlsx,2,24,80,20,1,,,,,0,6,6,6,1,4,16,3,,,,,,,,4.5,1381.1971053999987,1385.6983637999983,1385.6985378200013,0.3048899999994319,1386.1425617999994,1386.1425617999994,n,0.6053847000002861,1389.8471251999981,1389.8471251999981,8,3.019,,,sub-047,40,65,700,bloc_loop.csv,2023-09-12_16h24.27.654,PainUncertainty,2022.2.5,144.21815014076125,
aigu,forte,stimuli/660Hz,stimuli/forte,bloc_7,prob80hthp_12trials.xlsx,2,24,80,20,1,,,,,0,6,6,6,1,5,17,7,,,,,,,,4.7,1389.8471251999981,1394.5466689999994,1394.54677772,0.30490699999791104,1394.990817400001,1394.990817400001,m,0.7278845999971963,1399.5989387000009,1399.5989387000009,42,3.803,,,sub-047,40,65,700,bloc_loop.csv,2023-09-12_16h24.27.654,PainUncertainty,2022.2.5,144.21815014076125,
grave,moderee,stimuli/330Hz,stimuli/moderee,bloc_7,prob80hthp_12trials.xlsx,2,24,80,20,1,,,,,0,6,6,6,1,6,18,4,,,,,,,,5,1399.5989387000009,1404.6034180999995,1404.603450719999,0.3050029000005452,1405.0514986999988,1405.0514986999988,n,1.4328404999978375,1411.9873745000004,1411.9873745000004,16,5.442,,,sub-047,40,65,700,bloc_loop.csv,2023-09-12_16h24.27.654,PainUncertainty,2022.2.5,144.21815014076125,
grave,moderee,stimuli/330Hz,stimuli/moderee,bloc_7,prob80hthp_12trials.xlsx,2,24,80,20,1,,,,,0,6,6,6,1,7,19,2,,,,,,,,4.1,1411.9873745000004,1416.0910134000005,1416.0909489199992,0.30509779999920283,1416.5388340999998,1416.5388340999998,n,0.7898268999961147,1421.0989229000006,1421.0989229000006,11,3.712,,,sub-047,40,65,700,bloc_loop.csv,2023-09-12_16h24.27.654,PainUncertainty,2022.2.5,144.21815014076125,
aigu,moderee,stimuli/660Hz,stimuli/moderee,bloc_7,prob80hthp_12trials.xlsx,2,24,80,20,1,,,,,0,6,6,6,1,8,20,11,,,,,,,,3,1421.0989229000006,1424.0987786000005,1424.0988033200017,0.3054346999997506,1424.543617299998,1424.543617299998,n,0.5925315999993472,1429.410721100001,1429.410721100001,7,4.205,,,sub-047,40,65,700,bloc_loop.csv,2023-09-12_16h24.27.654,PainUncertainty,2022.2.5,144.21815014076125,
aigu,forte,stimuli/660Hz,stimuli/forte,bloc_7,prob80hthp_12trials.xlsx,2,24,80,20,1,,,,,0,6,6,6,1,9,21,6,,,,,,,,3.5,1429.410721100001,1432.912729399999,1432.9128045199984,0.3005520999977307,1433.3589653999989,1433.3589653999989,m,0.6978443999978481,1438.3000518000008,1438.3000518000008,32,4.164,,,sub-047,40,65,700,bloc_loop.csv,2023-09-12_16h24.27.654,PainUncertainty,2022.2.5,144.21815014076125,
grave,moderee,stimuli/330Hz,stimuli/moderee,bloc_7,prob80hthp_12trials.xlsx,2,24,80,20,1,,,,,0,6,6,6,1,10,22,0,,,,,,,,3,1438.3000518000008,1441.3025466,1441.303005819999,0.30065079999985755,1441.7466443000012,1441.7466443000012,n,0.6245691999974952,1444.4540496000009,1444.4540496000009,1,2.011,,,sub-047,40,65,700,bloc_loop.csv,2023-09-12_16h24.27.654,PainUncertainty,2022.2.5,144.21815014076125,
aigu,forte,stimuli/660Hz,stimuli/forte,bloc_7,prob80hthp_12trials.xlsx,2,24,80,20,1,,,,,0,6,6,6,1,11,23,8,,,,,,,,4.8,1444.4540496000009,1449.2543501,1449.2544571199985,0.30514689999836264,1449.698554399998,1449.698554399998,m,1.1779877999979362,1456.5215002000004,1456.5215002000004,41,3.616,,,sub-047,40,65,700,bloc_loop.csv,2023-09-12_16h24.27.654,PainUncertainty,2022.2.5,144.21815014076125,
,,,,bloc_7,prob80hthp_12trials.xlsx,2,24,80,20,1,,,,,0,6,6,6,,,,,0,0,0,0,,,,,,,,,,,,,,,,,1456.5215002000004,1669.1416415999993,sub-047,40,65,700,bloc_loop.csv,2023-09-12_16h24.27.654,PainUncertainty,2022.2.5,144.21815014076125,
aigu,forte,stimuli/660Hz,stimuli/forte,bloc_8,prob50_50_4trials.xlsx,3,12,50,50,0,,,,,0,7,7,7,0,0,0,3,,,,,,,,3.8,1670.6982573999994,1674.5030487000004,1674.5031061199995,0.3050543999997899,1674.9472571000006,1674.9472571000006,m,0.6504646999965189,1679.026623499998,1679.026623499998,38,3.351,,,sub-047,40,65,700,bloc_loop.csv,2023-09-12_16h24.27.654,PainUncertainty,2022.2.5,144.21815014076125,
aigu,moderee,stimuli/660Hz,stimuli/moderee,bloc_8,prob50_50_4trials.xlsx,3,12,50,50,0,,,,,0,7,7,7,0,1,1,2,,,,,,,,4.5,1679.026623499998,1683.5322124000013,1683.5331841199993,0.30027329999938956,1683.9765040999991,1683.9765040999991,n,0.612030499996763,1686.9399898999982,1686.9399898999982,17,2.29,,,sub-047,40,65,700,bloc_loop.csv,2023-09-12_16h24.27.654,PainUncertainty,2022.2.5,144.21815014076125,
grave,moderee,stimuli/330Hz,stimuli/moderee,bloc_8,prob50_50_4trials.xlsx,3,12,50,50,0,,,,,0,7,7,7,0,2,2,0,,,,,,,,4.7,1686.9399898999982,1691.6440885999982,1691.6439432199993,0.3049377999996068,1692.0884404999997,1692.0884404999997,n,0.7163198999987799,1696.6763705999983,1696.6763705999983,14,3.792,,,sub-047,40,65,700,bloc_loop.csv,2023-09-12_16h24.27.654,PainUncertainty,2022.2.5,144.21815014076125,
grave,forte,stimuli/330Hz,stimuli/forte,bloc_8,prob50_50_4trials.xlsx,3,12,50,50,0,,,,,0,7,7,7,0,3,3,1,,,,,,,,4.6,1696.6763705999983,1701.2775574000007,1701.2775391199982,0.3053600999992341,1701.7266477000012,1701.7266477000012,m,0.9172389999985171,1706.3766528999986,1706.3766528999986,42,3.679,,,sub-047,40,65,700,bloc_loop.csv,2023-09-12_16h24.27.654,PainUncertainty,2022.2.5,144.21815014076125,
aigu,forte,stimuli/660Hz,stimuli/forte,bloc_8,prob50_50_4trials.xlsx,3,12,50,50,0,,,,,0,7,7,7,1,0,4,3,,,,,,,,3.3,1706.3766528999986,1709.6813389999988,1709.68136372,0.30044310000084806,1710.1257697,1710.1257697,m,1.1509514999997918,1717.5541287000015,1717.5541287000015,41,6.195,,,sub-047,40,65,700,bloc_loop.csv,2023-09-12_16h24.27.654,PainUncertainty,2022.2.5,144.21815014076125,
aigu,moderee,stimuli/660Hz,stimuli/moderee,bloc_8,prob50_50_4trials.xlsx,3,12,50,50,0,,,,,0,7,7,7,1,1,5,2,,,,,,,,4.7,1717.5541287000015,1722.2592268000008,1722.2597445200015,0.3044826999976067,1722.7077892000016,1722.7077892000016,n,0.6550180000012915,1726.9669738999983,1726.9669738999983,17,3.553,,,sub-047,40,65,700,bloc_loop.csv,2023-09-12_16h24.27.654,PainUncertainty,2022.2.5,144.21815014076125,
grave,moderee,stimuli/330Hz,stimuli/moderee,bloc_8,prob50_50_4trials.xlsx,3,12,50,50,0,,,,,0,7,7,7,1,2,6,0,,,,,,,,3.3,1726.9669738999983,1730.2666537000005,1730.2667451200002,0.304696100000001,1730.7106956999996,1730.7106956999996,n,0.5325053999986267,1734.6418395,1734.6418395,11,3.33,,,sub-047,40,65,700,bloc_loop.csv,2023-09-12_16h24.27.654,PainUncertainty,2022.2.5,144.21815014076125,
grave,forte,stimuli/330Hz,stimuli/forte,bloc_8,prob50_50_4trials.xlsx,3,12,50,50,0,,,,,0,7,7,7,1,3,7,1,,,,,,,,4.3,1734.6418395,1738.941531299999,1738.9415962200007,0.30094909999752417,1739.386179699999,1739.386179699999,m,0.7484327999991365,1745.5598447999982,1745.5598447999982,39,5.348,,,sub-047,40,65,700,bloc_loop.csv,2023-09-12_16h24.27.654,PainUncertainty,2022.2.5,144.21815014076125,
grave,moderee,stimuli/330Hz,stimuli/moderee,bloc_8,prob50_50_4trials.xlsx,3,12,50,50,0,,,,,0,7,7,7,2,0,8,0,,,,,,,,3,1745.5598447999982,1748.5603671999997,1748.5604960200005,0.30493230000138283,1749.0045869999994,1749.0045869999994,n,0.5578304000009666,1752.1149501,1752.1149501,15,2.468,,,sub-047,40,65,700,bloc_loop.csv,2023-09-12_16h24.27.654,PainUncertainty,2022.2.5,144.21815014076125,
aigu,forte,stimuli/660Hz,stimuli/forte,bloc_8,prob50_50_4trials.xlsx,3,12,50,50,0,,,,,0,7,7,7,2,1,9,3,,,,,,,,4,1752.1149501,1756.1167830999984,1756.1170062200006,0.3050999999977648,1756.5649123000003,1756.5649123000003,m,0.7333865000000515,1760.3767705999999,1760.3767705999999,38,3.031,,,sub-047,40,65,700,bloc_loop.csv,2023-09-12_16h24.27.654,PainUncertainty,2022.2.5,144.21815014076125,
grave,forte,stimuli/330Hz,stimuli/forte,bloc_8,prob50_50_4trials.xlsx,3,12,50,50,0,,,,,0,7,7,7,2,2,10,1,,,,,,,,4.5,1760.3767705999999,1764.8821048999998,1764.8822965199986,0.30468779999864637,1765.326071200001,1765.326071200001,m,1.0226287999976194,1770.754439799999,1770.754439799999,42,4.323,,,sub-047,40,65,700,bloc_loop.csv,2023-09-12_16h24.27.654,PainUncertainty,2022.2.5,144.21815014076125,
aigu,moderee,stimuli/660Hz,stimuli/moderee,bloc_8,prob50_50_4trials.xlsx,3,12,50,50,0,,,,,0,7,7,7,2,3,11,2,,,,,,,,3.7,1770.754439799999,1774.4597447000015,1774.4597132200004,0.3004360999984783,1774.9042176000003,1774.9042176000003,n,0.5260405000008177,1778.4245502000012,1778.4245502000012,6,2.94,,,sub-047,40,65,700,bloc_loop.csv,2023-09-12_16h24.27.654,PainUncertainty,2022.2.5,144.21815014076125,
aigu,moderee,stimuli/660Hz,stimuli/moderee,bloc_9,prob20hthp_12trials.xlsx,3,36,80,20,0,,,,,0,8,8,8,0,0,0,8,,,,,,,,4,1778.4245502000012,1782.4260442000013,1782.4260791200002,0.305004400001053,1782.8737103999993,1782.8737103999993,n,0.5567217999996501,1786.6275306999996,1786.6275306999996,2,3.121,,,sub-047,40,65,700,bloc_loop.csv,2023-09-12_16h24.27.654,PainUncertainty,2022.2.5,144.21815014076125,
grave,forte,stimuli/330Hz,stimuli/forte,bloc_9,prob20hthp_12trials.xlsx,3,36,80,20,0,,,,,0,8,8,8,0,1,1,1,,,,,,,,4,1786.6275306999996,1790.6281858000002,1790.6281908200006,0.30494399999952293,1791.0720112999988,1791.0720112999988,m,0.8043314999995346,1794.5235315999998,1794.5235315999998,43,2.581,,,sub-047,40,65,700,bloc_loop.csv,2023-09-12_16h24.27.654,PainUncertainty,2022.2.5,144.21815014076125,
grave,forte,stimuli/330Hz,stimuli/forte,bloc_9,prob20hthp_12trials.xlsx,3,36,80,20,0,,,,,0,8,8,8,0,2,2,2,,,,,,,,3.5,1794.5235315999998,1798.0249968999997,1798.0250239200002,0.3049438999987615,1798.4714247999982,1798.4714247999982,m,0.9079885999999533,1802.2446926000011,1802.2446926000011,44,2.783,,,sub-047,40,65,700,bloc_loop.csv,2023-09-12_16h24.27.654,PainUncertainty,2022.2.5,144.21815014076125,
aigu,moderee,stimuli/660Hz,stimuli/moderee,bloc_9,prob20hthp_12trials.xlsx,3,36,80,20,0,,,,,0,8,8,8,0,3,3,10,,,,,,,,3.4,1802.2446926000011,1805.6504195999987,1805.650450419999,0.2999173999996856,1806.0949389999987,1806.0949389999987,n,0.6647030999993149,1811.6910223999985,1811.6910223999985,17,4.865,,,sub-047,40,65,700,bloc_loop.csv,2023-09-12_16h24.27.654,PainUncertainty,2022.2.5,144.21815014076125,
grave,forte,stimuli/330Hz,stimuli/forte,bloc_9,prob20hthp_12trials.xlsx,3,36,80,20,0,,,,,0,8,8,8,0,4,4,4,,,,,,,,3.1,1811.6910223999985,1814.7903361999997,1814.7904158200006,0.305111500001658,1815.2347685999994,1815.2347685999994,m,0.8385056000006443,1819.7816652000001,1819.7816652000001,40,3.63,,,sub-047,40,65,700,bloc_loop.csv,2023-09-12_16h24.27.654,PainUncertainty,2022.2.5,144.21815014076125,
aigu,moderee,stimuli/660Hz,stimuli/moderee,bloc_9,prob20hthp_12trials.xlsx,3,36,80,20,0,,,,,0,8,8,8,0,5,5,6,,,,,,,,3,1819.7816652000001,1822.7843561000009,1822.7844487199989,0.3053909999980533,1823.2289310999986,1823.2289310999986,n,0.5986927999983891,1829.1803269999982,1829.1803269999982,0,5.295,,,sub-047,40,65,700,bloc_loop.csv,2023-09-12_16h24.27.654,PainUncertainty,2022.2.5,144.21815014076125,
aigu,moderee,stimuli/660Hz,stimuli/moderee,bloc_9,prob20hthp_12trials.xlsx,3,36,80,20,0,,,,,0,8,8,8,0,6,6,7,,,,,,,,4.8,1829.1803269999982,1833.9802894999993,1833.980414620001,0.3047385000027134,1834.4244369000007,1834.4244369000007,n,0.6360467000013159,1840.9466580000008,1840.9466580000008,3,5.824,,,sub-047,40,65,700,bloc_loop.csv,2023-09-12_16h24.27.654,PainUncertainty,2022.2.5,144.21815014076125,
aigu,moderee,stimuli/660Hz,stimuli/moderee,bloc_9,prob20hthp_12trials.xlsx,3,36,80,20,0,,,,,0,8,8,8,0,7,7,9,,,,,,,,3.6,1840.9466580000008,1844.5508109000002,1844.5508831199993,0.30182869999771356,1844.9960150000006,1844.9960150000006,n,0.5347060999993118,1847.8217866000014,1847.8217866000014,5,2.219,,,sub-047,40,65,700,bloc_loop.csv,2023-09-12_16h24.27.654,PainUncertainty,2022.2.5,144.21815014076125,
aigu,forte,stimuli/660Hz,stimuli/forte,bloc_9,prob20hthp_12trials.xlsx,3,36,80,20,0,,,,,0,8,8,8,0,8,8,11,,,,,,,,3.7,1847.8217866000014,1851.5238916999988,1851.5239202199998,0.3050640999972529,1851.9720147000007,1851.9720147000007,m,0.9718769999999495,1855.7642156000002,1855.7642156000002,35,2.753,,,sub-047,40,65,700,bloc_loop.csv,2023-09-12_16h24.27.654,PainUncertainty,2022.2.5,144.21815014076125,
grave,forte,stimuli/330Hz,stimuli/forte,bloc_9,prob20hthp_12trials.xlsx,3,36,80,20,0,,,,,0,8,8,8,0,9,9,3,,,,,,,,3,1855.7642156000002,1858.7678629000002,1858.7679321199982,0.3049874999996973,1859.2120753999989,1859.2120753999989,m,0.7073899999959394,1863.4529302999981,1863.4529302999981,41,3.477,,,sub-047,40,65,700,bloc_loop.csv,2023-09-12_16h24.27.654,PainUncertainty,2022.2.5,144.21815014076125,
grave,forte,stimuli/330Hz,stimuli/forte,bloc_9,prob20hthp_12trials.xlsx,3,36,80,20,0,,,,,0,8,8,8,0,10,10,0,,,,,,,,4,1863.4529302999981,1867.4562793000005,1867.4563591199992,0.3052647000004072,1867.9009356999995,1867.9009356999995,m,0.8369965999991109,1873.8767961999984,1873.8767961999984,42,5.067,,,sub-047,40,65,700,bloc_loop.csv,2023-09-12_16h24.27.654,PainUncertainty,2022.2.5,144.21815014076125,
grave,moderee,stimuli/330Hz,stimuli/moderee,bloc_9,prob20hthp_12trials.xlsx,3,36,80,20,0,,,,,0,8,8,8,0,11,11,5,,,,,,,,4,1873.8767961999984,1877.8811874999992,1877.8811917200007,0.3050559000002977,1878.3252203999982,1878.3252203999982,n,0.6190518999974302,1881.7597935999984,1881.7597935999984,2,2.73,,,sub-047,40,65,700,bloc_loop.csv,2023-09-12_16h24.27.654,PainUncertainty,2022.2.5,144.21815014076125,
grave,forte,stimuli/330Hz,stimuli/forte,bloc_9,prob20hthp_12trials.xlsx,3,36,80,20,0,,,,,0,8,8,8,1,0,12,1,,,,,,,,4.7,1881.7597935999984,1886.4654684999987,1886.4655579200014,0.3050815999995393,1886.9097038,1886.9097038,m,0.8594923999989987,1891.5748991,1891.5748991,38,3.733,,,sub-047,40,65,700,bloc_loop.csv,2023-09-12_16h24.27.654,PainUncertainty,2022.2.5,144.21815014076125,
aigu,moderee,stimuli/660Hz,stimuli/moderee,bloc_9,prob20hthp_12trials.xlsx,3,36,80,20,0,,,,,0,8,8,8,1,1,13,10,,,,,,,,4.6,1891.5748991,1896.1749677000007,1896.1750622199986,0.3054422999994131,1896.623861600001,1896.623861600001,n,0.5263342999969609,1900.7157167000005,1900.7157167000005,11,3.509,,,sub-047,40,65,700,bloc_loop.csv,2023-09-12_16h24.27.654,PainUncertainty,2022.2.5,144.21815014076125,
aigu,moderee,stimuli/660Hz,stimuli/moderee,bloc_9,prob20hthp_12trials.xlsx,3,36,80,20,0,,,,,0,8,8,8,1,2,14,8,,,,,,,,3.3,1900.7157167000005,1904.0161215000007,1904.01606712,0.3053476999994018,1904.4603162999992,1904.4603162999992,n,0.5053780999987794,1908.4210439999988,1908.4210439999988,0,3.4,,,sub-047,40,65,700,bloc_loop.csv,2023-09-12_16h24.27.654,PainUncertainty,2022.2.5,144.21815014076125,
aigu,moderee,stimuli/660Hz,stimuli/moderee,bloc_9,prob20hthp_12trials.xlsx,3,36,80,20,0,,,,,0,8,8,8,1,3,15,6,,,,,,,,3.6,1908.4210439999988,1912.0239876999985,1912.0240090199993,0.3049022999985027,1912.468282599999,1912.468282599999,n,0.6594396000000415,1915.869976099999,1915.869976099999,0,2.692,,,sub-047,40,65,700,bloc_loop.csv,2023-09-12_16h24.27.654,PainUncertainty,2022.2.5,144.21815014076125,
aigu,moderee,stimuli/660Hz,stimuli/moderee,bloc_9,prob20hthp_12trials.xlsx,3,36,80,20,0,,,,,0,8,8,8,1,4,16,9,,,,,,,,3.1,1915.869976099999,1918.969271599999,1918.9694154200013,0.3050567999998748,1919.4134363000012,1919.4134363000012,n,0.6609235999967495,1925.4775888000004,1925.4775888000004,1,5.344,,,sub-047,40,65,700,bloc_loop.csv,2023-09-12_16h24.27.654,PainUncertainty,2022.2.5,144.21815014076125,
grave,moderee,stimuli/330Hz,stimuli/moderee,bloc_9,prob20hthp_12trials.xlsx,3,36,80,20,0,,,,,0,8,8,8,1,5,17,5,,,,,,,,4.8,1925.4775888000004,1930.2837962999984,1930.2835749199992,0.30498110000189627,1930.7300493000002,1930.7300493000002,n,0.7819290999977966,1935.3412267999993,1935.3412267999993,6,3.762,,,sub-047,40,65,700,bloc_loop.csv,2023-09-12_16h24.27.654,PainUncertainty,2022.2.5,144.21815014076125,
grave,forte,stimuli/330Hz,stimuli/forte,bloc_9,prob20hthp_12trials.xlsx,3,36,80,20,0,,,,,0,8,8,8,1,6,18,2,,,,,,,,4.8,1935.3412267999993,1940.1458213000005,1940.1483244199997,0.30314459999863175,1940.5947130999994,1940.5947130999994,m,0.8178115999980946,1943.9109188000002,1943.9109188000002,33,2.42,,,sub-047,40,65,700,bloc_loop.csv,2023-09-12_16h24.27.654,PainUncertainty,2022.2.5,144.21815014076125,
aigu,moderee,stimuli/660Hz,stimuli/moderee,bloc_9,prob20hthp_12trials.xlsx,3,36,80,20,0,,,,,0,8,8,8,1,7,19,7,,,,,,,,3.7,1943.9109188000002,1947.6122843999983,1947.612112219999,0.3043991000013193,1948.0557649000002,1948.0557649000002,n,0.5350089999992633,1951.4065607000011,1951.4065607000011,2,2.74,,,sub-047,40,65,700,bloc_loop.csv,2023-09-12_16h24.27.654,PainUncertainty,2022.2.5,144.21815014076125,
grave,forte,stimuli/330Hz,stimuli/forte,bloc_9,prob20hthp_12trials.xlsx,3,36,80,20,0,,,,,0,8,8,8,1,8,20,3,,,,,,,,3.8,1951.4065607000011,1955.2100081999997,1955.2098110199993,0.3048310999984096,1955.6538058000006,1955.6538058000006,m,0.9130352999964089,1959.3991076999991,1959.3991076999991,38,2.774,,,sub-047,40,65,700,bloc_loop.csv,2023-09-12_16h24.27.654,PainUncertainty,2022.2.5,144.21815014076125,
aigu,forte,stimuli/660Hz,stimuli/forte,bloc_9,prob20hthp_12trials.xlsx,3,36,80,20,0,,,,,0,8,8,8,1,9,21,11,,,,,,,,3.7,1959.3991076999991,1963.0993783000013,1963.09956322,0.300487599997723,1963.544155399999,1963.544155399999,m,0.7023617000013473,1969.0540484000012,1969.0540484000012,39,4.755,,,sub-047,40,65,700,bloc_loop.csv,2023-09-12_16h24.27.654,PainUncertainty,2022.2.5,144.21815014076125,
grave,forte,stimuli/330Hz,stimuli/forte,bloc_9,prob20hthp_12trials.xlsx,3,36,80,20,0,,,,,0,8,8,8,1,10,22,4,,,,,,,,3.4,1969.0540484000012,1972.4547696000009,1972.4548054199993,0.3051032999974268,1972.8989426000007,1972.8989426000007,m,0.6977122999960557,1977.750398799999,1977.750398799999,40,4.099,,,sub-047,40,65,700,bloc_loop.csv,2023-09-12_16h24.27.654,PainUncertainty,2022.2.5,144.21815014076125,
grave,forte,stimuli/330Hz,stimuli/forte,bloc_9,prob20hthp_12trials.xlsx,3,36,80,20,0,,,,,0,8,8,8,1,11,23,0,,,,,,,,3.3,1977.750398799999,1981.0529977000006,1981.053078220001,0.30481280000094557,1981.5016203000014,1981.5016203000014,m,0.8425873999985924,1986.7824413999988,1986.7824413999988,45,4.379,,,sub-047,40,65,700,bloc_loop.csv,2023-09-12_16h24.27.654,PainUncertainty,2022.2.5,144.21815014076125,
grave,forte,stimuli/330Hz,stimuli/forte,bloc_9,prob20hthp_12trials.xlsx,3,36,80,20,0,,,,,0,8,8,8,2,0,24,4,,,,,,,,4.9,1986.7824413999988,1991.6861664999997,1991.6862740199983,0.30493599999681464,1992.1306326999984,1992.1306326999984,m,1.0820796999978484,1996.373677399999,1996.373677399999,46,3.101,,,sub-047,40,65,700,bloc_loop.csv,2023-09-12_16h24.27.654,PainUncertainty,2022.2.5,144.21815014076125,
aigu,forte,stimuli/660Hz,stimuli/forte,bloc_9,prob20hthp_12trials.xlsx,3,36,80,20,0,,,,,0,8,8,8,2,1,25,11,,,,,,,,4.4,1996.373677399999,2000.7774772000012,2000.7775117200006,0.3050115999976697,2001.2242159999987,2001.2242159999987,m,0.9202789000009943,2006.940269300001,2006.940269300001,45,4.745,,,sub-047,40,65,700,bloc_loop.csv,2023-09-12_16h24.27.654,PainUncertainty,2022.2.5,144.21815014076125,
grave,forte,stimuli/330Hz,stimuli/forte,bloc_9,prob20hthp_12trials.xlsx,3,36,80,20,0,,,,,0,8,8,8,2,2,26,0,,,,,,,,4.6,2006.940269300001,2011.5426939999998,2011.5426951199995,0.305017400001816,2011.9868253999994,2011.9868253999994,m,0.9637193999988085,2015.9901742000002,2015.9901742000002,44,2.963,,,sub-047,40,65,700,bloc_loop.csv,2023-09-12_16h24.27.654,PainUncertainty,2022.2.5,144.21815014076125,
aigu,moderee,stimuli/660Hz,stimuli/moderee,bloc_9,prob20hthp_12trials.xlsx,3,36,80,20,0,,,,,0,8,8,8,2,3,27,7,,,,,,,,4.6,2015.9901742000002,2020.5927540999983,2020.5926818199994,0.3051536999992095,2021.0404043999988,2021.0404043999988,n,0.9415591999968456,2025.9154129999988,2025.9154129999988,3,3.879,,,sub-047,40,65,700,bloc_loop.csv,2023-09-12_16h24.27.654,PainUncertainty,2022.2.5,144.21815014076125,
grave,moderee,stimuli/330Hz,stimuli/moderee,bloc_9,prob20hthp_12trials.xlsx,3,36,80,20,0,,,,,0,8,8,8,2,4,28,5,,,,,,,,3,2025.9154129999988,2028.9199469000014,2028.9199622200001,0.3051917999982834,2029.3639094999999,2029.3639094999999,n,0.48500079999575973,2031.560536699999,2031.560536699999,4,1.643,,,sub-047,40,65,700,bloc_loop.csv,2023-09-12_16h24.27.654,PainUncertainty,2022.2.5,144.21815014076125,
grave,forte,stimuli/330Hz,stimuli/forte,bloc_9,prob20hthp_12trials.xlsx,3,36,80,20,0,,,,,0,8,8,8,2,5,29,3,,,,,,,,4.6,2031.560536699999,2036.1642097000004,2036.1639311199986,0.3052858999981254,2036.6116895999985,2036.6116895999985,m,0.8915996999967319,2039.9849503000005,2039.9849503000005,41,2.406,,,sub-047,40,65,700,bloc_loop.csv,2023-09-12_16h24.27.654,PainUncertainty,2022.2.5,144.21815014076125,
aigu,moderee,stimuli/660Hz,stimuli/moderee,bloc_9,prob20hthp_12trials.xlsx,3,36,80,20,0,,,,,0,8,8,8,2,6,30,6,,,,,,,,4.6,2039.9849503000005,2044.5885648000003,2044.5885363200002,0.30496949999724166,2045.0324962000013,2045.0324962000013,n,0.6282373999965785,2047.6404397000006,2047.6404397000006,10,1.919,,,sub-047,40,65,700,bloc_loop.csv,2023-09-12_16h24.27.654,PainUncertainty,2022.2.5,144.21815014076125,
aigu,moderee,stimuli/660Hz,stimuli/moderee,bloc_9,prob20hthp_12trials.xlsx,3,36,80,20,0,,,,,0,8,8,8,2,7,31,8,,,,,,,,3.9,2047.6404397000006,2051.5404426999994,2051.5405677200006,0.3021387999979197,2051.9854143999983,2051.9854143999983,n,0.7048666999980924,2058.6879512000014,2058.6879512000014,6,5.921,,,sub-047,40,65,700,bloc_loop.csv,2023-09-12_16h24.27.654,PainUncertainty,2022.2.5,144.21815014076125,
grave,forte,stimuli/330Hz,stimuli/forte,bloc_9,prob20hthp_12trials.xlsx,3,36,80,20,0,,,,,0,8,8,8,2,8,32,2,,,,,,,,3.6,2058.6879512000014,2062.292324099999,2062.29240512,0.304660400001012,2062.7364162999984,2062.7364162999984,m,0.7483252999991237,2067.0950255999996,2067.0950255999996,37,3.554,,,sub-047,40,65,700,bloc_loop.csv,2023-09-12_16h24.27.654,PainUncertainty,2022.2.5,144.21815014076125,
grave,forte,stimuli/330Hz,stimuli/forte,bloc_9,prob20hthp_12trials.xlsx,3,36,80,20,0,,,,,0,8,8,8,2,9,33,1,,,,,,,,5,2067.0950255999996,2072.098519700001,2072.098482720002,0.30522609999752603,2072.5431562000012,2072.5431562000012,m,0.7542158999967796,2076.6094123000003,2076.6094123000003,42,3.233,,,sub-047,40,65,700,bloc_loop.csv,2023-09-12_16h24.27.654,PainUncertainty,2022.2.5,144.21815014076125,
aigu,moderee,stimuli/660Hz,stimuli/moderee,bloc_9,prob20hthp_12trials.xlsx,3,36,80,20,0,,,,,0,8,8,8,2,10,34,9,,,,,,,,3.4,2076.6094123000003,2080.0091853999984,2080.0093498200013,0.3047251000025426,2080.453898399999,2080.453898399999,n,0.4795068999992509,2085.799970100001,2085.799970100001,8,4.796,,,sub-047,40,65,700,bloc_loop.csv,2023-09-12_16h24.27.654,PainUncertainty,2022.2.5,144.21815014076125,
aigu,moderee,stimuli/660Hz,stimuli/moderee,bloc_9,prob20hthp_12trials.xlsx,3,36,80,20,0,,,,,0,8,8,8,2,11,35,10,,,,,,,,4.4,2085.799970100001,2090.2051807999997,2090.205177320001,0.30505669999911333,2090.6518160999985,2090.6518160999985,n,0.6655146999983117,2093.0031595,2093.0031595,5,1.655,,,sub-047,40,65,700,bloc_loop.csv,2023-09-12_16h24.27.654,PainUncertainty,2022.2.5,144.21815014076125,
