cue_,stimulus_,cue_fichier,stimulus_fichier,block_name,block_trials_file,block_n_reps,block_ntrials,block_prob_highP_highT,block_prob_highP_lowT,block_pause_after,Bloc_essai.thisRepN,Bloc_essai.thisTrialN,Bloc_essai.thisN,Bloc_essai.thisIndex,blocks.thisRepN,blocks.thisTrialN,blocks.thisN,blocks.thisIndex,trials.thisRepN,trials.thisTrialN,trials.thisN,trials.thisIndex,pause_loop.thisRepN,pause_loop.thisTrialN,pause_loop.thisN,pause_loop.thisIndex,key_resp_5.started,start_calib.started,key_resp_2.started,ISI_duration,pause.started,pause.stopped,cue.started,ISI.started,choice_pain.started,Choice.started,choice_pain.keys,choice_pain.rt,main_text.started,confirm_text.started,ratingScale.response,ratingScale.rt,key_resp_3.started,key_resp_6.started,participant,low_ma,high_ma,failsafe_ma,block_file,date,expName,psychopyVersion,frameRate,
grave,moderee,stimuli/330Hz,stimuli/moderee,,,,,,,,0,0,0,0,,,,,,,,,,,,,30.475230900000042,227.15720020000026,252.09094809999988,3.2,281.8017319999999,285.0146085000001,285.01866536000017,0.3071690000001581,285.4561370000001,285.4561370000001,m,2.348377899999832,292.79131989999996,292.79131989999996,51,4.924,,,sub-048,55,85,700,bloc_loop.csv,2023-09-14_09h28.21.562,PainUncertainty,2022.2.5,143.2502625063379,
aigu,forte,stimuli/660Hz,stimuli/forte,,,,,,,,0,1,1,3,,,,,,,,,,,,,,,,4.3,292.79131989999996,297.09972229999994,297.1037531400001,0.3048140999999305,297.54061809999985,297.54061809999985,m,1.9924572999998418,305.7204993999999,305.7204993999999,68,6.13,,,sub-048,55,85,700,bloc_loop.csv,2023-09-14_09h28.21.562,PainUncertainty,2022.2.5,143.2502625063379,
aigu,moderee,stimuli/660Hz,stimuli/moderee,,,,,,,,0,2,2,2,,,,,,,,,,,,,,,,3.8,305.7204993999999,309.5215268000002,309.5214623199999,0.3053313000000344,309.96600579999995,309.96600579999995,n,1.5528184999998302,314.5930247000001,314.5930247000001,30,3.019,,,sub-048,55,85,700,bloc_loop.csv,2023-09-14_09h28.21.562,PainUncertainty,2022.2.5,143.2502625063379,
grave,forte,stimuli/330Hz,stimuli/forte,,,,,,,,0,3,3,1,,,,,,,,,,,,,,,,4.4,314.5930247000001,318.9951771000001,318.99520841999987,0.3049280000000181,319.4392114000002,319.4392114000002,m,0.9426441999999042,323.5142068,323.5142068,86,3.107,,,sub-048,55,85,700,bloc_loop.csv,2023-09-14_09h28.21.562,PainUncertainty,2022.2.5,143.2502625063379,
aigu,moderee,stimuli/660Hz,stimuli/moderee,bloc_1,prob20hthp_12trials.xlsx,4,48,20,80,0,,,,,0,0,0,0,0,0,0,8,,,,,,,,4.8,368.2026083999999,373.0083245999999,373.00840362,0.30488470000000234,373.45258839999997,373.45258839999997,n,1.9977247000001626,379.1152035,379.1152035,38,3.609,,,sub-048,55,85,700,bloc_loop.csv,2023-09-14_09h28.21.562,PainUncertainty,2022.2.5,143.2502625063379,
aigu,moderee,stimuli/660Hz,stimuli/moderee,bloc_1,prob20hthp_12trials.xlsx,4,48,20,80,0,,,,,0,0,0,0,0,1,1,9,,,,,,,,4.7,379.1152035,383.81528460000027,383.8153137200001,0.3050880999999208,384.2633294000002,384.2633294000002,n,0.7184250000000247,388.5624656,388.5624656,45,3.518,,,sub-048,55,85,700,bloc_loop.csv,2023-09-14_09h28.21.562,PainUncertainty,2022.2.5,143.2502625063379,
aigu,moderee,stimuli/660Hz,stimuli/moderee,bloc_1,prob20hthp_12trials.xlsx,4,48,20,80,0,,,,,0,0,0,0,0,2,2,10,,,,,,,,4,388.5624656,392.5663948000001,392.56633542000003,0.3051654000000781,393.0105705000001,393.0105705000001,n,0.8877177999997912,398.2000281999999,398.2000281999999,23,4.241,,,sub-048,55,85,700,bloc_loop.csv,2023-09-14_09h28.21.562,PainUncertainty,2022.2.5,143.2502625063379,
aigu,moderee,stimuli/660Hz,stimuli/moderee,bloc_1,prob20hthp_12trials.xlsx,4,48,20,80,0,,,,,0,0,0,0,0,3,3,7,,,,,,,,3.5,398.2000281999999,401.6994162000001,401.69946582000006,0.30509619999975257,402.14374959999986,402.14374959999986,n,0.8209753999999521,406.75070099999994,406.75070099999994,31,3.72,,,sub-048,55,85,700,bloc_loop.csv,2023-09-14_09h28.21.562,PainUncertainty,2022.2.5,143.2502625063379,
grave,forte,stimuli/330Hz,stimuli/forte,bloc_1,prob20hthp_12trials.xlsx,4,48,20,80,0,,,,,0,0,0,0,0,4,4,2,,,,,,,,3.1,406.75070099999994,409.8530980999999,409.8532056200001,0.30495890000020154,410.29719909999994,410.29719909999994,m,0.7231541000001016,414.5657879999999,414.5657879999999,83,3.497,,,sub-048,55,85,700,bloc_loop.csv,2023-09-14_09h28.21.562,PainUncertainty,2022.2.5,143.2502625063379,
grave,forte,stimuli/330Hz,stimuli/forte,bloc_1,prob20hthp_12trials.xlsx,4,48,20,80,0,,,,,0,0,0,0,0,5,5,4,,,,,,,,3.9,414.5657879999999,418.4653397000002,418.46537422000023,0.30516979999993055,418.9095534000003,418.9095534000003,m,0.7235240999998496,424.85915509999995,424.85915509999995,96,5.171,,,sub-048,55,85,700,bloc_loop.csv,2023-09-14_09h28.21.562,PainUncertainty,2022.2.5,143.2502625063379,
grave,forte,stimuli/330Hz,stimuli/forte,bloc_1,prob20hthp_12trials.xlsx,4,48,20,80,0,,,,,0,0,0,0,0,6,6,3,,,,,,,,4.3,424.85915509999995,429.16101750000007,429.1609603199999,0.3070736999998189,429.61292430000003,429.61292430000003,m,0.8016969999994217,432.22725130000026,432.22725130000026,84,1.761,,,sub-048,55,85,700,bloc_loop.csv,2023-09-14_09h28.21.562,PainUncertainty,2022.2.5,143.2502625063379,
grave,moderee,stimuli/330Hz,stimuli/moderee,bloc_1,prob20hthp_12trials.xlsx,4,48,20,80,0,,,,,0,0,0,0,0,7,7,5,,,,,,,,3.1,432.22725130000026,435.3284291,435.32856652000004,0.3051565999999184,435.77263600000015,435.77263600000015,n,0.654782300000079,438.89210980000007,438.89210980000007,20,2.407,,,sub-048,55,85,700,bloc_loop.csv,2023-09-14_09h28.21.562,PainUncertainty,2022.2.5,143.2502625063379,
grave,forte,stimuli/330Hz,stimuli/forte,bloc_1,prob20hthp_12trials.xlsx,4,48,20,80,0,,,,,0,0,0,0,0,8,8,1,,,,,,,,4.7,438.89210980000007,443.5933844000001,443.59333211999996,0.3055536000001666,444.04305680000016,444.04305680000016,m,1.172501999999895,447.0130466999999,447.0130466999999,88,1.741,,,sub-048,55,85,700,bloc_loop.csv,2023-09-14_09h28.21.562,PainUncertainty,2022.2.5,143.2502625063379,
grave,forte,stimuli/330Hz,stimuli/forte,bloc_1,prob20hthp_12trials.xlsx,4,48,20,80,0,,,,,0,0,0,0,0,9,9,0,,,,,,,,4.6,447.0130466999999,451.61565100000007,451.6155512200002,0.3004926000003252,452.05978240000013,452.05978240000013,m,0.717616899999939,455.8195000999999,455.8195000999999,92,2.977,,,sub-048,55,85,700,bloc_loop.csv,2023-09-14_09h28.21.562,PainUncertainty,2022.2.5,143.2502625063379,
aigu,moderee,stimuli/660Hz,stimuli/moderee,bloc_1,prob20hthp_12trials.xlsx,4,48,20,80,0,,,,,0,0,0,0,0,10,10,6,,,,,,,,4.9,455.8195000999999,460.7207195000001,460.7207941199999,0.30468130000008387,461.16453760000013,461.16453760000013,n,0.7457577999998648,464.2115985999999,464.2115985999999,16,2.239,,,sub-048,55,85,700,bloc_loop.csv,2023-09-14_09h28.21.562,PainUncertainty,2022.2.5,143.2502625063379,
aigu,forte,stimuli/660Hz,stimuli/forte,bloc_1,prob20hthp_12trials.xlsx,4,48,20,80,0,,,,,0,0,0,0,0,11,11,11,,,,,,,,3,464.2115985999999,467.21432460000005,467.21435642,0.30500690000008035,467.6589807999999,467.6589807999999,m,0.8349782000000232,472.6976875999999,472.6976875999999,81,4.144,,,sub-048,55,85,700,bloc_loop.csv,2023-09-14_09h28.21.562,PainUncertainty,2022.2.5,143.2502625063379,
grave,forte,stimuli/330Hz,stimuli/forte,bloc_1,prob20hthp_12trials.xlsx,4,48,20,80,0,,,,,0,0,0,0,1,0,12,2,,,,,,,,4.6,472.6976875999999,477.29923670000017,477.2992241199999,0.30550490000041464,477.747828,477.747828,m,2.0334799999995994,483.35866739999983,483.35866739999983,94,3.51,,,sub-048,55,85,700,bloc_loop.csv,2023-09-14_09h28.21.562,PainUncertainty,2022.2.5,143.2502625063379,
grave,forte,stimuli/330Hz,stimuli/forte,bloc_1,prob20hthp_12trials.xlsx,4,48,20,80,0,,,,,0,0,0,0,1,1,13,3,,,,,,,,4.1,483.35866739999983,487.4597982,487.45980461999983,0.30552269999998316,487.90809960000024,487.90809960000024,m,1.168741399999817,490.3270898999999,490.3270898999999,80,1.199,,,sub-048,55,85,700,bloc_loop.csv,2023-09-14_09h28.21.562,PainUncertainty,2022.2.5,143.2502625063379,
aigu,moderee,stimuli/660Hz,stimuli/moderee,bloc_1,prob20hthp_12trials.xlsx,4,48,20,80,0,,,,,0,0,0,0,1,2,14,7,,,,,,,,4.5,490.3270898999999,494.82867399999986,494.82886972,0.299053400000048,495.27061000000003,495.27061000000003,n,0.7562894999996388,497.71237070000006,497.71237070000006,10,1.628,,,sub-048,55,85,700,bloc_loop.csv,2023-09-14_09h28.21.562,PainUncertainty,2022.2.5,143.2502625063379,
grave,forte,stimuli/330Hz,stimuli/forte,bloc_1,prob20hthp_12trials.xlsx,4,48,20,80,0,,,,,0,0,0,0,1,3,15,1,,,,,,,,3.9,497.71237070000006,501.61421870000004,501.61434532000015,0.30103650000000926,502.0589310999999,502.0589310999999,m,0.618585400000029,506.61432879999984,506.61432879999984,93,3.872,,,sub-048,55,85,700,bloc_loop.csv,2023-09-14_09h28.21.562,PainUncertainty,2022.2.5,143.2502625063379,
aigu,forte,stimuli/660Hz,stimuli/forte,bloc_1,prob20hthp_12trials.xlsx,4,48,20,80,0,,,,,0,0,0,0,1,4,16,11,,,,,,,,3.9,506.61432879999984,510.5180725,510.51809682000015,0.30520560000013575,510.9623494000002,510.9623494000002,m,0.8404473999999027,516.9413144,516.9413144,83,5.072,,,sub-048,55,85,700,bloc_loop.csv,2023-09-14_09h28.21.562,PainUncertainty,2022.2.5,143.2502625063379,
aigu,moderee,stimuli/660Hz,stimuli/moderee,bloc_1,prob20hthp_12trials.xlsx,4,48,20,80,0,,,,,0,0,0,0,1,5,17,8,,,,,,,,3.4,516.9413144,520.3458181000001,520.3457663200002,0.3048902000000453,520.7899304000002,520.7899304000002,n,0.7858941999998024,524.1808418999999,524.1808418999999,9,2.535,,,sub-048,55,85,700,bloc_loop.csv,2023-09-14_09h28.21.562,PainUncertainty,2022.2.5,143.2502625063379,
aigu,moderee,stimuli/660Hz,stimuli/moderee,bloc_1,prob20hthp_12trials.xlsx,4,48,20,80,0,,,,,0,0,0,0,1,6,18,9,,,,,,,,3.2,524.1808418999999,527.3812278,527.3814318200002,0.3049535999998625,527.8254061000002,527.8254061000002,n,0.8066577999998117,533.7387788000001,533.7387788000001,0,5.047,,,sub-048,55,85,700,bloc_loop.csv,2023-09-14_09h28.21.562,PainUncertainty,2022.2.5,143.2502625063379,
aigu,moderee,stimuli/660Hz,stimuli/moderee,bloc_1,prob20hthp_12trials.xlsx,4,48,20,80,0,,,,,0,0,0,0,1,7,19,10,,,,,,,,4.8,533.7387788000001,538.5427113999999,538.5429321199999,0.3052335000002131,538.9906592000002,538.9906592000002,n,0.7207413000000997,543.1367660000001,543.1367660000001,7,3.358,,,sub-048,55,85,700,bloc_loop.csv,2023-09-14_09h28.21.562,PainUncertainty,2022.2.5,143.2502625063379,
grave,moderee,stimuli/330Hz,stimuli/moderee,bloc_1,prob20hthp_12trials.xlsx,4,48,20,80,0,,,,,0,0,0,0,1,8,20,5,,,,,,,,4.7,543.1367660000001,547.8425746000003,547.8424933199999,0.30485219999991386,548.2897547000002,548.2897547000002,n,0.957553199999893,555.2532451000002,555.2532451000002,17,5.942,,,sub-048,55,85,700,bloc_loop.csv,2023-09-14_09h28.21.562,PainUncertainty,2022.2.5,143.2502625063379,
grave,forte,stimuli/330Hz,stimuli/forte,bloc_1,prob20hthp_12trials.xlsx,4,48,20,80,0,,,,,0,0,0,0,1,9,21,0,,,,,,,,3.3,555.2532451000002,558.5606421000002,558.5590871200002,0.3050395000000208,559.0066354999999,559.0066354999999,m,0.7424181999995199,565.6407628000002,565.6407628000002,86,5.83,,,sub-048,55,85,700,bloc_loop.csv,2023-09-14_09h28.21.562,PainUncertainty,2022.2.5,143.2502625063379,
aigu,moderee,stimuli/660Hz,stimuli/moderee,bloc_1,prob20hthp_12trials.xlsx,4,48,20,80,0,,,,,0,0,0,0,1,10,22,6,,,,,,,,4.3,565.6407628000002,569.9423940000001,569.94232302,0.30521340000041164,570.3897919000001,570.3897919000001,n,0.7554602999998679,574.8151634999999,574.8151634999999,2,3.607,,,sub-048,55,85,700,bloc_loop.csv,2023-09-14_09h28.21.562,PainUncertainty,2022.2.5,143.2502625063379,
grave,forte,stimuli/330Hz,stimuli/forte,bloc_1,prob20hthp_12trials.xlsx,4,48,20,80,0,,,,,0,0,0,0,1,11,23,4,,,,,,,,3.9,574.8151634999999,578.7144764,578.7145999200002,0.30439079999996466,579.1580939,579.1580939,m,0.785887399999865,582.3751812,582.3751812,89,2.365,,,sub-048,55,85,700,bloc_loop.csv,2023-09-14_09h28.21.562,PainUncertainty,2022.2.5,143.2502625063379,
grave,forte,stimuli/330Hz,stimuli/forte,bloc_1,prob20hthp_12trials.xlsx,4,48,20,80,0,,,,,0,0,0,0,2,0,24,2,,,,,,,,3.6,582.3751812,585.9794242000003,585.9792698199999,0.3049522999999681,586.4230521,586.4230521,m,0.8636194999999134,590.4787286000001,590.4787286000001,93,3.129,,,sub-048,55,85,700,bloc_loop.csv,2023-09-14_09h28.21.562,PainUncertainty,2022.2.5,143.2502625063379,
aigu,moderee,stimuli/660Hz,stimuli/moderee,bloc_1,prob20hthp_12trials.xlsx,4,48,20,80,0,,,,,0,0,0,0,2,1,25,6,,,,,,,,4.7,590.4787286000001,595.1813965000001,595.18142352,0.30528559999993377,595.6288743999999,595.6288743999999,n,0.7086363999997047,598.0069876000002,598.0069876000002,1,1.608,,,sub-048,55,85,700,bloc_loop.csv,2023-09-14_09h28.21.562,PainUncertainty,2022.2.5,143.2502625063379,
aigu,moderee,stimuli/660Hz,stimuli/moderee,bloc_1,prob20hthp_12trials.xlsx,4,48,20,80,0,,,,,0,0,0,0,2,2,26,7,,,,,,,,3.7,598.0069876000002,601.7098397,601.7098611199999,0.30521219999991445,602.1561667999999,602.1561667999999,n,0.6810666999999739,607.0217069999999,607.0217069999999,1,4.122,,,sub-048,55,85,700,bloc_loop.csv,2023-09-14_09h28.21.562,PainUncertainty,2022.2.5,143.2502625063379,
grave,forte,stimuli/330Hz,stimuli/forte,bloc_1,prob20hthp_12trials.xlsx,4,48,20,80,0,,,,,0,0,0,0,2,3,27,0,,,,,,,,4.5,607.0217069999999,611.5240211999999,611.52386342,0.3053632999999536,611.9717402000001,611.9717402000001,m,0.7897985999998127,615.956866,615.956866,88,3.129,,,sub-048,55,85,700,bloc_loop.csv,2023-09-14_09h28.21.562,PainUncertainty,2022.2.5,143.2502625063379,
aigu,moderee,stimuli/660Hz,stimuli/moderee,bloc_1,prob20hthp_12trials.xlsx,4,48,20,80,0,,,,,0,0,0,0,2,4,28,10,,,,,,,,3.7,615.956866,619.6563814000001,619.6563529200002,0.30561820000002626,620.1044602000002,620.1044602000002,n,0.705076199999894,626.2337550000002,626.2337550000002,2,5.373,,,sub-048,55,85,700,bloc_loop.csv,2023-09-14_09h28.21.562,PainUncertainty,2022.2.5,143.2502625063379,
aigu,moderee,stimuli/660Hz,stimuli/moderee,bloc_1,prob20hthp_12trials.xlsx,4,48,20,80,0,,,,,0,0,0,0,2,5,29,8,,,,,,,,3.1,626.2337550000002,629.3381954000001,629.3382367200002,0.30501030000004903,629.7822199000002,629.7822199000002,n,0.7061131999994359,633.4742544999999,633.4742544999999,2,2.929,,,sub-048,55,85,700,bloc_loop.csv,2023-09-14_09h28.21.562,PainUncertainty,2022.2.5,143.2502625063379,
grave,forte,stimuli/330Hz,stimuli/forte,bloc_1,prob20hthp_12trials.xlsx,4,48,20,80,0,,,,,0,0,0,0,2,6,30,4,,,,,,,,4.6,633.4742544999999,638.0753930000001,638.07519052,0.3051207999997132,638.5233171,638.5233171,m,0.9226741999996193,644.5348185000003,644.5348185000003,84,5.033,,,sub-048,55,85,700,bloc_loop.csv,2023-09-14_09h28.21.562,PainUncertainty,2022.2.5,143.2502625063379,
grave,forte,stimuli/330Hz,stimuli/forte,bloc_1,prob20hthp_12trials.xlsx,4,48,20,80,0,,,,,0,0,0,0,2,7,31,1,,,,,,,,3.4,644.5348185000003,647.9376071000002,647.9376038200003,0.305188299999827,648.3817370000002,648.3817370000002,m,0.6970274000000245,652.719083,652.719083,95,3.581,,,sub-048,55,85,700,bloc_loop.csv,2023-09-14_09h28.21.562,PainUncertainty,2022.2.5,143.2502625063379,
grave,forte,stimuli/330Hz,stimuli/forte,bloc_1,prob20hthp_12trials.xlsx,4,48,20,80,0,,,,,0,0,0,0,2,8,32,3,,,,,,,,3.1,652.719083,655.8209578000001,655.8210274200001,0.30485500000031607,656.2648853000001,656.2648853000001,m,0.7913378999996894,662.6277711000002,662.6277711000002,98,5.51,,,sub-048,55,85,700,bloc_loop.csv,2023-09-14_09h28.21.562,PainUncertainty,2022.2.5,143.2502625063379,
aigu,forte,stimuli/660Hz,stimuli/forte,bloc_1,prob20hthp_12trials.xlsx,4,48,20,80,0,,,,,0,0,0,0,2,9,33,11,,,,,,,,3.2,662.6277711000002,665.8286779,665.8287285199999,0.3051230000000942,666.2727823999999,666.2727823999999,m,0.8485531999995146,668.7187709999998,668.7187709999998,70,1.54,,,sub-048,55,85,700,bloc_loop.csv,2023-09-14_09h28.21.562,PainUncertainty,2022.2.5,143.2502625063379,
aigu,moderee,stimuli/660Hz,stimuli/moderee,bloc_1,prob20hthp_12trials.xlsx,4,48,20,80,0,,,,,0,0,0,0,2,10,34,9,,,,,,,,4.5,668.7187709999998,673.21846,673.2184523199999,0.304980599999908,673.6625872,673.6625872,n,0.9525813000000198,679.7773427000002,679.7773427000002,13,5.109,,,sub-048,55,85,700,bloc_loop.csv,2023-09-14_09h28.21.562,PainUncertainty,2022.2.5,143.2502625063379,
grave,moderee,stimuli/330Hz,stimuli/moderee,bloc_1,prob20hthp_12trials.xlsx,4,48,20,80,0,,,,,0,0,0,0,2,11,35,5,,,,,,,,3,679.7773427000002,682.7821328,682.7821067200002,0.30544460000010076,683.2309442000001,683.2309442000001,n,0.7246359999999186,685.8532134000002,685.8532134000002,14,1.837,,,sub-048,55,85,700,bloc_loop.csv,2023-09-14_09h28.21.562,PainUncertainty,2022.2.5,143.2502625063379,
grave,forte,stimuli/330Hz,stimuli/forte,bloc_1,prob20hthp_12trials.xlsx,4,48,20,80,0,,,,,0,0,0,0,3,0,36,3,,,,,,,,4.6,685.8532134000002,690.4567293999999,690.4566516200002,0.3050268000001779,690.9008911000001,690.9008911000001,m,0.7480482000000848,695.8907402,695.8907402,90,4.185,,,sub-048,55,85,700,bloc_loop.csv,2023-09-14_09h28.21.562,PainUncertainty,2022.2.5,143.2502625063379,
aigu,forte,stimuli/660Hz,stimuli/forte,bloc_1,prob20hthp_12trials.xlsx,4,48,20,80,0,,,,,0,0,0,0,3,1,37,11,,,,,,,,3.9,695.8907402,699.7915505000001,699.79152742,0.30475990000013553,700.2356128000001,700.2356128000001,m,0.7982334999996965,704.9995223000001,704.9995223000001,93,3.907,,,sub-048,55,85,700,bloc_loop.csv,2023-09-14_09h28.21.562,PainUncertainty,2022.2.5,143.2502625063379,
grave,moderee,stimuli/330Hz,stimuli/moderee,bloc_1,prob20hthp_12trials.xlsx,4,48,20,80,0,,,,,0,0,0,0,3,2,38,5,,,,,,,,4.6,704.9995223000001,709.6050000999999,709.6050344200003,0.3047701999998935,710.0510757000002,710.0510757000002,n,0.7001983999998629,716.0929197,716.0929197,2,5.281,,,sub-048,55,85,700,bloc_loop.csv,2023-09-14_09h28.21.562,PainUncertainty,2022.2.5,143.2502625063379,
grave,forte,stimuli/330Hz,stimuli/forte,bloc_1,prob20hthp_12trials.xlsx,4,48,20,80,0,,,,,0,0,0,0,3,3,39,0,,,,,,,,4.4,716.0929197,720.4955398000002,720.4956549200001,0.30150989999992817,720.9406804999999,720.9406804999999,m,1.136287899999843,726.5765034000001,726.5765034000001,88,4.448,,,sub-048,55,85,700,bloc_loop.csv,2023-09-14_09h28.21.562,PainUncertainty,2022.2.5,143.2502625063379,
grave,forte,stimuli/330Hz,stimuli/forte,bloc_1,prob20hthp_12trials.xlsx,4,48,20,80,0,,,,,0,0,0,0,3,4,40,4,,,,,,,,4.8,726.5765034000001,731.3782633999999,731.3783420200002,0.3050109999999222,731.8225404,731.8225404,m,1.02492089999987,735.8952024999999,735.8952024999999,92,2.982,,,sub-048,55,85,700,bloc_loop.csv,2023-09-14_09h28.21.562,PainUncertainty,2022.2.5,143.2502625063379,
aigu,moderee,stimuli/660Hz,stimuli/moderee,bloc_1,prob20hthp_12trials.xlsx,4,48,20,80,0,,,,,0,0,0,0,3,5,41,9,,,,,,,,5,735.8952024999999,740.9004671000002,740.9010657200001,0.3045296000000235,741.3449183000002,741.3449183000002,n,0.7807290999999168,746.6196579000002,746.6196579000002,3,4.429,,,sub-048,55,85,700,bloc_loop.csv,2023-09-14_09h28.21.562,PainUncertainty,2022.2.5,143.2502625063379,
aigu,moderee,stimuli/660Hz,stimuli/moderee,bloc_1,prob20hthp_12trials.xlsx,4,48,20,80,0,,,,,0,0,0,0,3,6,42,7,,,,,,,,4.6,746.6196579000002,751.2219949,751.2212390200002,0.30563019999999597,751.6679009,751.6679009,n,0.8227154999995037,758.1120676,758.1120676,3,5.56,,,sub-048,55,85,700,bloc_loop.csv,2023-09-14_09h28.21.562,PainUncertainty,2022.2.5,143.2502625063379,
aigu,moderee,stimuli/660Hz,stimuli/moderee,bloc_1,prob20hthp_12trials.xlsx,4,48,20,80,0,,,,,0,0,0,0,3,7,43,6,,,,,,,,4.5,758.1120676,762.6114399000003,762.6113486200002,0.3051295999998729,763.0556101000002,763.0556101000002,n,0.7004757999998219,767.8775430999999,767.8775430999999,2,4.073,,,sub-048,55,85,700,bloc_loop.csv,2023-09-14_09h28.21.562,PainUncertainty,2022.2.5,143.2502625063379,
grave,forte,stimuli/330Hz,stimuli/forte,bloc_1,prob20hthp_12trials.xlsx,4,48,20,80,0,,,,,0,0,0,0,3,8,44,2,,,,,,,,3.7,767.8775430999999,771.5776228,771.5776983200003,0.305043299999852,772.0218355000002,772.0218355000002,m,0.7183818999997129,776.0459959999998,776.0459959999998,89,3.234,,,sub-048,55,85,700,bloc_loop.csv,2023-09-14_09h28.21.562,PainUncertainty,2022.2.5,143.2502625063379,
aigu,moderee,stimuli/660Hz,stimuli/moderee,bloc_1,prob20hthp_12trials.xlsx,4,48,20,80,0,,,,,0,0,0,0,3,9,45,10,,,,,,,,4,776.0459959999998,780.0510048000001,780.0509674200002,0.30511840000008306,780.4976434999999,780.4976434999999,n,1.686891999999716,790.7835542000003,790.7835542000003,4,8.532,,,sub-048,55,85,700,bloc_loop.csv,2023-09-14_09h28.21.562,PainUncertainty,2022.2.5,143.2502625063379,
grave,forte,stimuli/330Hz,stimuli/forte,bloc_1,prob20hthp_12trials.xlsx,4,48,20,80,0,,,,,0,0,0,0,3,10,46,1,,,,,,,,5,790.7835542000003,795.7892130999999,795.7898304200003,0.30454169999984515,796.2330987,796.2330987,m,0.8123404999996637,799.1724684999999,799.1724684999999,91,2.066,,,sub-048,55,85,700,bloc_loop.csv,2023-09-14_09h28.21.562,PainUncertainty,2022.2.5,143.2502625063379,
aigu,moderee,stimuli/660Hz,stimuli/moderee,bloc_1,prob20hthp_12trials.xlsx,4,48,20,80,0,,,,,0,0,0,0,3,11,47,8,,,,,,,,4.5,799.1724684999999,803.6721812999999,803.6721508200003,0.3049083000000792,804.1161013999999,804.1161013999999,n,1.1049788999998782,807.7885593999999,807.7885593999999,28,2.456,,,sub-048,55,85,700,bloc_loop.csv,2023-09-14_09h28.21.562,PainUncertainty,2022.2.5,143.2502625063379,
aigu,forte,stimuli/660Hz,stimuli/forte,bloc_2,prob50_50_4trials.xlsx,2,8,50,50,1,,,,,0,1,1,1,0,0,0,3,,,,,,,,3.5,807.7885593999999,811.2911196,811.2911291200003,0.30471570000008796,811.7351404999999,811.7351404999999,m,0.8795120999998289,818.0494966000001,818.0494966000001,76,5.371,,,sub-048,55,85,700,bloc_loop.csv,2023-09-14_09h28.21.562,PainUncertainty,2022.2.5,143.2502625063379,
grave,moderee,stimuli/330Hz,stimuli/moderee,bloc_2,prob50_50_4trials.xlsx,2,8,50,50,1,,,,,0,1,1,1,0,1,1,0,,,,,,,,4.3,818.0494966000001,822.3549263999998,822.3549970200002,0.3045956999999362,822.7992425000002,822.7992425000002,n,0.9875200999999834,826.7436470000002,826.7436470000002,13,2.9,,,sub-048,55,85,700,bloc_loop.csv,2023-09-14_09h28.21.562,PainUncertainty,2022.2.5,143.2502625063379,
grave,forte,stimuli/330Hz,stimuli/forte,bloc_2,prob50_50_4trials.xlsx,2,8,50,50,1,,,,,0,1,1,1,0,2,2,1,,,,,,,,4.6,826.7436470000002,831.3489018,831.3488803200003,0.2990768999998181,831.7912159000002,831.7912159000002,m,0.822698599999967,834.6418025000003,834.6418025000003,73,1.961,,,sub-048,55,85,700,bloc_loop.csv,2023-09-14_09h28.21.562,PainUncertainty,2022.2.5,143.2502625063379,
aigu,moderee,stimuli/660Hz,stimuli/moderee,bloc_2,prob50_50_4trials.xlsx,2,8,50,50,1,,,,,0,1,1,1,0,3,3,2,,,,,,,,4.4,834.6418025000003,839.0445886000002,839.04458832,0.3053377000001092,839.4923574,839.4923574,n,0.7305510999995022,841.4162516000001,841.4162516000001,10,1.135,,,sub-048,55,85,700,bloc_loop.csv,2023-09-14_09h28.21.562,PainUncertainty,2022.2.5,143.2502625063379,
aigu,moderee,stimuli/660Hz,stimuli/moderee,bloc_2,prob50_50_4trials.xlsx,2,8,50,50,1,,,,,0,1,1,1,1,0,4,2,,,,,,,,4.9,841.4162516000001,846.3162112999998,846.3163277200001,0.299676399999953,846.7604136,846.7604136,n,0.7853602000000137,854.7142678999999,854.7142678999999,2,7.099,,,sub-048,55,85,700,bloc_loop.csv,2023-09-14_09h28.21.562,PainUncertainty,2022.2.5,143.2502625063379,
grave,moderee,stimuli/330Hz,stimuli/moderee,bloc_2,prob50_50_4trials.xlsx,2,8,50,50,1,,,,,0,1,1,1,1,1,5,0,,,,,,,,4.3,854.7142678999999,859.0188115999999,859.0188146200003,0.3051368999999795,859.4629534000001,859.4629534000001,n,0.9801354999999603,863.9695288000003,863.9695288000003,2,3.471,,,sub-048,55,85,700,bloc_loop.csv,2023-09-14_09h28.21.562,PainUncertainty,2022.2.5,143.2502625063379,
aigu,forte,stimuli/660Hz,stimuli/forte,bloc_2,prob50_50_4trials.xlsx,2,8,50,50,1,,,,,0,1,1,1,1,2,6,3,,,,,,,,4.4,863.9695288000003,868.3745598999999,868.3745134200003,0.3010088999999425,868.8191231999999,868.8191231999999,m,0.7802651000001788,872.9200399000001,872.9200399000001,93,3.253,,,sub-048,55,85,700,bloc_loop.csv,2023-09-14_09h28.21.562,PainUncertainty,2022.2.5,143.2502625063379,
grave,forte,stimuli/330Hz,stimuli/forte,bloc_2,prob50_50_4trials.xlsx,2,8,50,50,1,,,,,0,1,1,1,1,3,7,1,,,,,,,,4.6,872.9200399000001,877.5210142000001,877.5210483199999,0.3055735000002642,877.9693167999999,877.9693167999999,m,1.4693818999999166,883.7936786999999,883.7936786999999,78,2.316,,,sub-048,55,85,700,bloc_loop.csv,2023-09-14_09h28.21.562,PainUncertainty,2022.2.5,143.2502625063379,
,,,,bloc_2,prob50_50_4trials.xlsx,2,8,50,50,1,,,,,0,1,1,1,,,,,0,0,0,0,,,,,,,,,,,,,,,,,883.7936786999999,1265.0948174999999,sub-048,55,85,700,bloc_loop.csv,2023-09-14_09h28.21.562,PainUncertainty,2022.2.5,143.2502625063379,
grave,moderee,stimuli/330Hz,stimuli/moderee,bloc_3,prob80hthp_12trials.xlsx,2,24,80,20,0,,,,,0,2,2,2,0,0,0,4,,,,,,,,3.9,1265.8423658000002,1269.7482393999999,1269.74829392,0.3050539999999273,1270.1923308,1270.1923308,n,0.8375144999999975,1272.9850548,1272.9850548,19,1.892,,,sub-048,55,85,700,bloc_loop.csv,2023-09-14_09h28.21.562,PainUncertainty,2022.2.5,143.2502625063379,
aigu,moderee,stimuli/660Hz,stimuli/moderee,bloc_3,prob80hthp_12trials.xlsx,2,24,80,20,0,,,,,0,2,2,2,0,1,1,11,,,,,,,,3.5,1272.9850548,1276.4850706000002,1276.48514182,0.30479990000003454,1276.9292882,1276.9292882,n,2.0640315999999075,1283.661788,1283.661788,29,4.609,,,sub-048,55,85,700,bloc_loop.csv,2023-09-14_09h28.21.562,PainUncertainty,2022.2.5,143.2502625063379,
grave,moderee,stimuli/330Hz,stimuli/moderee,bloc_3,prob80hthp_12trials.xlsx,2,24,80,20,0,,,,,0,2,2,2,0,2,2,1,,,,,,,,3.6,1283.661788,1287.2642236000002,1287.26417752,0.305331600000045,1287.7086450000002,1287.7086450000002,n,2.050601099999767,1293.2832021,1293.2832021,25,3.461,,,sub-048,55,85,700,bloc_loop.csv,2023-09-14_09h28.21.562,PainUncertainty,2022.2.5,143.2502625063379,
grave,moderee,stimuli/330Hz,stimuli/moderee,bloc_3,prob80hthp_12trials.xlsx,2,24,80,20,0,,,,,0,2,2,2,0,3,3,0,,,,,,,,4.1,1293.2832021,1297.3835857,1297.3835131200003,0.30523559999983263,1297.8276062999998,1297.8276062999998,m,0.9883875999998963,1302.3947223,1302.3947223,50,3.511,,,sub-048,55,85,700,bloc_loop.csv,2023-09-14_09h28.21.562,PainUncertainty,2022.2.5,143.2502625063379,
aigu,forte,stimuli/660Hz,stimuli/forte,bloc_3,prob80hthp_12trials.xlsx,2,24,80,20,0,,,,,0,2,2,2,0,4,4,10,,,,,,,,4,1302.3947223,1306.3987387000002,1306.39892082,0.3046390999998039,1306.8428236,1306.8428236,m,0.8165547999997216,1309.9545102000002,1309.9545102000002,60,2.232,,,sub-048,55,85,700,bloc_loop.csv,2023-09-14_09h28.21.562,PainUncertainty,2022.2.5,143.2502625063379,
grave,moderee,stimuli/330Hz,stimuli/moderee,bloc_3,prob80hthp_12trials.xlsx,2,24,80,20,0,,,,,0,2,2,2,0,5,5,3,,,,,,,,3.9,1309.9545102000002,1313.8576610999999,1313.8576192200003,0.3050164000001132,1314.3018946000002,1314.3018946000002,n,0.9164647000002333,1318.4255383,1318.4255383,5,3.15,,,sub-048,55,85,700,bloc_loop.csv,2023-09-14_09h28.21.562,PainUncertainty,2022.2.5,143.2502625063379,
grave,forte,stimuli/330Hz,stimuli/forte,bloc_3,prob80hthp_12trials.xlsx,2,24,80,20,0,,,,,0,2,2,2,0,6,6,5,,,,,,,,3.3,1318.4255383,1321.7267255000002,1321.7267475200001,0.3049577000001591,1322.1707624,1322.1707624,m,0.8455917000001136,1326.1131526,1326.1131526,84,3.038,,,sub-048,55,85,700,bloc_loop.csv,2023-09-14_09h28.21.562,PainUncertainty,2022.2.5,143.2502625063379,
aigu,forte,stimuli/660Hz,stimuli/forte,bloc_3,prob80hthp_12trials.xlsx,2,24,80,20,0,,,,,0,2,2,2,0,7,7,9,,,,,,,,3.3,1326.1131526,1329.4152970999999,1329.41539552,0.3010577000000012,1329.8596673000002,1329.8596673000002,m,0.8768667999997888,1333.4982862000002,1333.4982862000002,84,2.698,,,sub-048,55,85,700,bloc_loop.csv,2023-09-14_09h28.21.562,PainUncertainty,2022.2.5,143.2502625063379,
aigu,forte,stimuli/660Hz,stimuli/forte,bloc_3,prob80hthp_12trials.xlsx,2,24,80,20,0,,,,,0,2,2,2,0,8,8,7,,,,,,,,3.2,1333.4982862000002,1336.7006021000002,1336.70056102,0.30524540000033085,1337.1449479000003,1337.1449479000003,m,0.7215381000000889,1341.2511318000002,1341.2511318000002,95,3.331,,,sub-048,55,85,700,bloc_loop.csv,2023-09-14_09h28.21.562,PainUncertainty,2022.2.5,143.2502625063379,
aigu,forte,stimuli/660Hz,stimuli/forte,bloc_3,prob80hthp_12trials.xlsx,2,24,80,20,0,,,,,0,2,2,2,0,9,9,6,,,,,,,,4.9,1341.2511318000002,1346.1531553999998,1346.1531242199999,0.305165599999782,1346.5972778,1346.5972778,m,0.8602760999997372,1350.7278738999998,1350.7278738999998,74,3.212,,,sub-048,55,85,700,bloc_loop.csv,2023-09-14_09h28.21.562,PainUncertainty,2022.2.5,143.2502625063379,
aigu,forte,stimuli/660Hz,stimuli/forte,bloc_3,prob80hthp_12trials.xlsx,2,24,80,20,0,,,,,0,2,2,2,0,10,10,8,,,,,,,,5,1350.7278738999998,1355.7309717000003,1355.7309452200002,0.3049777000001086,1356.1747486,1356.1747486,m,1.0089005999998335,1358.2886318,1358.2886318,70,1.046,,,sub-048,55,85,700,bloc_loop.csv,2023-09-14_09h28.21.562,PainUncertainty,2022.2.5,143.2502625063379,
grave,moderee,stimuli/330Hz,stimuli/moderee,bloc_3,prob80hthp_12trials.xlsx,2,24,80,20,0,,,,,0,2,2,2,0,11,11,2,,,,,,,,3.7,1358.2886318,1361.9883786999999,1361.9883283200002,0.3048631000001478,1362.4396038999998,1362.4396038999998,n,0.7835079999995287,1366.8718229,1366.8718229,7,3.58,,,sub-048,55,85,700,bloc_loop.csv,2023-09-14_09h28.21.562,PainUncertainty,2022.2.5,143.2502625063379,
aigu,forte,stimuli/660Hz,stimuli/forte,bloc_3,prob80hthp_12trials.xlsx,2,24,80,20,0,,,,,0,2,2,2,1,0,12,9,,,,,,,,4.7,1366.8718229,1371.5730549999998,1371.57306732,0.3047558000002937,1372.0168560000002,1372.0168560000002,m,0.763656500000252,1377.0697605999999,1377.0697605999999,87,4.239,,,sub-048,55,85,700,bloc_loop.csv,2023-09-14_09h28.21.562,PainUncertainty,2022.2.5,143.2502625063379,
grave,moderee,stimuli/330Hz,stimuli/moderee,bloc_3,prob80hthp_12trials.xlsx,2,24,80,20,0,,,,,0,2,2,2,1,1,13,1,,,,,,,,4.8,1377.0697605999999,1381.8728595000002,1381.8731718200002,0.3048656999999366,1382.3209357,1382.3209357,n,0.7846316000000115,1386.4991109000002,1386.4991109000002,6,3.33,,,sub-048,55,85,700,bloc_loop.csv,2023-09-14_09h28.21.562,PainUncertainty,2022.2.5,143.2502625063379,
aigu,forte,stimuli/660Hz,stimuli/forte,bloc_3,prob80hthp_12trials.xlsx,2,24,80,20,0,,,,,0,2,2,2,1,2,14,10,,,,,,,,4.6,1386.4991109000002,1391.1028209,1391.10296022,0.3019726000002265,1391.5479856000002,1391.5479856000002,m,0.6460582999998223,1397.8628391000002,1397.8628391000002,92,5.608,,,sub-048,55,85,700,bloc_loop.csv,2023-09-14_09h28.21.562,PainUncertainty,2022.2.5,143.2502625063379,
grave,forte,stimuli/330Hz,stimuli/forte,bloc_3,prob80hthp_12trials.xlsx,2,24,80,20,0,,,,,0,2,2,2,1,3,15,5,,,,,,,,3,1397.8628391000002,1400.8679253,1400.86791962,0.3048833999996532,1401.3120628000001,1401.3120628000001,m,1.7279247999995277,1406.1263936,1406.1263936,52,3.031,,,sub-048,55,85,700,bloc_loop.csv,2023-09-14_09h28.21.562,PainUncertainty,2022.2.5,143.2502625063379,
aigu,forte,stimuli/660Hz,stimuli/forte,bloc_3,prob80hthp_12trials.xlsx,2,24,80,20,0,,,,,0,2,2,2,1,4,16,7,,,,,,,,4,1406.1263936,1410.1260258000002,1410.1259501200002,0.30039140000008047,1410.5708332,1410.5708332,m,0.9995529999996506,1414.6792411000001,1414.6792411000001,80,3.058,,,sub-048,55,85,700,bloc_loop.csv,2023-09-14_09h28.21.562,PainUncertainty,2022.2.5,143.2502625063379,
aigu,forte,stimuli/660Hz,stimuli/forte,bloc_3,prob80hthp_12trials.xlsx,2,24,80,20,0,,,,,0,2,2,2,1,5,17,8,,,,,,,,3.4,1414.6792411000001,1418.0787743,1418.07878122,0.3045594999998684,1418.5224121,1418.5224121,m,0.707462200000009,1424.4926123,1424.4926123,85,5.199,,,sub-048,55,85,700,bloc_loop.csv,2023-09-14_09h28.21.562,PainUncertainty,2022.2.5,143.2502625063379,
grave,moderee,stimuli/330Hz,stimuli/moderee,bloc_3,prob80hthp_12trials.xlsx,2,24,80,20,0,,,,,0,2,2,2,1,6,18,2,,,,,,,,4.2,1424.4926123,1428.6976785000002,1428.69779272,0.3048428000001877,1429.1418538000003,1429.1418538000003,n,0.802234899999803,1433.9862027,1433.9862027,2,3.981,,,sub-048,55,85,700,bloc_loop.csv,2023-09-14_09h28.21.562,PainUncertainty,2022.2.5,143.2502625063379,
grave,moderee,stimuli/330Hz,stimuli/moderee,bloc_3,prob80hthp_12trials.xlsx,2,24,80,20,0,,,,,0,2,2,2,1,7,19,3,,,,,,,,3.9,1433.9862027,1437.8865062999998,1437.88663962,0.3047990000000027,1438.3304736999999,1438.3304736999999,n,1.595810100000108,1442.7446492,1442.7446492,33,2.768,,,sub-048,55,85,700,bloc_loop.csv,2023-09-14_09h28.21.562,PainUncertainty,2022.2.5,143.2502625063379,
aigu,forte,stimuli/660Hz,stimuli/forte,bloc_3,prob80hthp_12trials.xlsx,2,24,80,20,0,,,,,0,2,2,2,1,8,20,6,,,,,,,,4.9,1442.7446492,1447.6443041000002,1447.6442790199999,0.30513429999973596,1448.0883604,1448.0883604,m,0.8451955999998972,1452.7825572000002,1452.7825572000002,75,3.788,,,sub-048,55,85,700,bloc_loop.csv,2023-09-14_09h28.21.562,PainUncertainty,2022.2.5,143.2502625063379,
grave,moderee,stimuli/330Hz,stimuli/moderee,bloc_3,prob80hthp_12trials.xlsx,2,24,80,20,0,,,,,0,2,2,2,1,9,21,4,,,,,,,,5,1452.7825572000002,1457.7846964,1457.7846501200002,0.30492210000011255,1458.2284595,1458.2284595,n,1.3765054999998938,1461.8927906,1461.8927906,29,2.233,,,sub-048,55,85,700,bloc_loop.csv,2023-09-14_09h28.21.562,PainUncertainty,2022.2.5,143.2502625063379,
grave,moderee,stimuli/330Hz,stimuli/moderee,bloc_3,prob80hthp_12trials.xlsx,2,24,80,20,0,,,,,0,2,2,2,1,10,22,0,,,,,,,,3.4,1461.8927906,1465.2922482,1465.29220232,0.30518019999999524,1465.7367906,1465.7367906,n,0.8505562999998801,1471.2766022,1471.2766022,5,4.622,,,sub-048,55,85,700,bloc_loop.csv,2023-09-14_09h28.21.562,PainUncertainty,2022.2.5,143.2502625063379,
aigu,moderee,stimuli/660Hz,stimuli/moderee,bloc_3,prob80hthp_12trials.xlsx,2,24,80,20,0,,,,,0,2,2,2,1,11,23,11,,,,,,,,3.2,1471.2766022,1474.4807309000003,1474.4807562199999,0.30495109999992565,1474.9255881,1474.9255881,n,0.8917300999996769,1479.2044271,1479.2044271,3,3.321,,,sub-048,55,85,700,bloc_loop.csv,2023-09-14_09h28.21.562,PainUncertainty,2022.2.5,143.2502625063379,
grave,forte,stimuli/330Hz,stimuli/forte,bloc_4,prob50_50_4trials.xlsx,2,8,50,50,1,,,,,0,3,3,3,0,0,0,1,,,,,,,,4.1,1479.2044271,1483.3084979,1483.30854232,0.3051717000003009,1483.7550092000001,1483.7550092000001,m,0.8534530000001723,1487.3087084,1487.3087084,86,2.642,,,sub-048,55,85,700,bloc_loop.csv,2023-09-14_09h28.21.562,PainUncertainty,2022.2.5,143.2502625063379,
aigu,moderee,stimuli/660Hz,stimuli/moderee,bloc_4,prob50_50_4trials.xlsx,2,8,50,50,1,,,,,0,3,3,3,0,1,1,2,,,,,,,,3.7,1487.3087084,1491.0104998000002,1491.01050192,0.30522400000018024,1491.4584880000002,1491.4584880000002,n,0.7984690999996928,1495.0121266,1495.0121266,3,2.698,,,sub-048,55,85,700,bloc_loop.csv,2023-09-14_09h28.21.562,PainUncertainty,2022.2.5,143.2502625063379,
grave,moderee,stimuli/330Hz,stimuli/moderee,bloc_4,prob50_50_4trials.xlsx,2,8,50,50,1,,,,,0,3,3,3,0,2,2,0,,,,,,,,3.1,1495.0121266,1498.1155457,1498.1153928200001,0.30203249999976833,1498.5606691000003,1498.5606691000003,n,1.062949799999842,1502.0282747,1502.0282747,12,2.297,,,sub-048,55,85,700,bloc_loop.csv,2023-09-14_09h28.21.562,PainUncertainty,2022.2.5,143.2502625063379,
aigu,forte,stimuli/660Hz,stimuli/forte,bloc_4,prob50_50_4trials.xlsx,2,8,50,50,1,,,,,0,3,3,3,0,3,3,3,,,,,,,,3.3,1502.0282747,1505.3316825000002,1505.33167642,0.30520720000004076,1505.779649,1505.779649,m,0.787550299999566,1509.8443095000002,1509.8443095000002,88,3.224,,,sub-048,55,85,700,bloc_loop.csv,2023-09-14_09h28.21.562,PainUncertainty,2022.2.5,143.2502625063379,
grave,forte,stimuli/330Hz,stimuli/forte,bloc_4,prob50_50_4trials.xlsx,2,8,50,50,1,,,,,0,3,3,3,1,0,4,1,,,,,,,,3.1,1509.8443095000002,1512.9436286,1512.9436335200003,0.3052909000002728,1513.3882119,1513.3882119,m,1.8008037999998123,1517.9340656,1517.9340656,74,2.678,,,sub-048,55,85,700,bloc_loop.csv,2023-09-14_09h28.21.562,PainUncertainty,2022.2.5,143.2502625063379,
aigu,forte,stimuli/660Hz,stimuli/forte,bloc_4,prob50_50_4trials.xlsx,2,8,50,50,1,,,,,0,3,3,3,1,1,5,3,,,,,,,,3.9,1517.9340656,1521.8335940000002,1521.8336175200002,0.3049730000002455,1522.2777091000003,1522.2777091000003,m,0.8223441999998613,1527.1562733,1527.1562733,79,3.999,,,sub-048,55,85,700,bloc_loop.csv,2023-09-14_09h28.21.562,PainUncertainty,2022.2.5,143.2502625063379,
grave,moderee,stimuli/330Hz,stimuli/moderee,bloc_4,prob50_50_4trials.xlsx,2,8,50,50,1,,,,,0,3,3,3,1,2,6,0,,,,,,,,3.7,1527.1562733,1530.8557043,1530.8557437200002,0.30509659999961514,1531.2996002,1531.2996002,n,0.8728016000000025,1534.4599567,1534.4599567,6,2.226,,,sub-048,55,85,700,bloc_loop.csv,2023-09-14_09h28.21.562,PainUncertainty,2022.2.5,143.2502625063379,
aigu,moderee,stimuli/660Hz,stimuli/moderee,bloc_4,prob50_50_4trials.xlsx,2,8,50,50,1,,,,,0,3,3,3,1,3,7,2,,,,,,,,3,1534.4599567,1537.4604877000002,1537.4604813199999,0.30490379999992,1537.9046678,1537.9046678,n,0.8030080999997153,1544.6788215000001,1544.6788215000001,3,3.942,,,sub-048,55,85,700,bloc_loop.csv,2023-09-14_09h28.21.562,PainUncertainty,2022.2.5,143.2502625063379,
,,,,bloc_4,prob50_50_4trials.xlsx,2,8,50,50,1,,,,,0,3,3,3,,,,,0,0,0,0,,,,,,,,,,,,,,,,,1544.6788215000001,1570.2768291000002,sub-048,55,85,700,bloc_loop.csv,2023-09-14_09h28.21.562,PainUncertainty,2022.2.5,143.2502625063379,
aigu,moderee,stimuli/660Hz,stimuli/moderee,bloc_5,prob20hthp_12trials.xlsx,2,24,20,80,0,,,,,0,4,4,4,0,0,0,9,,,,,,,,4.4,1571.2245487,1575.6254887999999,1575.62490872,0.30487319999974716,1576.0688621,1576.0688621,n,0.6724312999999711,1580.6212053,1580.6212053,1,3.817,,,sub-048,55,85,700,bloc_loop.csv,2023-09-14_09h28.21.562,PainUncertainty,2022.2.5,143.2502625063379,
aigu,moderee,stimuli/660Hz,stimuli/moderee,bloc_5,prob20hthp_12trials.xlsx,2,24,20,80,0,,,,,0,4,4,4,0,1,1,6,,,,,,,,4.3,1580.6212053,1584.9243422,1584.92435552,0.30535680000002685,1585.3730203999999,1585.3730203999999,n,1.230987599999935,1591.4896127000002,1591.4896127000002,6,4.824,,,sub-048,55,85,700,bloc_loop.csv,2023-09-14_09h28.21.562,PainUncertainty,2022.2.5,143.2502625063379,
grave,moderee,stimuli/330Hz,stimuli/moderee,bloc_5,prob20hthp_12trials.xlsx,2,24,20,80,0,,,,,0,4,4,4,0,2,2,5,,,,,,,,4.4,1591.4896127000002,1595.8913258000002,1595.89130072,0.3052929000000404,1596.3401363000003,1596.3401363000003,n,1.8876165999995465,1603.0135076000001,1603.0135076000001,11,4.72,,,sub-048,55,85,700,bloc_loop.csv,2023-09-14_09h28.21.562,PainUncertainty,2022.2.5,143.2502625063379,
aigu,forte,stimuli/660Hz,stimuli/forte,bloc_5,prob20hthp_12trials.xlsx,2,24,20,80,0,,,,,0,4,4,4,0,3,3,11,,,,,,,,4.6,1603.0135076000001,1607.6148333,1607.6148623200002,0.29920609999999215,1608.0530301,1608.0530301,m,0.8801880999999412,1611.532106,1611.532106,67,2.545,,,sub-048,55,85,700,bloc_loop.csv,2023-09-14_09h28.21.562,PainUncertainty,2022.2.5,143.2502625063379,
aigu,moderee,stimuli/660Hz,stimuli/moderee,bloc_5,prob20hthp_12trials.xlsx,2,24,20,80,0,,,,,0,4,4,4,0,4,4,10,,,,,,,,4.1,1611.532106,1615.6366360000002,1615.6366491200001,0.30514720000019224,1616.0846591,1616.0846591,n,0.8403236999997716,1621.2504523000002,1621.2504523000002,1,4.261,,,sub-048,55,85,700,bloc_loop.csv,2023-09-14_09h28.21.562,PainUncertainty,2022.2.5,143.2502625063379,
aigu,moderee,stimuli/660Hz,stimuli/moderee,bloc_5,prob20hthp_12trials.xlsx,2,24,20,80,0,,,,,0,4,4,4,0,5,5,8,,,,,,,,4.3,1621.2504523000002,1625.554518,1625.5548699199999,0.3045787000000928,1625.9984527000001,1625.9984527000001,n,0.6927280999998402,1628.698449,1628.698449,3,1.955,,,sub-048,55,85,700,bloc_loop.csv,2023-09-14_09h28.21.562,PainUncertainty,2022.2.5,143.2502625063379,
aigu,moderee,stimuli/660Hz,stimuli/moderee,bloc_5,prob20hthp_12trials.xlsx,2,24,20,80,0,,,,,0,4,4,4,0,6,6,7,,,,,,,,3.6,1628.698449,1632.2980317000001,1632.2980905200002,0.3050767999998243,1632.7422655999999,1632.7422655999999,n,1.4777196999998523,1638.7036404,1638.7036404,5,4.435,,,sub-048,55,85,700,bloc_loop.csv,2023-09-14_09h28.21.562,PainUncertainty,2022.2.5,143.2502625063379,
grave,forte,stimuli/330Hz,stimuli/forte,bloc_5,prob20hthp_12trials.xlsx,2,24,20,80,0,,,,,0,4,4,4,0,7,7,4,,,,,,,,3.9,1638.7036404,1642.6048956,1642.6048416200001,0.2992107999998552,1643.0430879,1643.0430879,m,0.7541141999995489,1647.928305,1647.928305,61,4.074,,,sub-048,55,85,700,bloc_loop.csv,2023-09-14_09h28.21.562,PainUncertainty,2022.2.5,143.2502625063379,
grave,forte,stimuli/330Hz,stimuli/forte,bloc_5,prob20hthp_12trials.xlsx,2,24,20,80,0,,,,,0,4,4,4,0,8,8,2,,,,,,,,3.2,1647.928305,1651.1336331000002,1651.1338062200002,0.30506370000011884,1651.5815812,1651.5815812,m,0.6318824999998469,1653.8404709000001,1653.8404709000001,64,1.567,,,sub-048,55,85,700,bloc_loop.csv,2023-09-14_09h28.21.562,PainUncertainty,2022.2.5,143.2502625063379,
grave,forte,stimuli/330Hz,stimuli/forte,bloc_5,prob20hthp_12trials.xlsx,2,24,20,80,0,,,,,0,4,4,4,0,9,9,0,,,,,,,,4.5,1653.8404709000001,1658.3428502000002,1658.34291742,0.30558250000012777,1658.7900125,1658.7900125,m,0.7161770999996406,1662.4089559,1662.4089559,74,2.844,,,sub-048,55,85,700,bloc_loop.csv,2023-09-14_09h28.21.562,PainUncertainty,2022.2.5,143.2502625063379,
grave,forte,stimuli/330Hz,stimuli/forte,bloc_5,prob20hthp_12trials.xlsx,2,24,20,80,0,,,,,0,4,4,4,0,10,10,3,,,,,,,,4.5,1662.4089559,1666.9132693000001,1666.9133757200002,0.3050458000002436,1667.3575091000002,1667.3575091000002,m,0.7139789000002565,1669.5856304,1669.5856304,73,1.456,,,sub-048,55,85,700,bloc_loop.csv,2023-09-14_09h28.21.562,PainUncertainty,2022.2.5,143.2502625063379,
grave,forte,stimuli/330Hz,stimuli/forte,bloc_5,prob20hthp_12trials.xlsx,2,24,20,80,0,,,,,0,4,4,4,0,11,11,1,,,,,,,,4.8,1669.5856304,1674.3864802000003,1674.38645352,0.3048291000000063,1674.8305285000001,1674.8305285000001,m,1.7717712999997275,1678.3614342,1678.3614342,69,1.698,,,sub-048,55,85,700,bloc_loop.csv,2023-09-14_09h28.21.562,PainUncertainty,2022.2.5,143.2502625063379,
aigu,moderee,stimuli/660Hz,stimuli/moderee,bloc_5,prob20hthp_12trials.xlsx,2,24,20,80,0,,,,,0,4,4,4,1,0,12,9,,,,,,,,4,1678.3614342,1682.3669435000002,1682.3668942200002,0.3003727999998773,1682.8115241,1682.8115241,n,0.7754438999995727,1687.5671554,1687.5671554,7,3.925,,,sub-048,55,85,700,bloc_loop.csv,2023-09-14_09h28.21.562,PainUncertainty,2022.2.5,143.2502625063379,
grave,forte,stimuli/330Hz,stimuli/forte,bloc_5,prob20hthp_12trials.xlsx,2,24,20,80,0,,,,,0,4,4,4,1,1,13,4,,,,,,,,3,1687.5671554,1690.5691468999999,1690.5692405200002,0.3054024999996727,1691.0184371999999,1691.0184371999999,m,0.84989029999997,1694.1692815000001,1694.1692815000001,83,2.233,,,sub-048,55,85,700,bloc_loop.csv,2023-09-14_09h28.21.562,PainUncertainty,2022.2.5,143.2502625063379,
aigu,forte,stimuli/660Hz,stimuli/forte,bloc_5,prob20hthp_12trials.xlsx,2,24,20,80,0,,,,,0,4,4,4,1,2,14,11,,,,,,,,4.5,1694.1692815000001,1698.674367,1698.67428032,0.30535490000011123,1699.1217339,1699.1217339,m,0.8728362000001653,1703.4377611,1703.4377611,82,3.386,,,sub-048,55,85,700,bloc_loop.csv,2023-09-14_09h28.21.562,PainUncertainty,2022.2.5,143.2502625063379,
grave,forte,stimuli/330Hz,stimuli/forte,bloc_5,prob20hthp_12trials.xlsx,2,24,20,80,0,,,,,0,4,4,4,1,3,15,0,,,,,,,,3.6,1703.4377611,1707.0433046999997,1707.0432092200003,0.3051498000004358,1707.4870902000002,1707.4870902000002,m,1.948635700000068,1710.9359703,1710.9359703,64,1.434,,,sub-048,55,85,700,bloc_loop.csv,2023-09-14_09h28.21.562,PainUncertainty,2022.2.5,143.2502625063379,
grave,forte,stimuli/330Hz,stimuli/forte,bloc_5,prob20hthp_12trials.xlsx,2,24,20,80,0,,,,,0,4,4,4,1,4,16,3,,,,,,,,3.8,1710.9359703,1714.7386773999997,1714.7387452200005,0.3051257999995869,1715.1861374,1715.1861374,m,1.3008530000001883,1719.6133667000004,1719.6133667000004,77,3.066,,,sub-048,55,85,700,bloc_loop.csv,2023-09-14_09h28.21.562,PainUncertainty,2022.2.5,143.2502625063379,
aigu,moderee,stimuli/660Hz,stimuli/moderee,bloc_5,prob20hthp_12trials.xlsx,2,24,20,80,0,,,,,0,4,4,4,1,5,17,10,,,,,,,,4.1,1719.6133667000004,1723.7186522000002,1723.7185786200002,0.3050506999998106,1724.162687,1724.162687,n,0.7694151999999121,1727.3023710999996,1727.3023710999996,4,2.309,,,sub-048,55,85,700,bloc_loop.csv,2023-09-14_09h28.21.562,PainUncertainty,2022.2.5,143.2502625063379,
aigu,moderee,stimuli/660Hz,stimuli/moderee,bloc_5,prob20hthp_12trials.xlsx,2,24,20,80,0,,,,,0,4,4,4,1,6,18,6,,,,,,,,4.9,1727.3023710999996,1732.2061302000002,1732.2061140199999,0.3049215999999433,1732.6505491999997,1732.6505491999997,n,0.6367388000003302,1735.1499086000003,1735.1499086000003,10,1.802,,,sub-048,55,85,700,bloc_loop.csv,2023-09-14_09h28.21.562,PainUncertainty,2022.2.5,143.2502625063379,
grave,forte,stimuli/330Hz,stimuli/forte,bloc_5,prob20hthp_12trials.xlsx,2,24,20,80,0,,,,,0,4,4,4,1,7,19,1,,,,,,,,4.6,1735.1499086000003,1739.7555889000005,1739.7557478200001,0.30105039999943983,1740.1999015000001,1740.1999015000001,m,1.141055100000358,1745.1072946000004,1745.1072946000004,67,3.704,,,sub-048,55,85,700,bloc_loop.csv,2023-09-14_09h28.21.562,PainUncertainty,2022.2.5,143.2502625063379,
aigu,moderee,stimuli/660Hz,stimuli/moderee,bloc_5,prob20hthp_12trials.xlsx,2,24,20,80,0,,,,,0,4,4,4,1,8,20,8,,,,,,,,4.9,1745.1072946000004,1750.0064672999997,1750.0063553200002,0.3054303999997501,1750.4544249,1750.4544249,n,0.7483825999993314,1754.9703042,1754.9703042,2,3.699,,,sub-048,55,85,700,bloc_loop.csv,2023-09-14_09h28.21.562,PainUncertainty,2022.2.5,143.2502625063379,
grave,forte,stimuli/330Hz,stimuli/forte,bloc_5,prob20hthp_12trials.xlsx,2,24,20,80,0,,,,,0,4,4,4,1,9,21,2,,,,,,,,3.4,1754.9703042,1758.3758848999996,1758.37591732,0.3008950999992521,1758.8199901999997,1758.8199901999997,m,0.6888316999998096,1761.4265531,1761.4265531,84,1.864,,,sub-048,55,85,700,bloc_loop.csv,2023-09-14_09h28.21.562,PainUncertainty,2022.2.5,143.2502625063379,
aigu,moderee,stimuli/660Hz,stimuli/moderee,bloc_5,prob20hthp_12trials.xlsx,2,24,20,80,0,,,,,0,4,4,4,1,10,22,7,,,,,,,,4,1761.4265531,1765.4322475999998,1765.43220032,0.3048263999999108,1765.8760057999998,1765.8760057999998,n,0.8135829999996531,1769.9453386000005,1769.9453386000005,12,3.194,,,sub-048,55,85,700,bloc_loop.csv,2023-09-14_09h28.21.562,PainUncertainty,2022.2.5,143.2502625063379,
grave,moderee,stimuli/330Hz,stimuli/moderee,bloc_5,prob20hthp_12trials.xlsx,2,24,20,80,0,,,,,0,4,4,4,1,11,23,5,,,,,,,,4.9,1769.9453386000005,1774.8501389000003,1774.8502745199999,0.3048431999995955,1775.2960169999997,1775.2960169999997,m,0.865673699999661,1778.3846463,1778.3846463,58,2.17,,,sub-048,55,85,700,bloc_loop.csv,2023-09-14_09h28.21.562,PainUncertainty,2022.2.5,143.2502625063379,
grave,forte,stimuli/330Hz,stimuli/forte,bloc_6,prob50_50_4trials.xlsx,2,8,50,50,0,,,,,0,5,5,5,0,0,0,1,,,,,,,,3.7,1778.3846463,1782.0867607999999,1782.08674182,0.30501339999955235,1782.5309502,1782.5309502,m,0.7818744000001061,1785.7869259,1785.7869259,80,2.407,,,sub-048,55,85,700,bloc_loop.csv,2023-09-14_09h28.21.562,PainUncertainty,2022.2.5,143.2502625063379,
aigu,forte,stimuli/660Hz,stimuli/forte,bloc_6,prob50_50_4trials.xlsx,2,8,50,50,0,,,,,0,5,5,5,0,1,1,3,,,,,,,,4.4,1785.7869259,1790.1918126,1790.1918978199997,0.30487080000057176,1790.6358910999998,1790.6358910999998,m,0.7215580999995836,1795.3435356,1795.3435356,83,3.927,,,sub-048,55,85,700,bloc_loop.csv,2023-09-14_09h28.21.562,PainUncertainty,2022.2.5,143.2502625063379,
grave,moderee,stimuli/330Hz,stimuli/moderee,bloc_6,prob50_50_4trials.xlsx,2,8,50,50,0,,,,,0,5,5,5,0,2,2,0,,,,,,,,4.5,1795.3435356,1799.8456919999999,1799.8456937200003,0.3049466000002212,1800.2898250999997,1800.2898250999997,n,0.9888191999993978,1805.1114518000004,1805.1114518000004,5,3.767,,,sub-048,55,85,700,bloc_loop.csv,2023-09-14_09h28.21.562,PainUncertainty,2022.2.5,143.2502625063379,
aigu,moderee,stimuli/660Hz,stimuli/moderee,bloc_6,prob50_50_4trials.xlsx,2,8,50,50,0,,,,,0,5,5,5,0,3,3,2,,,,,,,,4.5,1805.1114518000004,1809.6106505999996,1809.61070222,0.3049444999996922,1810.0547818000005,1810.0547818000005,n,0.6891949000005297,1814.3483778,1814.3483778,7,3.538,,,sub-048,55,85,700,bloc_loop.csv,2023-09-14_09h28.21.562,PainUncertainty,2022.2.5,143.2502625063379,
aigu,moderee,stimuli/660Hz,stimuli/moderee,bloc_6,prob50_50_4trials.xlsx,2,8,50,50,0,,,,,0,5,5,5,1,0,4,2,,,,,,,,4.4,1814.3483778,1818.7510104000003,1818.7521521200001,0.3038669999996273,1819.1948488999997,1819.1948488999997,n,0.9181978000001436,1822.6599929000004,1822.6599929000004,8,2.483,,,sub-048,55,85,700,bloc_loop.csv,2023-09-14_09h28.21.562,PainUncertainty,2022.2.5,143.2502625063379,
aigu,forte,stimuli/660Hz,stimuli/forte,bloc_6,prob50_50_4trials.xlsx,2,8,50,50,0,,,,,0,5,5,5,1,1,5,3,,,,,,,,4.3,1822.6599929000004,1826.9625062000005,1826.96045542,0.30519100000037724,1827.4069940999998,1827.4069940999998,m,1.7286478000000898,1833.6399029000004,1833.6399029000004,79,4.448,,,sub-048,55,85,700,bloc_loop.csv,2023-09-14_09h28.21.562,PainUncertainty,2022.2.5,143.2502625063379,
grave,moderee,stimuli/330Hz,stimuli/moderee,bloc_6,prob50_50_4trials.xlsx,2,8,50,50,0,,,,,0,5,5,5,1,2,6,0,,,,,,,,4.8,1833.6399029000004,1838.4407561999997,1838.4407559200004,0.30504450000080396,1838.8847752000001,1838.8847752000001,n,1.6089701000005334,1845.4841331999996,1845.4841331999996,25,4.935,,,sub-048,55,85,700,bloc_loop.csv,2023-09-14_09h28.21.562,PainUncertainty,2022.2.5,143.2502625063379,
grave,forte,stimuli/330Hz,stimuli/forte,bloc_6,prob50_50_4trials.xlsx,2,8,50,50,0,,,,,0,5,5,5,1,3,7,1,,,,,,,,3.6,1845.4841331999996,1849.0874500999998,1849.0875665199997,0.30501449999974284,1849.5316469999998,1849.5316469999998,m,1.0843012999998791,1852.4059127,1852.4059127,74,1.733,,,sub-048,55,85,700,bloc_loop.csv,2023-09-14_09h28.21.562,PainUncertainty,2022.2.5,143.2502625063379,
aigu,forte,stimuli/660Hz,stimuli/forte,bloc_7,prob80hthp_12trials.xlsx,2,24,80,20,1,,,,,0,6,6,6,0,0,0,7,,,,,,,,3.5,1852.4059127,1855.9077871,1855.90784372,0.3048391000002084,1856.3519299999998,1856.3519299999998,n,0.7856174999992618,1860.8919979000002,1860.8919979000002,25,3.699,,,sub-048,55,85,700,bloc_loop.csv,2023-09-14_09h28.21.562,PainUncertainty,2022.2.5,143.2502625063379,
grave,moderee,stimuli/330Hz,stimuli/moderee,bloc_7,prob80hthp_12trials.xlsx,2,24,80,20,1,,,,,0,6,6,6,0,1,1,2,,,,,,,,3.9,1860.8919979000002,1864.7977154,1864.79779232,0.305010900000525,1865.2418779999998,1865.2418779999998,n,0.9242374000000382,1867.7330391000005,1867.7330391000005,9,1.51,,,sub-048,55,85,700,bloc_loop.csv,2023-09-14_09h28.21.562,PainUncertainty,2022.2.5,143.2502625063379,
grave,moderee,stimuli/330Hz,stimuli/moderee,bloc_7,prob80hthp_12trials.xlsx,2,24,80,20,1,,,,,0,6,6,6,0,2,2,1,,,,,,,,3,1867.7330391000005,1870.7362604999998,1870.73623232,0.30497009999999136,1871.1805833999997,1871.1805833999997,n,0.8007523999999648,1875.0715261000005,1875.0715261000005,10,3.02,,,sub-048,55,85,700,bloc_loop.csv,2023-09-14_09h28.21.562,PainUncertainty,2022.2.5,143.2502625063379,
aigu,moderee,stimuli/660Hz,stimuli/moderee,bloc_7,prob80hthp_12trials.xlsx,2,24,80,20,1,,,,,0,6,6,6,0,3,3,11,,,,,,,,4.2,1875.0715261000005,1879.2716161999997,1879.2718221199998,0.3052935999994588,1879.7199080999999,1879.7199080999999,n,0.7521013999999013,1883.7008057000003,1883.7008057000003,4,3.17,,,sub-048,55,85,700,bloc_loop.csv,2023-09-14_09h28.21.562,PainUncertainty,2022.2.5,143.2502625063379,
grave,moderee,stimuli/330Hz,stimuli/moderee,bloc_7,prob80hthp_12trials.xlsx,2,24,80,20,1,,,,,0,6,6,6,0,4,4,4,,,,,,,,4.1,1883.7008057000003,1887.8009332000001,1887.80105382,0.30466230000001815,1888.2452704999996,1888.2452704999996,n,0.7501446999990549,1890.7331089999998,1890.7331089999998,13,1.691,,,sub-048,55,85,700,bloc_loop.csv,2023-09-14_09h28.21.562,PainUncertainty,2022.2.5,143.2502625063379,
aigu,forte,stimuli/660Hz,stimuli/forte,bloc_7,prob80hthp_12trials.xlsx,2,24,80,20,1,,,,,0,6,6,6,0,5,5,9,,,,,,,,3.6,1890.7331089999998,1894.3362693999998,1894.33655022,0.30471379999926285,1894.7803208000005,1894.7803208000005,m,0.6986210000000028,1898.2792027000005,1898.2792027000005,70,2.747,,,sub-048,55,85,700,bloc_loop.csv,2023-09-14_09h28.21.562,PainUncertainty,2022.2.5,143.2502625063379,
grave,moderee,stimuli/330Hz,stimuli/moderee,bloc_7,prob80hthp_12trials.xlsx,2,24,80,20,1,,,,,0,6,6,6,0,6,6,0,,,,,,,,3.9,1898.2792027000005,1902.1842008000003,1902.1841389200004,0.30503680000038,1902.6282860000001,1902.6282860000001,n,0.773001099999874,1908.2377459,1908.2377459,1,4.719,,,sub-048,55,85,700,bloc_loop.csv,2023-09-14_09h28.21.562,PainUncertainty,2022.2.5,143.2502625063379,
aigu,forte,stimuli/660Hz,stimuli/forte,bloc_7,prob80hthp_12trials.xlsx,2,24,80,20,1,,,,,0,6,6,6,0,7,7,10,,,,,,,,3,1908.2377459,1911.2411589000003,1911.2408151200002,0.30001939999965543,1911.6857759000004,1911.6857759000004,m,1.3744971999999507,1915.7011708999999,1915.7011708999999,65,2.587,,,sub-048,55,85,700,bloc_loop.csv,2023-09-14_09h28.21.562,PainUncertainty,2022.2.5,143.2502625063379,
aigu,forte,stimuli/660Hz,stimuli/forte,bloc_7,prob80hthp_12trials.xlsx,2,24,80,20,1,,,,,0,6,6,6,0,8,8,8,,,,,,,,4.3,1915.7011708999999,1920.0055255999996,1920.0055720200003,0.3052192000004652,1920.4498310999998,1920.4498310999998,m,1.3107825000001867,1923.9313533000004,1923.9313533000004,82,2.114,,,sub-048,55,85,700,bloc_loop.csv,2023-09-14_09h28.21.562,PainUncertainty,2022.2.5,143.2502625063379,
grave,moderee,stimuli/330Hz,stimuli/moderee,bloc_7,prob80hthp_12trials.xlsx,2,24,80,20,1,,,,,0,6,6,6,0,9,9,3,,,,,,,,4,1923.9313533000004,1927.9305943999998,1927.9305715200003,0.30481649999910587,1928.3745964999998,1928.3745964999998,n,1.1280692999994244,1931.5872110999999,1931.5872110999999,6,2.03,,,sub-048,55,85,700,bloc_loop.csv,2023-09-14_09h28.21.562,PainUncertainty,2022.2.5,143.2502625063379,
aigu,forte,stimuli/660Hz,stimuli/forte,bloc_7,prob80hthp_12trials.xlsx,2,24,80,20,1,,,,,0,6,6,6,0,10,10,6,,,,,,,,3.4,1931.5872110999999,1934.9865901000003,1934.9866303200001,0.299724999999853,1935.4297030999996,1935.4297030999996,m,1.2141004000000066,1938.3487314000004,1938.3487314000004,62,1.643,,,sub-048,55,85,700,bloc_loop.csv,2023-09-14_09h28.21.562,PainUncertainty,2022.2.5,143.2502625063379,
grave,forte,stimuli/330Hz,stimuli/forte,bloc_7,prob80hthp_12trials.xlsx,2,24,80,20,1,,,,,0,6,6,6,0,11,11,5,,,,,,,,4.7,1938.3487314000004,1943.0500063,1943.0499951200004,0.3054538999995202,1943.4941685000003,1943.4941685000003,m,0.8116202999995039,1945.9725269,1945.9725269,75,1.609,,,sub-048,55,85,700,bloc_loop.csv,2023-09-14_09h28.21.562,PainUncertainty,2022.2.5,143.2502625063379,
aigu,forte,stimuli/660Hz,stimuli/forte,bloc_7,prob80hthp_12trials.xlsx,2,24,80,20,1,,,,,0,6,6,6,1,0,12,7,,,,,,,,4.3,1945.9725269,1950.2734621,1950.2734747199997,0.3054210000000239,1950.7215010999998,1950.7215010999998,m,0.708018699999684,1954.8275485000004,1954.8275485000004,73,3.344,,,sub-048,55,85,700,bloc_loop.csv,2023-09-14_09h28.21.562,PainUncertainty,2022.2.5,143.2502625063379,
grave,moderee,stimuli/330Hz,stimuli/moderee,bloc_7,prob80hthp_12trials.xlsx,2,24,80,20,1,,,,,0,6,6,6,1,1,13,2,,,,,,,,3.4,1954.8275485000004,1958.2323454999996,1958.23238222,0.3052748000000065,1958.6803386000001,1958.6803386000001,n,0.7803115000001526,1963.2684468999996,1963.2684468999996,8,3.747,,,sub-048,55,85,700,bloc_loop.csv,2023-09-14_09h28.21.562,PainUncertainty,2022.2.5,143.2502625063379,
aigu,forte,stimuli/660Hz,stimuli/forte,bloc_7,prob80hthp_12trials.xlsx,2,24,80,20,1,,,,,0,6,6,6,1,2,14,9,,,,,,,,4.5,1963.2684468999996,1967.7684967000005,1967.7688097200003,0.3045774000001984,1968.2124096999996,1968.2124096999996,m,1.307926599999064,1971.9137001,1971.9137001,71,2.336,,,sub-048,55,85,700,bloc_loop.csv,2023-09-14_09h28.21.562,PainUncertainty,2022.2.5,143.2502625063379,
grave,moderee,stimuli/330Hz,stimuli/moderee,bloc_7,prob80hthp_12trials.xlsx,2,24,80,20,1,,,,,0,6,6,6,1,3,15,3,,,,,,,,4.2,1971.9137001,1976.1164434000002,1976.1164415200005,0.30531299999984185,1976.5607320999998,1976.5607320999998,n,0.9458829000000151,1982.6570154,1982.6570154,9,5.087,,,sub-048,55,85,700,bloc_loop.csv,2023-09-14_09h28.21.562,PainUncertainty,2022.2.5,143.2502625063379,
aigu,forte,stimuli/660Hz,stimuli/forte,bloc_7,prob80hthp_12trials.xlsx,2,24,80,20,1,,,,,0,6,6,6,1,4,16,10,,,,,,,,3.4,1982.6570154,1986.0620590999997,1986.0621946200004,0.3049955000005866,1986.5064259,1986.5064259,m,0.8064741999992293,1990.9181101000004,1990.9181101000004,57,3.546,,,sub-048,55,85,700,bloc_loop.csv,2023-09-14_09h28.21.562,PainUncertainty,2022.2.5,143.2502625063379,
aigu,forte,stimuli/660Hz,stimuli/forte,bloc_7,prob80hthp_12trials.xlsx,2,24,80,20,1,,,,,0,6,6,6,1,5,17,6,,,,,,,,3.3,1990.9181101000004,1994.2227524999998,1994.22283362,0.3049898999997822,1994.6706614000004,1994.6706614000004,m,1.5395026999999573,1998.5913852000003,1998.5913852000003,63,2.31,,,sub-048,55,85,700,bloc_loop.csv,2023-09-14_09h28.21.562,PainUncertainty,2022.2.5,143.2502625063379,
grave,moderee,stimuli/330Hz,stimuli/moderee,bloc_7,prob80hthp_12trials.xlsx,2,24,80,20,1,,,,,0,6,6,6,1,6,18,4,,,,,,,,4.4,1998.5913852000003,2002.9949735,2002.99518372,0.30453079999915644,2003.4387794000004,2003.4387794000004,n,0.8739161999997123,2007.1584014999999,2007.1584014999999,7,2.788,,,sub-048,55,85,700,bloc_loop.csv,2023-09-14_09h28.21.562,PainUncertainty,2022.2.5,143.2502625063379,
grave,forte,stimuli/330Hz,stimuli/forte,bloc_7,prob80hthp_12trials.xlsx,2,24,80,20,1,,,,,0,6,6,6,1,7,19,5,,,,,,,,3.5,2007.1584014999999,2010.6622773999998,2010.6622188200004,0.2997620999994979,2011.1009856,2011.1009856,m,0.8210503999994216,2014.7186154,2014.7186154,39,2.733,,,sub-048,55,85,700,bloc_loop.csv,2023-09-14_09h28.21.562,PainUncertainty,2022.2.5,143.2502625063379,
aigu,moderee,stimuli/660Hz,stimuli/moderee,bloc_7,prob80hthp_12trials.xlsx,2,24,80,20,1,,,,,0,6,6,6,1,8,20,11,,,,,,,,4.6,2014.7186154,2019.3231022,2019.3230504200005,0.3056245999996463,2019.7720792999999,2019.7720792999999,n,0.7087308000004668,2023.7979650999996,2023.7979650999996,1,3.25,,,sub-048,55,85,700,bloc_loop.csv,2023-09-14_09h28.21.562,PainUncertainty,2022.2.5,143.2502625063379,
aigu,forte,stimuli/660Hz,stimuli/forte,bloc_7,prob80hthp_12trials.xlsx,2,24,80,20,1,,,,,0,6,6,6,1,9,21,8,,,,,,,,4.5,2023.7979650999996,2028.3038757000004,2028.3038056199998,0.3050462000001062,2028.7501836000001,2028.7501836000001,m,1.369313599999714,2033.6442881000003,2033.6442881000003,65,3.469,,,sub-048,55,85,700,bloc_loop.csv,2023-09-14_09h28.21.562,PainUncertainty,2022.2.5,143.2502625063379,
grave,moderee,stimuli/330Hz,stimuli/moderee,bloc_7,prob80hthp_12trials.xlsx,2,24,80,20,1,,,,,0,6,6,6,1,10,22,1,,,,,,,,5,2033.6442881000003,2038.644695,2038.6450448199998,0.3046973999998954,2039.0888347999999,2039.0888347999999,n,0.7429274000000987,2043.8416980000002,2043.8416980000002,5,3.952,,,sub-048,55,85,700,bloc_loop.csv,2023-09-14_09h28.21.562,PainUncertainty,2022.2.5,143.2502625063379,
grave,moderee,stimuli/330Hz,stimuli/moderee,bloc_7,prob80hthp_12trials.xlsx,2,24,80,20,1,,,,,0,6,6,6,1,11,23,0,,,,,,,,3.8,2043.8416980000002,2047.6457695999998,2047.6457865200005,0.3050793000002159,2048.0899084000002,2048.0899084000002,n,0.6401147999999921,2053.0442662000005,2053.0442662000005,4,2.281,,,sub-048,55,85,700,bloc_loop.csv,2023-09-14_09h28.21.562,PainUncertainty,2022.2.5,143.2502625063379,
,,,,bloc_7,prob80hthp_12trials.xlsx,2,24,80,20,1,,,,,0,6,6,6,,,,,0,0,0,0,,,,,,,,,,,,,,,,,2053.0442662000005,2086.7822564,sub-048,55,85,700,bloc_loop.csv,2023-09-14_09h28.21.562,PainUncertainty,2022.2.5,143.2502625063379,
aigu,forte,stimuli/660Hz,stimuli/forte,bloc_8,prob50_50_4trials.xlsx,3,12,50,50,0,,,,,0,7,7,7,0,0,0,3,,,,,,,,4.9,2088.2769209,2093.1806384,2093.1795994199997,0.30487519999951473,2093.6275621000004,2093.6275621000004,m,1.8554119000004903,2097.2753099,2097.2753099,62,1.739,,,sub-048,55,85,700,bloc_loop.csv,2023-09-14_09h28.21.562,PainUncertainty,2022.2.5,143.2502625063379,
grave,moderee,stimuli/330Hz,stimuli/moderee,bloc_8,prob50_50_4trials.xlsx,3,12,50,50,0,,,,,0,7,7,7,0,1,1,0,,,,,,,,4.5,2097.2753099,2101.7776010999996,2101.77779652,0.30478300000049785,2102.2248959999997,2102.2248959999997,n,0.7703950000000077,2107.6793335,2107.6793335,5,4.622,,,sub-048,55,85,700,bloc_loop.csv,2023-09-14_09h28.21.562,PainUncertainty,2022.2.5,143.2502625063379,
grave,forte,stimuli/330Hz,stimuli/forte,bloc_8,prob50_50_4trials.xlsx,3,12,50,50,0,,,,,0,7,7,7,0,2,2,1,,,,,,,,3.2,2107.6793335,2110.8823251000003,2110.8824217200004,0.30487989999983256,2111.3264830999997,2111.3264830999997,m,0.895276599999761,2114.2807971,2114.2807971,62,1.997,,,sub-048,55,85,700,bloc_loop.csv,2023-09-14_09h28.21.562,PainUncertainty,2022.2.5,143.2502625063379,
aigu,moderee,stimuli/660Hz,stimuli/moderee,bloc_8,prob50_50_4trials.xlsx,3,12,50,50,0,,,,,0,7,7,7,0,3,3,2,,,,,,,,4.4,2114.2807971,2118.6818506,2118.6820071200004,0.3049489999993966,2119.1260474,2119.1260474,n,0.7237017000002197,2124.3825687999997,2124.3825687999997,1,4.469,,,sub-048,55,85,700,bloc_loop.csv,2023-09-14_09h28.21.562,PainUncertainty,2022.2.5,143.2502625063379,
aigu,moderee,stimuli/660Hz,stimuli/moderee,bloc_8,prob50_50_4trials.xlsx,3,12,50,50,0,,,,,0,7,7,7,1,0,4,2,,,,,,,,4.6,2124.3825687999997,2128.9825538000005,2128.9822958199998,0.3050475000000006,2129.4297913,2129.4297913,n,0.7770469000001867,2135.9704156999996,2135.9704156999996,4,5.706,,,sub-048,55,85,700,bloc_loop.csv,2023-09-14_09h28.21.562,PainUncertainty,2022.2.5,143.2502625063379,
grave,moderee,stimuli/330Hz,stimuli/moderee,bloc_8,prob50_50_4trials.xlsx,3,12,50,50,0,,,,,0,7,7,7,1,1,5,0,,,,,,,,3,2135.9704156999996,2138.9760323,2138.9761064199997,0.30495780000001105,2139.4201619000005,2139.4201619000005,n,0.6512969999998859,2147.7984262,2147.7984262,5,7.671,,,sub-048,55,85,700,bloc_loop.csv,2023-09-14_09h28.21.562,PainUncertainty,2022.2.5,143.2502625063379,
aigu,forte,stimuli/660Hz,stimuli/forte,bloc_8,prob50_50_4trials.xlsx,3,12,50,50,0,,,,,0,7,7,7,1,2,6,3,,,,,,,,3.5,2147.7984262,2151.3039915,2151.3039950200005,0.30565329999990354,2151.7531464000003,2151.7531464000003,m,0.9102586999993036,2155.0711266999997,2155.0711266999997,62,2.344,,,sub-048,55,85,700,bloc_loop.csv,2023-09-14_09h28.21.562,PainUncertainty,2022.2.5,143.2502625063379,
grave,forte,stimuli/330Hz,stimuli/forte,bloc_8,prob50_50_4trials.xlsx,3,12,50,50,0,,,,,0,7,7,7,1,3,7,1,,,,,,,,4.2,2155.0711266999997,2159.2701431000005,2159.2702060200004,0.30474099999992177,2159.7145050999998,2159.7145050999998,m,0.7740108999992117,2163.5598136999997,2163.5598136999997,65,3.012,,,sub-048,55,85,700,bloc_loop.csv,2023-09-14_09h28.21.562,PainUncertainty,2022.2.5,143.2502625063379,
grave,moderee,stimuli/330Hz,stimuli/moderee,bloc_8,prob50_50_4trials.xlsx,3,12,50,50,0,,,,,0,7,7,7,2,0,8,0,,,,,,,,3,2163.5598136999997,2166.5628829999996,2166.56297922,0.30634290000034525,2167.012842,2167.012842,n,0.7733594999995148,2169.9197688000004,2169.9197688000004,4,2.073,,,sub-048,55,85,700,bloc_loop.csv,2023-09-14_09h28.21.562,PainUncertainty,2022.2.5,143.2502625063379,
grave,forte,stimuli/330Hz,stimuli/forte,bloc_8,prob50_50_4trials.xlsx,3,12,50,50,0,,,,,0,7,7,7,2,1,9,1,,,,,,,,4,2169.9197688000004,2173.9245471000004,2173.92460232,0.30133630000000267,2174.3692254999996,2174.3692254999996,m,0.8354953000002752,2177.9924045,2177.9924045,70,2.722,,,sub-048,55,85,700,bloc_loop.csv,2023-09-14_09h28.21.562,PainUncertainty,2022.2.5,143.2502625063379,
aigu,forte,stimuli/660Hz,stimuli/forte,bloc_8,prob50_50_4trials.xlsx,3,12,50,50,0,,,,,0,7,7,7,2,2,10,3,,,,,,,,4.8,2177.9924045,2182.7940455,2182.79416152,0.30506250000053114,2183.2421363000003,2183.2421363000003,m,0.6946279999997387,2186.2236451999997,2186.2236451999997,74,2.224,,,sub-048,55,85,700,bloc_loop.csv,2023-09-14_09h28.21.562,PainUncertainty,2022.2.5,143.2502625063379,
aigu,moderee,stimuli/660Hz,stimuli/moderee,bloc_8,prob50_50_4trials.xlsx,3,12,50,50,0,,,,,0,7,7,7,2,3,11,2,,,,,,,,3.7,2186.2236451999997,2189.9267370999996,2189.92674632,0.3048704999991969,2190.3706308,2190.3706308,n,0.6726664000002529,2195.5589950000003,2195.5589950000003,4,4.447,,,sub-048,55,85,700,bloc_loop.csv,2023-09-14_09h28.21.562,PainUncertainty,2022.2.5,143.2502625063379,
aigu,moderee,stimuli/660Hz,stimuli/moderee,bloc_9,prob20hthp_12trials.xlsx,3,36,80,20,0,,,,,0,8,8,8,0,0,0,9,,,,,,,,3.7,2195.5589950000003,2199.2607838000004,2199.2608447200005,0.3050687000004473,2199.7050013,2199.7050013,n,1.099610799999482,2206.347415,2206.347415,5,5.475,,,sub-048,55,85,700,bloc_loop.csv,2023-09-14_09h28.21.562,PainUncertainty,2022.2.5,143.2502625063379,
grave,moderee,stimuli/330Hz,stimuli/moderee,bloc_9,prob20hthp_12trials.xlsx,3,36,80,20,0,,,,,0,8,8,8,0,1,1,5,,,,,,,,4.4,2206.347415,2210.7488188999996,2210.7494198199997,0.29995510000026115,2211.1947863000005,2211.1947863000005,n,0.7157890000003135,2213.9888775,2213.9888775,4,2.017,,,sub-048,55,85,700,bloc_loop.csv,2023-09-14_09h28.21.562,PainUncertainty,2022.2.5,143.2502625063379,
aigu,forte,stimuli/660Hz,stimuli/forte,bloc_9,prob20hthp_12trials.xlsx,3,36,80,20,0,,,,,0,8,8,8,0,2,2,11,,,,,,,,4.6,2213.9888775,2218.5895953,2218.5895577200004,0.30493790000036824,2219.0337244,2219.0337244,m,0.7351858999995784,2223.9936754,2223.9936754,74,4.163,,,sub-048,55,85,700,bloc_loop.csv,2023-09-14_09h28.21.562,PainUncertainty,2022.2.5,143.2502625063379,
grave,forte,stimuli/330Hz,stimuli/forte,bloc_9,prob20hthp_12trials.xlsx,3,36,80,20,0,,,,,0,8,8,8,0,3,3,2,,,,,,,,4.4,2223.9936754,2228.3963105000003,2228.39635142,0.30513110000083543,2228.8409395,2228.8409395,m,1.4126830999998674,2231.137834,2231.137834,70,0.83,,,sub-048,55,85,700,bloc_loop.csv,2023-09-14_09h28.21.562,PainUncertainty,2022.2.5,143.2502625063379,
aigu,moderee,stimuli/660Hz,stimuli/moderee,bloc_9,prob20hthp_12trials.xlsx,3,36,80,20,0,,,,,0,8,8,8,0,4,4,10,,,,,,,,4.9,2231.137834,2236.042963,2236.0430665199997,0.3050262000006114,2236.487131,2236.487131,n,0.578516099999888,2242.7441678000005,2242.7441678000005,5,5.615,,,sub-048,55,85,700,bloc_loop.csv,2023-09-14_09h28.21.562,PainUncertainty,2022.2.5,143.2502625063379,
aigu,moderee,stimuli/660Hz,stimuli/moderee,bloc_9,prob20hthp_12trials.xlsx,3,36,80,20,0,,,,,0,8,8,8,0,5,5,8,,,,,,,,3.1,2242.7441678000005,2245.8439141999997,2245.84323852,0.3071159999999509,2246.2945442,2246.2945442,n,0.5446329999999762,2249.1991023,2249.1991023,4,2.309,,,sub-048,55,85,700,bloc_loop.csv,2023-09-14_09h28.21.562,PainUncertainty,2022.2.5,143.2502625063379,
aigu,moderee,stimuli/660Hz,stimuli/moderee,bloc_9,prob20hthp_12trials.xlsx,3,36,80,20,0,,,,,0,8,8,8,0,6,6,7,,,,,,,,3,2249.1991023,2252.1981088,2252.19827862,0.30016020000039134,2252.6426222,2252.6426222,n,0.7994284999999763,2257.5433486,2257.5433486,4,4.039,,,sub-048,55,85,700,bloc_loop.csv,2023-09-14_09h28.21.562,PainUncertainty,2022.2.5,143.2502625063379,
grave,forte,stimuli/330Hz,stimuli/forte,bloc_9,prob20hthp_12trials.xlsx,3,36,80,20,0,,,,,0,8,8,8,0,7,7,3,,,,,,,,3.8,2257.5433486,2261.3446749000004,2261.3447317200003,0.3049361000003046,2261.7889978000003,2261.7889978000003,m,0.8382468000004337,2267.0233854,2267.0233854,76,4.331,,,sub-048,55,85,700,bloc_loop.csv,2023-09-14_09h28.21.562,PainUncertainty,2022.2.5,143.2502625063379,
aigu,moderee,stimuli/660Hz,stimuli/moderee,bloc_9,prob20hthp_12trials.xlsx,3,36,80,20,0,,,,,0,8,8,8,0,8,8,6,,,,,,,,3.1,2267.0233854,2270.1234778999997,2270.1235038199998,0.30498679999982414,2270.5681513,2270.5681513,n,0.8932258999998339,2273.4468784,2273.4468784,8,1.927,,,sub-048,55,85,700,bloc_loop.csv,2023-09-14_09h28.21.562,PainUncertainty,2022.2.5,143.2502625063379,
grave,forte,stimuli/330Hz,stimuli/forte,bloc_9,prob20hthp_12trials.xlsx,3,36,80,20,0,,,,,0,8,8,8,0,9,9,0,,,,,,,,4.4,2273.4468784,2277.8465146,2277.84654102,0.3051524000002246,2278.2909176000003,2278.2909176000003,m,0.7512872999991487,2282.0160429999996,2282.0160429999996,71,2.907,,,sub-048,55,85,700,bloc_loop.csv,2023-09-14_09h28.21.562,PainUncertainty,2022.2.5,143.2502625063379,
grave,forte,stimuli/330Hz,stimuli/forte,bloc_9,prob20hthp_12trials.xlsx,3,36,80,20,0,,,,,0,8,8,8,0,10,10,1,,,,,,,,4.7,2282.0160429999996,2286.7156172000005,2286.7155036199997,0.305210999999872,2287.1598028,2287.1598028,m,0.7655847999999423,2289.6717222999996,2289.6717222999996,75,1.686,,,sub-048,55,85,700,bloc_loop.csv,2023-09-14_09h28.21.562,PainUncertainty,2022.2.5,143.2502625063379,
grave,forte,stimuli/330Hz,stimuli/forte,bloc_9,prob20hthp_12trials.xlsx,3,36,80,20,0,,,,,0,8,8,8,0,11,11,4,,,,,,,,4.7,2289.6717222999996,2294.3762256,2294.3763790200005,0.30499280000003637,2294.8204869,2294.8204869,m,1.618204599999899,2298.0774542999998,2298.0774542999998,82,1.585,,,sub-048,55,85,700,bloc_loop.csv,2023-09-14_09h28.21.562,PainUncertainty,2022.2.5,143.2502625063379,
aigu,moderee,stimuli/660Hz,stimuli/moderee,bloc_9,prob20hthp_12trials.xlsx,3,36,80,20,0,,,,,0,8,8,8,1,0,12,9,,,,,,,,5,2298.0774542999998,2303.0791306,2303.07929802,0.3050665000000663,2303.5265619,2303.5265619,n,0.767649299999448,2306.5812726000004,2306.5812726000004,6,2.233,,,sub-048,55,85,700,bloc_loop.csv,2023-09-14_09h28.21.562,PainUncertainty,2022.2.5,143.2502625063379,
grave,forte,stimuli/330Hz,stimuli/forte,bloc_9,prob20hthp_12trials.xlsx,3,36,80,20,0,,,,,0,8,8,8,1,1,13,0,,,,,,,,4.2,2306.5812726000004,2310.7824522,2310.78167482,0.30487449999964156,2311.2289756,2311.2289756,m,0.8407686000005015,2313.8384810999996,2313.8384810999996,72,1.703,,,sub-048,55,85,700,bloc_loop.csv,2023-09-14_09h28.21.562,PainUncertainty,2022.2.5,143.2502625063379,
grave,forte,stimuli/330Hz,stimuli/forte,bloc_9,prob20hthp_12trials.xlsx,3,36,80,20,0,,,,,0,8,8,8,1,2,14,1,,,,,,,,3.8,2313.8384810999996,2317.64303,2317.6430589200004,0.3049066000003222,2318.0875386999996,2318.0875386999996,m,0.7177085999996962,2320.4234145,2320.4234145,70,1.555,,,sub-048,55,85,700,bloc_loop.csv,2023-09-14_09h28.21.562,PainUncertainty,2022.2.5,143.2502625063379,
grave,moderee,stimuli/330Hz,stimuli/moderee,bloc_9,prob20hthp_12trials.xlsx,3,36,80,20,0,,,,,0,8,8,8,1,3,15,5,,,,,,,,3.5,2320.4234145,2323.9283874000002,2323.92839952,0.30522079999991547,2324.3737656000003,2324.3737656000003,n,0.6632586999999148,2328.6713909,2328.6713909,5,3.58,,,sub-048,55,85,700,bloc_loop.csv,2023-09-14_09h28.21.562,PainUncertainty,2022.2.5,143.2502625063379,
grave,forte,stimuli/330Hz,stimuli/forte,bloc_9,prob20hthp_12trials.xlsx,3,36,80,20,0,,,,,0,8,8,8,1,4,16,2,,,,,,,,4.1,2328.6713909,2332.7769641000004,2332.7769932200003,0.3052526999999827,2333.2212048,2333.2212048,m,0.7092870000001312,2337.4301363000004,2337.4301363000004,73,3.434,,,sub-048,55,85,700,bloc_loop.csv,2023-09-14_09h28.21.562,PainUncertainty,2022.2.5,143.2502625063379,
aigu,moderee,stimuli/660Hz,stimuli/moderee,bloc_9,prob20hthp_12trials.xlsx,3,36,80,20,0,,,,,0,8,8,8,1,5,17,10,,,,,,,,3.2,2337.4301363000004,2340.6317454,2340.63186422,0.30503109999972366,2341.0758766999998,2341.0758766999998,n,0.7076053999994656,2347.0196908,2347.0196908,3,5.184,,,sub-048,55,85,700,bloc_loop.csv,2023-09-14_09h28.21.562,PainUncertainty,2022.2.5,143.2502625063379,
aigu,moderee,stimuli/660Hz,stimuli/moderee,bloc_9,prob20hthp_12trials.xlsx,3,36,80,20,0,,,,,0,8,8,8,1,6,18,6,,,,,,,,4.2,2347.0196908,2351.2232739,2351.2232419200004,0.29997499999990396,2351.6677959,2351.6677959,n,0.6642401000003701,2358.6088853,2358.6088853,1,6.213,,,sub-048,55,85,700,bloc_loop.csv,2023-09-14_09h28.21.562,PainUncertainty,2022.2.5,143.2502625063379,
aigu,moderee,stimuli/660Hz,stimuli/moderee,bloc_9,prob20hthp_12trials.xlsx,3,36,80,20,0,,,,,0,8,8,8,1,7,19,7,,,,,,,,4.9,2358.6088853,2363.5094252999997,2363.5094919200005,0.3051156000001356,2363.9537155999997,2363.9537155999997,n,0.634907000000112,2368.9490852,2368.9490852,2,4.302,,,sub-048,55,85,700,bloc_loop.csv,2023-09-14_09h28.21.562,PainUncertainty,2022.2.5,143.2502625063379,
grave,forte,stimuli/330Hz,stimuli/forte,bloc_9,prob20hthp_12trials.xlsx,3,36,80,20,0,,,,,0,8,8,8,1,8,20,4,,,,,,,,3.7,2368.9490852,2372.6493252,2372.64949192,0.30505059999995865,2373.0936389,2373.0936389,m,0.8276900999994723,2376.6852299,2376.6852299,72,2.707,,,sub-048,55,85,700,bloc_loop.csv,2023-09-14_09h28.21.562,PainUncertainty,2022.2.5,143.2502625063379,
aigu,forte,stimuli/660Hz,stimuli/forte,bloc_9,prob20hthp_12trials.xlsx,3,36,80,20,0,,,,,0,8,8,8,1,9,21,11,,,,,,,,4.3,2376.6852299,2380.9907488,2380.9909132200005,0.305031400000189,2381.4396933999997,2381.4396933999997,m,0.979163299999982,2385.4446503,2385.4446503,72,2.976,,,sub-048,55,85,700,bloc_loop.csv,2023-09-14_09h28.21.562,PainUncertainty,2022.2.5,143.2502625063379,
grave,forte,stimuli/330Hz,stimuli/forte,bloc_9,prob20hthp_12trials.xlsx,3,36,80,20,0,,,,,0,8,8,8,1,10,22,3,,,,,,,,4,2385.4446503,2389.4502297999998,2389.4501446199997,0.3049417000001995,2389.8968336,2389.8968336,m,1.382279699999799,2396.2023421000004,2396.2023421000004,79,4.863,,,sub-048,55,85,700,bloc_loop.csv,2023-09-14_09h28.21.562,PainUncertainty,2022.2.5,143.2502625063379,
aigu,moderee,stimuli/660Hz,stimuli/moderee,bloc_9,prob20hthp_12trials.xlsx,3,36,80,20,0,,,,,0,8,8,8,1,11,23,8,,,,,,,,4.1,2396.2023421000004,2400.3056564999997,2400.30562332,0.30483559999993304,2400.7540326999997,2400.7540326999997,n,0.8251384999998663,2405.8080001,2405.8080001,8,4.171,,,sub-048,55,85,700,bloc_loop.csv,2023-09-14_09h28.21.562,PainUncertainty,2022.2.5,143.2502625063379,
grave,forte,stimuli/330Hz,stimuli/forte,bloc_9,prob20hthp_12trials.xlsx,3,36,80,20,0,,,,,0,8,8,8,2,0,24,4,,,,,,,,4,2405.8080001,2409.8134964,2409.81356052,0.3051672999999937,2410.2579269,2410.2579269,m,0.7060811999995167,2414.0874051,2414.0874051,86,3.073,,,sub-048,55,85,700,bloc_loop.csv,2023-09-14_09h28.21.562,PainUncertainty,2022.2.5,143.2502625063379,
aigu,moderee,stimuli/660Hz,stimuli/moderee,bloc_9,prob20hthp_12trials.xlsx,3,36,80,20,0,,,,,0,8,8,8,2,1,25,7,,,,,,,,4.5,2414.0874051,2418.5926535,2418.5936441199997,0.30444399999942107,2419.0403569,2419.0403569,n,0.7633987000003799,2421.6005361999996,2421.6005361999996,6,1.733,,,sub-048,55,85,700,bloc_loop.csv,2023-09-14_09h28.21.562,PainUncertainty,2022.2.5,143.2502625063379,
grave,forte,stimuli/330Hz,stimuli/forte,bloc_9,prob20hthp_12trials.xlsx,3,36,80,20,0,,,,,0,8,8,8,2,2,26,3,,,,,,,,4.7,2421.6005361999996,2426.3015599,2426.30171292,0.30494220000036876,2426.7458884999996,2426.7458884999996,m,0.7026009000005615,2429.463285,2429.463285,74,1.955,,,sub-048,55,85,700,bloc_loop.csv,2023-09-14_09h28.21.562,PainUncertainty,2022.2.5,143.2502625063379,
grave,forte,stimuli/330Hz,stimuli/forte,bloc_9,prob20hthp_12trials.xlsx,3,36,80,20,0,,,,,0,8,8,8,2,3,27,1,,,,,,,,3.1,2429.463285,2432.5661581000004,2432.56642632,0.304833499999404,2433.0104577,2433.0104577,m,0.8299046000006456,2435.5704106000003,2435.5704106000003,69,1.664,,,sub-048,55,85,700,bloc_loop.csv,2023-09-14_09h28.21.562,PainUncertainty,2022.2.5,143.2502625063379,
aigu,moderee,stimuli/660Hz,stimuli/moderee,bloc_9,prob20hthp_12trials.xlsx,3,36,80,20,0,,,,,0,8,8,8,2,4,28,10,,,,,,,,4.5,2435.5704106000003,2440.0739937,2440.07403802,0.30514600000060454,2440.5182419000002,2440.5182419000002,n,0.628969999999299,2443.9127645999997,2443.9127645999997,4,2.711,,,sub-048,55,85,700,bloc_loop.csv,2023-09-14_09h28.21.562,PainUncertainty,2022.2.5,143.2502625063379,
grave,moderee,stimuli/330Hz,stimuli/moderee,bloc_9,prob20hthp_12trials.xlsx,3,36,80,20,0,,,,,0,8,8,8,2,5,29,5,,,,,,,,3.7,2443.9127645999997,2447.6172088000003,2447.61731352,0.30572440000014467,2448.0658799000003,2448.0658799000003,n,1.653271899999254,2452.9125598,2452.9125598,3,3.142,,,sub-048,55,85,700,bloc_loop.csv,2023-09-14_09h28.21.562,PainUncertainty,2022.2.5,143.2502625063379,
aigu,moderee,stimuli/660Hz,stimuli/moderee,bloc_9,prob20hthp_12trials.xlsx,3,36,80,20,0,,,,,0,8,8,8,2,6,30,6,,,,,,,,4.6,2452.9125598,2457.5139392,2457.5138747200003,0.30505360000006476,2457.9616223000003,2457.9616223000003,n,0.7439908000001196,2461.7843596000002,2461.7843596000002,3,3.012,,,sub-048,55,85,700,bloc_loop.csv,2023-09-14_09h28.21.562,PainUncertainty,2022.2.5,143.2502625063379,
grave,forte,stimuli/330Hz,stimuli/forte,bloc_9,prob20hthp_12trials.xlsx,3,36,80,20,0,,,,,0,8,8,8,2,7,31,2,,,,,,,,3,2461.7843596000002,2464.7851796000004,2464.7852591200003,0.3053908000001684,2465.2294466000003,2465.2294466000003,m,0.905105100000128,2469.9662643,2469.9662643,74,3.773,,,sub-048,55,85,700,bloc_loop.csv,2023-09-14_09h28.21.562,PainUncertainty,2022.2.5,143.2502625063379,
aigu,moderee,stimuli/660Hz,stimuli/moderee,bloc_9,prob20hthp_12trials.xlsx,3,36,80,20,0,,,,,0,8,8,8,2,8,32,9,,,,,,,,4.7,2469.9662643,2474.6684677000003,2474.6684463200004,0.3051034999998592,2475.1127846,2475.1127846,n,0.9048539000000346,2479.0463845000004,2479.0463845000004,4,2.962,,,sub-048,55,85,700,bloc_loop.csv,2023-09-14_09h28.21.562,PainUncertainty,2022.2.5,143.2502625063379,
aigu,moderee,stimuli/660Hz,stimuli/moderee,bloc_9,prob20hthp_12trials.xlsx,3,36,80,20,0,,,,,0,8,8,8,2,9,33,8,,,,,,,,3.4,2479.0463845000004,2482.447464,2482.4474282200003,0.3050210999999763,2482.8914732000003,2482.8914732000003,n,0.7767826000003879,2486.0627860000004,2486.0627860000004,5,2.338,,,sub-048,55,85,700,bloc_loop.csv,2023-09-14_09h28.21.562,PainUncertainty,2022.2.5,143.2502625063379,
aigu,forte,stimuli/660Hz,stimuli/forte,bloc_9,prob20hthp_12trials.xlsx,3,36,80,20,0,,,,,0,8,8,8,2,10,34,11,,,,,,,,3.8,2486.0627860000004,2489.8647057999997,2489.86473512,0.3019501999997374,2490.3096441,2490.3096441,m,0.8125370000002476,2496.5955386000005,2496.5955386000005,49,5.413,,,sub-048,55,85,700,bloc_loop.csv,2023-09-14_09h28.21.562,PainUncertainty,2022.2.5,143.2502625063379,
grave,forte,stimuli/330Hz,stimuli/forte,bloc_9,prob20hthp_12trials.xlsx,3,36,80,20,0,,,,,0,8,8,8,2,11,35,0,,,,,,,,3.4,2496.5955386000005,2499.9979295000003,2499.99796112,0.3050435999994079,2500.4420622999996,2500.4420622999996,m,0.7594591000001856,2502.6908028999997,2502.6908028999997,64,1.463,,,sub-048,55,85,700,bloc_loop.csv,2023-09-14_09h28.21.562,PainUncertainty,2022.2.5,143.2502625063379,
