cue_,stimulus_,cue_fichier,stimulus_fichier,block_name,block_trials_file,block_n_reps,block_ntrials,block_prob_highP_highT,block_prob_highP_lowT,block_pause_after,Bloc_essai.thisRepN,Bloc_essai.thisTrialN,Bloc_essai.thisN,Bloc_essai.thisIndex,blocks.thisRepN,blocks.thisTrialN,blocks.thisN,blocks.thisIndex,trials.thisRepN,trials.thisTrialN,trials.thisN,trials.thisIndex,pause_loop.thisRepN,pause_loop.thisTrialN,pause_loop.thisN,pause_loop.thisIndex,key_resp_5.started,start_calib.started,key_resp_2.started,ISI_duration,pause.started,pause.stopped,cue.started,ISI.started,choice_pain.started,Choice.started,choice_pain.keys,choice_pain.rt,main_text.started,confirm_text.started,ratingScale.response,ratingScale.rt,choice_pain.stopped,Choice.stopped,key_resp_3.started,key_resp_6.started,participant,low_ma,high_ma,failsafe_ma,block_file,date,expName,psychopyVersion,frameRate,
grave,moderee,stimuli/330Hz,stimuli/moderee,,,,,,,,0,0,0,0,,,,,,,,,,,,,29.96573019999778,172.7605440000043,223.29845000000205,4,224.44678060000297,228.46060150000267,228.46599521999596,0.3076007000054233,228.90322249999736,228.90322249999736,n,1.0436209999897983,232.71904900000663,232.71904900000663,26,2.706,,,,,sub-058,35,70,700,bloc_loop.csv,2023-10-11_13h47.02.985,PainUncertainty,2022.2.5,143.5661545785615,
aigu,moderee,stimuli/660Hz,stimuli/moderee,,,,,,,,0,1,1,2,,,,,,,,,,,,,,,,4.9,232.71904900000663,237.62200089999533,237.62669768000194,0.30027350000455044,238.06405849999283,238.06405849999283,m,1.2241418000048725,242.8995811000059,242.8995811000059,43,3.54,,,,,sub-058,35,70,700,bloc_loop.csv,2023-10-11_13h47.02.985,PainUncertainty,2022.2.5,143.5661545785615,
aigu,forte,stimuli/660Hz,stimuli/forte,,,,,,,,0,2,2,3,,,,,,,,,,,,,,,,3.1,242.8995811000059,246.00251710000157,246.0026587399945,0.30071190001035575,246.44877849999466,246.44877849999466,m,0.769729699997697,249.43451079999795,249.43451079999795,53,2.157,,,,,sub-058,35,70,700,bloc_loop.csv,2023-10-11_13h47.02.985,PainUncertainty,2022.2.5,143.5661545785615,
grave,forte,stimuli/330Hz,stimuli/forte,,,,,,,,0,3,3,1,,,,,,,,,,,,,,,,5,249.43451079999795,254.4340863999969,254.43425444000167,0.3050187999906484,254.87822470000538,254.87822470000538,m,1.594611199994688,260.0440230999957,260.0440230999957,55,3.545,,,,,sub-058,35,70,700,bloc_loop.csv,2023-10-11_13h47.02.985,PainUncertainty,2022.2.5,143.5661545785615,
aigu,forte,stimuli/660Hz,stimuli/forte,bloc_1,prob20hthp_12trials.xlsx,4,48,20,80,0,,,,,0,0,0,0,0,0,0,11,,,,,,,,4.7,304.40658120000444,309.10714890000236,309.10760664000117,0.3049710000050254,309.55151849999675,309.55151849999675,m,1.3488210999930743,313.6434728000022,313.6434728000022,54,2.684,,,,,sub-058,35,70,700,bloc_loop.csv,2023-10-11_13h47.02.985,PainUncertainty,2022.2.5,143.5661545785615,
grave,forte,stimuli/330Hz,stimuli/forte,bloc_1,prob20hthp_12trials.xlsx,4,48,20,80,0,,,,,0,0,0,0,0,1,1,3,,,,,,,,3.2,313.6434728000022,316.8446788000001,316.84492193999466,0.30451270000776276,317.2923243999976,317.2923243999976,None,,321.1378890000051,321.1378890000051,60,1.331,,,,,sub-058,35,70,700,bloc_loop.csv,2023-10-11_13h47.02.985,PainUncertainty,2022.2.5,143.5661545785615,
aigu,moderee,stimuli/660Hz,stimuli/moderee,bloc_1,prob20hthp_12trials.xlsx,4,48,20,80,0,,,,,0,0,0,0,0,2,2,9,,,,,,,,4.3,321.1378890000051,325.44296939999913,325.44298664000524,0.2994939000054728,325.88753199999337,325.88753199999337,n,0.7732587999926182,329.607176599995,329.607176599995,34,2.883,,,,,sub-058,35,70,700,bloc_loop.csv,2023-10-11_13h47.02.985,PainUncertainty,2022.2.5,143.5661545785615,
aigu,moderee,stimuli/660Hz,stimuli/moderee,bloc_1,prob20hthp_12trials.xlsx,4,48,20,80,0,,,,,0,0,0,0,0,3,3,7,,,,,,,,3.4,329.607176599995,333.0128440999979,333.0127700400073,0.305152699991595,333.45707249999396,333.45707249999396,n,0.7971426000003703,336.92773530000704,336.92773530000704,24,2.613,,,,,sub-058,35,70,700,bloc_loop.csv,2023-10-11_13h47.02.985,PainUncertainty,2022.2.5,143.5661545785615,
aigu,moderee,stimuli/660Hz,stimuli/moderee,bloc_1,prob20hthp_12trials.xlsx,4,48,20,80,0,,,,,0,0,0,0,0,4,4,10,,,,,,,,4.1,336.92773530000704,341.02792059999774,341.02813294000515,0.30541770000127144,341.474727599998,341.474727599998,n,0.7488602999947034,344.6932575999963,344.6932575999963,31,2.412,,,,,sub-058,35,70,700,bloc_loop.csv,2023-10-11_13h47.02.985,PainUncertainty,2022.2.5,143.5661545785615,
aigu,moderee,stimuli/660Hz,stimuli/moderee,bloc_1,prob20hthp_12trials.xlsx,4,48,20,80,0,,,,,0,0,0,0,0,5,5,8,,,,,,,,3.5,344.6932575999963,348.1952231000032,348.19534664000383,0.30510399999911897,348.6398279999994,348.6398279999994,n,0.7683196999860229,351.1346437000029,351.1346437000029,29,1.643,,,,,sub-058,35,70,700,bloc_loop.csv,2023-10-11_13h47.02.985,PainUncertainty,2022.2.5,143.5661545785615,
grave,forte,stimuli/330Hz,stimuli/forte,bloc_1,prob20hthp_12trials.xlsx,4,48,20,80,0,,,,,0,0,0,0,0,6,6,4,,,,,,,,3.2,351.1346437000029,354.3347982999985,354.3348431399965,0.3050580999988597,354.77896569999575,354.77896569999575,m,0.8629509000020334,357.60692000000563,357.60692000000563,48,1.886,,,,,sub-058,35,70,700,bloc_loop.csv,2023-10-11_13h47.02.985,PainUncertainty,2022.2.5,143.5661545785615,
aigu,moderee,stimuli/660Hz,stimuli/moderee,bloc_1,prob20hthp_12trials.xlsx,4,48,20,80,0,,,,,0,0,0,0,0,7,7,6,,,,,,,,3,357.60692000000563,360.6064044999948,360.6064518399973,0.3050245000049472,361.05063349999546,361.05063349999546,n,0.5868139999947743,363.98355000000447,363.98355000000447,29,2.259,,,,,sub-058,35,70,700,bloc_loop.csv,2023-10-11_13h47.02.985,PainUncertainty,2022.2.5,143.5661545785615,
grave,forte,stimuli/330Hz,stimuli/forte,bloc_1,prob20hthp_12trials.xlsx,4,48,20,80,0,,,,,0,0,0,0,0,8,8,0,,,,,,,,4.3,363.98355000000447,368.2880712000042,368.28793143999354,0.3047882999962894,368.7320569000003,368.7320569000003,m,1.0290189999941504,372.53189709999424,372.53189709999424,67,2.713,,,,,sub-058,35,70,700,bloc_loop.csv,2023-10-11_13h47.02.985,PainUncertainty,2022.2.5,143.5661545785615,
grave,forte,stimuli/330Hz,stimuli/forte,bloc_1,prob20hthp_12trials.xlsx,4,48,20,80,0,,,,,0,0,0,0,0,9,9,1,,,,,,,,3,372.53189709999424,375.5336543000012,375.5321981399931,0.30491190000611823,375.9763762999937,375.9763762999937,m,1.5112342999927932,381.2573986000061,381.2573986000061,63,3.705,,,,,sub-058,35,70,700,bloc_loop.csv,2023-10-11_13h47.02.985,PainUncertainty,2022.2.5,143.5661545785615,
grave,forte,stimuli/330Hz,stimuli/forte,bloc_1,prob20hthp_12trials.xlsx,4,48,20,80,0,,,,,0,0,0,0,0,10,10,2,,,,,,,,3.2,381.2573986000061,384.45648579999397,384.45649734000034,0.29946840000047814,384.8995234000031,384.8995234000031,m,1.4239070999901742,390.3995411000069,390.3995411000069,58,3.996,,,,,sub-058,35,70,700,bloc_loop.csv,2023-10-11_13h47.02.985,PainUncertainty,2022.2.5,143.5661545785615,
grave,moderee,stimuli/330Hz,stimuli/moderee,bloc_1,prob20hthp_12trials.xlsx,4,48,20,80,0,,,,,0,0,0,0,0,11,11,5,,,,,,,,4.7,390.3995411000069,395.1036843000038,395.1037328400009,0.30480729999544565,395.54819109999517,395.54819109999517,n,1.2587427999969805,400.0344468999974,400.0344468999974,28,3.143,,,,,sub-058,35,70,700,bloc_loop.csv,2023-10-11_13h47.02.985,PainUncertainty,2022.2.5,143.5661545785615,
grave,forte,stimuli/330Hz,stimuli/forte,bloc_1,prob20hthp_12trials.xlsx,4,48,20,80,0,,,,,0,0,0,0,1,0,12,0,,,,,,,,4.6,400.0344468999974,404.63984839999466,404.63993894000595,0.30463860000600107,405.0840157000057,405.0840157000057,m,1.2833648999949219,408.87167860000045,408.87167860000045,55,2.434,,,,,sub-058,35,70,700,bloc_loop.csv,2023-10-11_13h47.02.985,PainUncertainty,2022.2.5,143.5661545785615,
grave,moderee,stimuli/330Hz,stimuli/moderee,bloc_1,prob20hthp_12trials.xlsx,4,48,20,80,0,,,,,0,0,0,0,1,1,13,5,,,,,,,,3.9,408.87167860000045,412.7723799999949,412.7723950399988,0.3049748999910662,413.2166566999949,413.2166566999949,n,1.4329005000035977,415.86896510000224,415.86896510000224,26,1.162,,,,,sub-058,35,70,700,bloc_loop.csv,2023-10-11_13h47.02.985,PainUncertainty,2022.2.5,143.5661545785615,
aigu,moderee,stimuli/660Hz,stimuli/moderee,bloc_1,prob20hthp_12trials.xlsx,4,48,20,80,0,,,,,0,0,0,0,1,2,14,9,,,,,,,,3.1,415.86896510000224,418.9747770999966,418.97482544000667,0.3050968000025023,419.421159000005,419.421159000005,n,0.9036043000087375,421.2881374999997,421.2881374999997,36,0.879,,,,,sub-058,35,70,700,bloc_loop.csv,2023-10-11_13h47.02.985,PainUncertainty,2022.2.5,143.5661545785615,
aigu,forte,stimuli/660Hz,stimuli/forte,bloc_1,prob20hthp_12trials.xlsx,4,48,20,80,0,,,,,0,0,0,0,1,3,15,11,,,,,,,,3.3,421.2881374999997,424.59312380000483,424.5931754399964,0.3050366999959806,425.03733340000326,425.03733340000326,None,,430.4914082000032,430.4914082000032,31,2.949,427.505442099995,427.505442099995,,,sub-058,35,70,700,bloc_loop.csv,2023-10-11_13h47.02.985,PainUncertainty,2022.2.5,143.5661545785615,
grave,forte,stimuli/330Hz,stimuli/forte,bloc_1,prob20hthp_12trials.xlsx,4,48,20,80,0,,,,,0,0,0,0,1,4,16,4,,,,,,,,5,430.4914082000032,435.4973242999986,435.4972378400009,0.29977929999586195,435.942177200006,435.942177200006,None,,441.0571487999987,441.0571487999987,34,2.594,438.4089185000048,438.4089185000048,,,sub-058,35,70,700,bloc_loop.csv,2023-10-11_13h47.02.985,PainUncertainty,2022.2.5,143.5661545785615,
aigu,moderee,stimuli/660Hz,stimuli/moderee,bloc_1,prob20hthp_12trials.xlsx,4,48,20,80,0,,,,,0,0,0,0,1,5,17,8,,,,,,,,4.8,441.0571487999987,445.8595495000045,445.8595344399975,0.3052004999917699,446.30422499999986,446.30422499999986,n,0.6845586999988882,449.70113849999325,449.70113849999325,25,2.649,,,,,sub-058,35,70,700,bloc_loop.csv,2023-10-11_13h47.02.985,PainUncertainty,2022.2.5,143.5661545785615,
aigu,moderee,stimuli/660Hz,stimuli/moderee,bloc_1,prob20hthp_12trials.xlsx,4,48,20,80,0,,,,,0,0,0,0,1,6,18,6,,,,,,,,4.9,449.70113849999325,454.60367729999416,454.6036156399961,0.3016434000019217,455.04822939999576,455.04822939999576,n,0.728926900002989,458.90538209999795,458.90538209999795,20,3.059,,,,,sub-058,35,70,700,bloc_loop.csv,2023-10-11_13h47.02.985,PainUncertainty,2022.2.5,143.5661545785615,
grave,forte,stimuli/330Hz,stimuli/forte,bloc_1,prob20hthp_12trials.xlsx,4,48,20,80,0,,,,,0,0,0,0,1,7,19,3,,,,,,,,4.3,458.90538209999795,463.2091122999991,463.20908283999887,0.30492909999156836,463.6529823000019,463.6529823000019,m,0.9452511999988928,466.38309439999284,466.38309439999284,62,1.718,,,,,sub-058,35,70,700,bloc_loop.csv,2023-10-11_13h47.02.985,PainUncertainty,2022.2.5,143.5661545785615,
grave,forte,stimuli/330Hz,stimuli/forte,bloc_1,prob20hthp_12trials.xlsx,4,48,20,80,0,,,,,0,0,0,0,1,8,20,2,,,,,,,,4.4,466.38309439999284,470.7864325999981,470.78808154000143,0.30364640000334475,471.2346610999957,471.2346610999957,m,1.5335031999857165,473.87823180000123,473.87823180000123,65,1.045,,,,,sub-058,35,70,700,bloc_loop.csv,2023-10-11_13h47.02.985,PainUncertainty,2022.2.5,143.5661545785615,
grave,forte,stimuli/330Hz,stimuli/forte,bloc_1,prob20hthp_12trials.xlsx,4,48,20,80,0,,,,,0,0,0,0,1,9,21,1,,,,,,,,4.5,473.87823180000123,478.3785624000011,478.3776320399949,0.30517130000225734,478.82554869999876,478.82554869999876,m,0.7831437999993796,481.55095319999964,481.55095319999964,59,1.857,,,,,sub-058,35,70,700,bloc_loop.csv,2023-10-11_13h47.02.985,PainUncertainty,2022.2.5,143.5661545785615,
aigu,moderee,stimuli/660Hz,stimuli/moderee,bloc_1,prob20hthp_12trials.xlsx,4,48,20,80,0,,,,,0,0,0,0,1,10,22,7,,,,,,,,4.9,481.55095319999964,486.4546796000068,486.45472103999344,0.3048052999947686,486.89873400000215,486.89873400000215,n,0.6631866999960039,490.5452390999999,490.5452390999999,26,2.927,,,,,sub-058,35,70,700,bloc_loop.csv,2023-10-11_13h47.02.985,PainUncertainty,2022.2.5,143.5661545785615,
aigu,moderee,stimuli/660Hz,stimuli/moderee,bloc_1,prob20hthp_12trials.xlsx,4,48,20,80,0,,,,,0,0,0,0,1,11,23,10,,,,,,,,4.5,490.5452390999999,495.04650660000334,495.0465193400043,0.30497559999639634,495.49459200000274,495.49459200000274,n,0.7172874999960186,500.5817621000024,500.5817621000024,15,4.309,,,,,sub-058,35,70,700,bloc_loop.csv,2023-10-11_13h47.02.985,PainUncertainty,2022.2.5,143.5661545785615,
aigu,moderee,stimuli/660Hz,stimuli/moderee,bloc_1,prob20hthp_12trials.xlsx,4,48,20,80,0,,,,,0,0,0,0,2,0,24,7,,,,,,,,3.2,500.5817621000024,503.7830624000053,503.783327839995,0.304808699991554,504.22740350000095,504.22740350000095,n,0.8110135000024457,508.52337320000515,508.52337320000515,18,3.434,,,,,sub-058,35,70,700,bloc_loop.csv,2023-10-11_13h47.02.985,PainUncertainty,2022.2.5,143.5661545785615,
aigu,moderee,stimuli/660Hz,stimuli/moderee,bloc_1,prob20hthp_12trials.xlsx,4,48,20,80,0,,,,,0,0,0,0,2,1,25,8,,,,,,,,3.1,508.52337320000515,511.62428499999805,511.6243062400055,0.30493420000129845,512.0685780000058,512.0685780000058,n,0.8995540000032634,516.5462459999981,516.5462459999981,21,3.511,,,,,sub-058,35,70,700,bloc_loop.csv,2023-10-11_13h47.02.985,PainUncertainty,2022.2.5,143.5661545785615,
grave,forte,stimuli/330Hz,stimuli/forte,bloc_1,prob20hthp_12trials.xlsx,4,48,20,80,0,,,,,0,0,0,0,2,2,26,1,,,,,,,,3.9,516.5462459999981,520.4520730999939,520.4523709399975,0.3050676000129897,520.9008166999993,520.9008166999993,m,1.302814099995885,523.6109626999969,523.6109626999969,55,1.342,,,,,sub-058,35,70,700,bloc_loop.csv,2023-10-11_13h47.02.985,PainUncertainty,2022.2.5,143.5661545785615,
aigu,forte,stimuli/660Hz,stimuli/forte,bloc_1,prob20hthp_12trials.xlsx,4,48,20,80,0,,,,,0,0,0,0,2,3,27,11,,,,,,,,3.9,523.6109626999969,527.5150162000064,527.5151718400041,0.3049983999953838,527.9595098999998,527.9595098999998,m,1.1050185999920359,531.4552547000058,531.4552547000058,46,2.337,,,,,sub-058,35,70,700,bloc_loop.csv,2023-10-11_13h47.02.985,PainUncertainty,2022.2.5,143.5661545785615,
grave,forte,stimuli/330Hz,stimuli/forte,bloc_1,prob20hthp_12trials.xlsx,4,48,20,80,0,,,,,0,0,0,0,2,4,28,3,,,,,,,,4.4,531.4552547000058,535.8563328000018,535.856292440006,0.3050743999920087,536.3004330999975,536.3004330999975,m,1.135656200000085,538.8722640000051,538.8722640000051,70,1.357,,,,,sub-058,35,70,700,bloc_loop.csv,2023-10-11_13h47.02.985,PainUncertainty,2022.2.5,143.5661545785615,
aigu,moderee,stimuli/660Hz,stimuli/moderee,bloc_1,prob20hthp_12trials.xlsx,4,48,20,80,0,,,,,0,0,0,0,2,5,29,10,,,,,,,,3.7,538.8722640000051,542.5723089999956,542.5722817399976,0.30508669999835547,543.0164491000032,543.0164491000032,n,1.0012216000031913,545.9033186000015,545.9033186000015,16,1.822,,,,,sub-058,35,70,700,bloc_loop.csv,2023-10-11_13h47.02.985,PainUncertainty,2022.2.5,143.5661545785615,
grave,moderee,stimuli/330Hz,stimuli/moderee,bloc_1,prob20hthp_12trials.xlsx,4,48,20,80,0,,,,,0,0,0,0,2,6,30,5,,,,,,,,4.7,545.9033186000015,550.601508000007,550.6023458400043,0.30001890000130516,551.0457248000021,551.0457248000021,n,1.1561726000072667,554.2604801999987,554.2604801999987,24,1.983,,,,,sub-058,35,70,700,bloc_loop.csv,2023-10-11_13h47.02.985,PainUncertainty,2022.2.5,143.5661545785615,
grave,forte,stimuli/330Hz,stimuli/forte,bloc_1,prob20hthp_12trials.xlsx,4,48,20,80,0,,,,,0,0,0,0,2,7,31,2,,,,,,,,3.3,554.2604801999987,557.5602371999994,557.5602794400068,0.30506129999412224,558.004729399996,558.004729399996,None,,561.3061817999987,561.3061817999987,50,0.809,560.4756030999997,560.4756030999997,,,sub-058,35,70,700,bloc_loop.csv,2023-10-11_13h47.02.985,PainUncertainty,2022.2.5,143.5661545785615,
grave,forte,stimuli/330Hz,stimuli/forte,bloc_1,prob20hthp_12trials.xlsx,4,48,20,80,0,,,,,0,0,0,0,2,8,32,4,,,,,,,,4.7,561.3061817999987,566.0059552000021,566.0060236400052,0.3051592999981949,566.4540080000006,566.4540080000006,m,0.9046510000043781,569.9382059000054,569.9382059000054,65,2.511,,,,,sub-058,35,70,700,bloc_loop.csv,2023-10-11_13h47.02.985,PainUncertainty,2022.2.5,143.5661545785615,
aigu,moderee,stimuli/660Hz,stimuli/moderee,bloc_1,prob20hthp_12trials.xlsx,4,48,20,80,0,,,,,0,0,0,0,2,9,33,6,,,,,,,,4.4,569.9382059000054,574.3402550000028,574.3402562400036,0.30478810000931844,574.7841040000058,574.7841040000058,n,0.8117589000030421,576.7149230000068,576.7149230000068,25,1.04,,,,,sub-058,35,70,700,bloc_loop.csv,2023-10-11_13h47.02.985,PainUncertainty,2022.2.5,143.5661545785615,
grave,forte,stimuli/330Hz,stimuli/forte,bloc_1,prob20hthp_12trials.xlsx,4,48,20,80,0,,,,,0,0,0,0,2,10,34,0,,,,,,,,3.1,576.7149230000068,579.8197949000023,579.8199222400028,0.3050677999999607,580.2645019000047,580.2645019000047,m,0.8697054000076605,582.7061479999975,582.7061479999975,64,1.498,,,,,sub-058,35,70,700,bloc_loop.csv,2023-10-11_13h47.02.985,PainUncertainty,2022.2.5,143.5661545785615,
aigu,moderee,stimuli/660Hz,stimuli/moderee,bloc_1,prob20hthp_12trials.xlsx,4,48,20,80,0,,,,,0,0,0,0,2,11,35,9,,,,,,,,3.3,582.7061479999975,586.0080256999936,586.0081309400005,0.30498939999961294,586.4522044000041,586.4522044000041,n,0.7471731999976328,589.1624086999946,589.1624086999946,17,1.893,,,,,sub-058,35,70,700,bloc_loop.csv,2023-10-11_13h47.02.985,PainUncertainty,2022.2.5,143.5661545785615,
grave,forte,stimuli/330Hz,stimuli/forte,bloc_1,prob20hthp_12trials.xlsx,4,48,20,80,0,,,,,0,0,0,0,3,0,36,3,,,,,,,,4.5,589.1624086999946,593.6619512000034,593.6620092400001,0.3056376000022283,594.1101340000023,594.1101340000023,n,1.319256700007827,597.6314394999936,597.6314394999936,19,2.143,,,,,sub-058,35,70,700,bloc_loop.csv,2023-10-11_13h47.02.985,PainUncertainty,2022.2.5,143.5661545785615,
grave,forte,stimuli/330Hz,stimuli/forte,bloc_1,prob20hthp_12trials.xlsx,4,48,20,80,0,,,,,0,0,0,0,3,1,37,4,,,,,,,,4.4,597.6314394999936,602.0310796999984,602.0311590399972,0.30514310000580736,602.4788523000025,602.4788523000025,m,2.157881899998756,607.8596061999997,607.8596061999997,28,3.149,,,,,sub-058,35,70,700,bloc_loop.csv,2023-10-11_13h47.02.985,PainUncertainty,2022.2.5,143.5661545785615,
aigu,moderee,stimuli/660Hz,stimuli/moderee,bloc_1,prob20hthp_12trials.xlsx,4,48,20,80,0,,,,,0,0,0,0,3,2,38,9,,,,,,,,3,607.8596061999997,610.8585696999944,610.8586549399945,0.30503699999826495,611.3050817000039,611.3050817000039,n,0.600679900002433,613.8206766999938,613.8206766999938,19,1.858,,,,,sub-058,35,70,700,bloc_loop.csv,2023-10-11_13h47.02.985,PainUncertainty,2022.2.5,143.5661545785615,
aigu,moderee,stimuli/660Hz,stimuli/moderee,bloc_1,prob20hthp_12trials.xlsx,4,48,20,80,0,,,,,0,0,0,0,3,3,39,10,,,,,,,,3.6,613.8206766999938,617.4218095999968,617.4218823400035,0.3048999000020558,617.8698180999927,617.8698180999927,n,0.878724099995452,621.3146749000007,621.3146749000007,20,2.481,,,,,sub-058,35,70,700,bloc_loop.csv,2023-10-11_13h47.02.985,PainUncertainty,2022.2.5,143.5661545785615,
grave,forte,stimuli/330Hz,stimuli/forte,bloc_1,prob20hthp_12trials.xlsx,4,48,20,80,0,,,,,0,0,0,0,3,4,40,2,,,,,,,,3.3,621.3146749000007,624.6167380999977,624.6167011399987,0.3054141000029631,625.060897599993,625.060897599993,m,0.840678000007756,628.3286004999973,628.3286004999973,67,2.368,,,,,sub-058,35,70,700,bloc_loop.csv,2023-10-11_13h47.02.985,PainUncertainty,2022.2.5,143.5661545785615,
aigu,forte,stimuli/660Hz,stimuli/forte,bloc_1,prob20hthp_12trials.xlsx,4,48,20,80,0,,,,,0,0,0,0,3,5,41,11,,,,,,,,5,628.3286004999973,633.3337407999934,633.3338015399961,0.3021646999986842,633.7790801999945,633.7790801999945,m,2.155932699999539,637.6139205999934,637.6139205999934,56,1.615,,,,,sub-058,35,70,700,bloc_loop.csv,2023-10-11_13h47.02.985,PainUncertainty,2022.2.5,143.5661545785615,
grave,forte,stimuli/330Hz,stimuli/forte,bloc_1,prob20hthp_12trials.xlsx,4,48,20,80,0,,,,,0,0,0,0,3,6,42,0,,,,,,,,4.2,637.6139205999934,641.8132290999929,641.8133979400038,0.30481100000906736,642.2577142999944,642.2577142999944,m,1.2138429999904474,644.9966533999977,644.9966533999977,58,1.456,,,,,sub-058,35,70,700,bloc_loop.csv,2023-10-11_13h47.02.985,PainUncertainty,2022.2.5,143.5661545785615,
grave,moderee,stimuli/330Hz,stimuli/moderee,bloc_1,prob20hthp_12trials.xlsx,4,48,20,80,0,,,,,0,0,0,0,3,7,43,5,,,,,,,,4.8,644.9966533999977,649.8004975999938,649.8006417400059,0.3049918000033358,650.2444430000032,650.2444430000032,n,0.819236200011801,653.3554482000036,653.3554482000036,21,2.239,,,,,sub-058,35,70,700,bloc_loop.csv,2023-10-11_13h47.02.985,PainUncertainty,2022.2.5,143.5661545785615,
aigu,moderee,stimuli/660Hz,stimuli/moderee,bloc_1,prob20hthp_12trials.xlsx,4,48,20,80,0,,,,,0,0,0,0,3,8,44,7,,,,,,,,4.6,653.3554482000036,657.9610377000063,657.9611030400004,0.30478629999561235,658.405356400006,658.405356400006,n,0.7716650999936974,660.7531928999961,660.7531928999961,18,1.516,,,,,sub-058,35,70,700,bloc_loop.csv,2023-10-11_13h47.02.985,PainUncertainty,2022.2.5,143.5661545785615,
aigu,moderee,stimuli/660Hz,stimuli/moderee,bloc_1,prob20hthp_12trials.xlsx,4,48,20,80,0,,,,,0,0,0,0,3,9,45,8,,,,,,,,4.9,660.7531928999961,665.6563303000003,665.6563495400071,0.30531219999829773,666.101190100002,666.101190100002,n,0.6403332999907434,669.8782370999979,669.8782370999979,18,3.081,,,,,sub-058,35,70,700,bloc_loop.csv,2023-10-11_13h47.02.985,PainUncertainty,2022.2.5,143.5661545785615,
aigu,moderee,stimuli/660Hz,stimuli/moderee,bloc_1,prob20hthp_12trials.xlsx,4,48,20,80,0,,,,,0,0,0,0,3,10,46,6,,,,,,,,3.3,669.8782370999979,673.178155200003,673.1782444400044,0.304980600005365,673.6222688999987,673.6222688999987,n,0.6340089000004809,675.776042700003,675.776042700003,24,1.449,,,,,sub-058,35,70,700,bloc_loop.csv,2023-10-11_13h47.02.985,PainUncertainty,2022.2.5,143.5661545785615,
grave,forte,stimuli/330Hz,stimuli/forte,bloc_1,prob20hthp_12trials.xlsx,4,48,20,80,0,,,,,0,0,0,0,3,11,47,1,,,,,,,,3.9,675.776042700003,679.6788746999955,679.6788675400051,0.3054985999915516,680.1271722999954,680.1271722999954,m,0.6752109999943059,682.3284136000002,682.3284136000002,67,1.448,,,,,sub-058,35,70,700,bloc_loop.csv,2023-10-11_13h47.02.985,PainUncertainty,2022.2.5,143.5661545785615,
aigu,moderee,stimuli/660Hz,stimuli/moderee,bloc_2,prob50_50_4trials.xlsx,2,8,50,50,1,,,,,0,1,1,1,0,0,0,2,,,,,,,,3.5,682.3284136000002,685.8323399999936,685.8323050399952,0.3055843000038294,686.280746599994,686.280746599994,n,0.5304121000081068,688.7038078000041,688.7038078000041,27,1.817,,,,,sub-058,35,70,700,bloc_loop.csv,2023-10-11_13h47.02.985,PainUncertainty,2022.2.5,143.5661545785615,
grave,forte,stimuli/330Hz,stimuli/forte,bloc_2,prob50_50_4trials.xlsx,2,8,50,50,1,,,,,0,1,1,1,0,1,1,1,,,,,,,,3.7,688.7038078000041,692.4029016999993,692.4031298399962,0.3016291999956593,692.8479795000021,692.8479795000021,n,0.7159695000009378,696.8045107000071,696.8045107000071,31,3.184,,,,,sub-058,35,70,700,bloc_loop.csv,2023-10-11_13h47.02.985,PainUncertainty,2022.2.5,143.5661545785615,
aigu,forte,stimuli/660Hz,stimuli/forte,bloc_2,prob50_50_4trials.xlsx,2,8,50,50,1,,,,,0,1,1,1,0,2,2,3,,,,,,,,3.5,696.8045107000071,700.3077769999945,700.3064890400012,0.30510620000131894,700.7504677999968,700.7504677999968,m,0.7580054999998538,704.4613286999956,704.4613286999956,55,2.872,,,,,sub-058,35,70,700,bloc_loop.csv,2023-10-11_13h47.02.985,PainUncertainty,2022.2.5,143.5661545785615,
grave,moderee,stimuli/330Hz,stimuli/moderee,bloc_2,prob50_50_4trials.xlsx,2,8,50,50,1,,,,,0,1,1,1,0,3,3,0,,,,,,,,3.5,704.4613286999956,707.9672796999948,707.9673176399986,0.3049714000080712,708.4149230000039,708.4149230000039,n,0.669855500003905,712.4036664000014,712.4036664000014,31,3.239,,,,,sub-058,35,70,700,bloc_loop.csv,2023-10-11_13h47.02.985,PainUncertainty,2022.2.5,143.5661545785615,
grave,forte,stimuli/330Hz,stimuli/forte,bloc_2,prob50_50_4trials.xlsx,2,8,50,50,1,,,,,0,1,1,1,1,0,4,1,,,,,,,,5,712.4036664000014,717.4054939000052,717.4055238400063,0.30499089999648277,717.8496842000022,717.8496842000022,m,0.9810281000100076,725.1064509999997,725.1064509999997,65,6.211,,,,,sub-058,35,70,700,bloc_loop.csv,2023-10-11_13h47.02.985,PainUncertainty,2022.2.5,143.5661545785615,
aigu,forte,stimuli/660Hz,stimuli/forte,bloc_2,prob50_50_4trials.xlsx,2,8,50,50,1,,,,,0,1,1,1,1,1,5,3,,,,,,,,4.4,725.1064509999997,729.5111498000042,729.5111273399991,0.3063798999937717,729.9590755999961,729.9590755999961,None,,733.9926311000017,733.9926311000017,50,1.511,,,,,sub-058,35,70,700,bloc_loop.csv,2023-10-11_13h47.02.985,PainUncertainty,2022.2.5,143.5661545785615,
aigu,moderee,stimuli/660Hz,stimuli/moderee,bloc_2,prob50_50_4trials.xlsx,2,8,50,50,1,,,,,0,1,1,1,1,2,6,2,,,,,,,,4,733.9926311000017,737.9981698000047,737.9981903400069,0.30523949999769684,738.442813200003,738.442813200003,n,0.7799202999885892,742.2380914999958,742.2380914999958,6,2.948,,,,,sub-058,35,70,700,bloc_loop.csv,2023-10-11_13h47.02.985,PainUncertainty,2022.2.5,143.5661545785615,
grave,moderee,stimuli/330Hz,stimuli/moderee,bloc_2,prob50_50_4trials.xlsx,2,8,50,50,1,,,,,0,1,1,1,1,3,7,0,,,,,,,,4,742.2380914999958,746.2423649999982,746.2423393399979,0.2995250000094529,746.6834265999933,746.6834265999933,n,0.6494155999971554,750.4813947999937,750.4813947999937,16,1.121,,,,,sub-058,35,70,700,bloc_loop.csv,2023-10-11_13h47.02.985,PainUncertainty,2022.2.5,143.5661545785615,
,,,,bloc_2,prob50_50_4trials.xlsx,2,8,50,50,1,,,,,0,1,1,1,,,,,0,0,0,0,,,,,,,,,,,,,,,,,,,750.4813947999937,780.6837751999992,sub-058,35,70,700,bloc_loop.csv,2023-10-11_13h47.02.985,PainUncertainty,2022.2.5,143.5661545785615,
grave,moderee,stimuli/330Hz,stimuli/moderee,bloc_3,prob80hthp_12trials.xlsx,2,24,80,20,0,,,,,0,2,2,2,0,0,0,3,,,,,,,,3,782.1908717000042,785.1917395000055,785.1915722400038,0.30528070000582375,785.6376786000037,785.6376786000037,n,1.1305621000065003,788.6602902000013,788.6602902000013,19,1.83,,,,,sub-058,35,70,700,bloc_loop.csv,2023-10-11_13h47.02.985,PainUncertainty,2022.2.5,143.5661545785615,
grave,moderee,stimuli/330Hz,stimuli/moderee,bloc_3,prob80hthp_12trials.xlsx,2,24,80,20,0,,,,,0,2,2,2,0,1,1,4,,,,,,,,3,788.6602902000013,791.6642677000054,791.664387540007,0.30480320000788197,792.1086959999957,792.1086959999957,n,1.5336518999974942,795.3726366000046,795.3726366000046,33,1.678,,,,,sub-058,35,70,700,bloc_loop.csv,2023-10-11_13h47.02.985,PainUncertainty,2022.2.5,143.5661545785615,
aigu,moderee,stimuli/660Hz,stimuli/moderee,bloc_3,prob80hthp_12trials.xlsx,2,24,80,20,0,,,,,0,2,2,2,0,2,2,11,,,,,,,,4.1,795.3726366000046,799.477764700001,799.4777782399935,0.30550400000356603,799.9262796999974,799.9262796999974,n,0.8289800999918953,802.5340471999953,802.5340471999953,22,1.698,,,,,sub-058,35,70,700,bloc_loop.csv,2023-10-11_13h47.02.985,PainUncertainty,2022.2.5,143.5661545785615,
aigu,forte,stimuli/660Hz,stimuli/forte,bloc_3,prob80hthp_12trials.xlsx,2,24,80,20,0,,,,,0,2,2,2,0,3,3,10,,,,,,,,4.8,802.5340471999953,807.3397250999988,807.3397132400016,0.30545400000119116,807.787676699998,807.787676699998,n,1.92913829999452,811.2902028999961,811.2902028999961,39,1.498,,,,,sub-058,35,70,700,bloc_loop.csv,2023-10-11_13h47.02.985,PainUncertainty,2022.2.5,143.5661545785615,
grave,moderee,stimuli/330Hz,stimuli/moderee,bloc_3,prob80hthp_12trials.xlsx,2,24,80,20,0,,,,,0,2,2,2,0,4,4,0,,,,,,,,4.3,811.2902028999961,815.5910014999972,815.5910379400041,0.30495440000959206,816.0378859000048,816.0378859000048,n,2.3940512999979546,821.0225305000058,821.0225305000058,39,2.518,,,,,sub-058,35,70,700,bloc_loop.csv,2023-10-11_13h47.02.985,PainUncertainty,2022.2.5,143.5661545785615,
aigu,forte,stimuli/660Hz,stimuli/forte,bloc_3,prob80hthp_12trials.xlsx,2,24,80,20,0,,,,,0,2,2,2,0,5,5,6,,,,,,,,3.8,821.0225305000058,824.8283296000009,824.8285475400073,0.3048048999917228,825.2792650000047,825.2792650000047,m,0.7991483000078006,828.7562680999981,828.7562680999981,64,2.607,,,,,sub-058,35,70,700,bloc_loop.csv,2023-10-11_13h47.02.985,PainUncertainty,2022.2.5,143.5661545785615,
grave,forte,stimuli/330Hz,stimuli/forte,bloc_3,prob80hthp_12trials.xlsx,2,24,80,20,0,,,,,0,2,2,2,0,6,6,5,,,,,,,,3.2,828.7562680999981,831.9616015000065,831.9610221399955,0.30497709999326617,832.4051146999991,832.4051146999991,m,1.0207999999984168,834.9706702999974,834.9706702999974,69,1.489,,,,,sub-058,35,70,700,bloc_loop.csv,2023-10-11_13h47.02.985,PainUncertainty,2022.2.5,143.5661545785615,
aigu,forte,stimuli/660Hz,stimuli/forte,bloc_3,prob80hthp_12trials.xlsx,2,24,80,20,0,,,,,0,2,2,2,0,7,7,8,,,,,,,,4.4,834.9706702999974,839.3716923000029,839.371502939993,0.30568410000705626,839.8178914000018,839.8178914000018,m,0.9274989999976242,844.6705217999988,844.6705217999988,70,3.872,,,,,sub-058,35,70,700,bloc_loop.csv,2023-10-11_13h47.02.985,PainUncertainty,2022.2.5,143.5661545785615,
aigu,forte,stimuli/660Hz,stimuli/forte,bloc_3,prob80hthp_12trials.xlsx,2,24,80,20,0,,,,,0,2,2,2,0,8,8,7,,,,,,,,4.4,844.6705217999988,849.0742879000027,849.0742402399949,0.3003019000025233,849.519988,849.519988,m,1.769235200001276,854.1657088000065,854.1657088000065,53,2.796,,,,,sub-058,35,70,700,bloc_loop.csv,2023-10-11_13h47.02.985,PainUncertainty,2022.2.5,143.5661545785615,
grave,moderee,stimuli/330Hz,stimuli/moderee,bloc_3,prob80hthp_12trials.xlsx,2,24,80,20,0,,,,,0,2,2,2,0,9,9,1,,,,,,,,3,854.1657088000065,857.1654863000003,857.1655160399998,0.30479570000898093,857.6095684000029,857.6095684000029,n,0.6788289999967674,860.3646755999944,860.3646755999944,16,2.019,,,,,sub-058,35,70,700,bloc_loop.csv,2023-10-11_13h47.02.985,PainUncertainty,2022.2.5,143.5661545785615,
grave,moderee,stimuli/330Hz,stimuli/moderee,bloc_3,prob80hthp_12trials.xlsx,2,24,80,20,0,,,,,0,2,2,2,0,10,10,2,,,,,,,,3.5,860.3646755999944,863.8676400999975,863.8677192399948,0.3050723999913316,864.3139438999933,864.3139438999933,n,0.5966407000087202,866.2618974999932,866.2618974999932,22,1.223,,,,,sub-058,35,70,700,bloc_loop.csv,2023-10-11_13h47.02.985,PainUncertainty,2022.2.5,143.5661545785615,
aigu,forte,stimuli/660Hz,stimuli/forte,bloc_3,prob80hthp_12trials.xlsx,2,24,80,20,0,,,,,0,2,2,2,0,11,11,9,,,,,,,,5,866.2618974999932,871.2639497000055,871.2639724399953,0.30483280000044033,871.7081250000047,871.7081250000047,m,1.2173821000033058,874.8741272000043,874.8741272000043,60,1.879,,,,,sub-058,35,70,700,bloc_loop.csv,2023-10-11_13h47.02.985,PainUncertainty,2022.2.5,143.5661545785615,
grave,moderee,stimuli/330Hz,stimuli/moderee,bloc_3,prob80hthp_12trials.xlsx,2,24,80,20,0,,,,,0,2,2,2,1,0,12,0,,,,,,,,4.4,874.8741272000043,879.2787278000033,879.2787687400007,0.3053968000021996,879.7236720999936,879.7236720999936,n,0.6675869000027888,881.9383833000029,881.9383833000029,24,1.476,,,,,sub-058,35,70,700,bloc_loop.csv,2023-10-11_13h47.02.985,PainUncertainty,2022.2.5,143.5661545785615,
aigu,forte,stimuli/660Hz,stimuli/forte,bloc_3,prob80hthp_12trials.xlsx,2,24,80,20,0,,,,,0,2,2,2,1,1,13,6,,,,,,,,4.4,881.9383833000029,886.3436420999933,886.3427436399973,0.2990175000013551,886.7846565999935,886.7846565999935,m,2.3192995999997947,891.8307679999998,891.8307679999998,54,2.663,,,,,sub-058,35,70,700,bloc_loop.csv,2023-10-11_13h47.02.985,PainUncertainty,2022.2.5,143.5661545785615,
aigu,forte,stimuli/660Hz,stimuli/forte,bloc_3,prob80hthp_12trials.xlsx,2,24,80,20,0,,,,,0,2,2,2,1,2,14,7,,,,,,,,4.1,891.8307679999998,895.933753499994,895.9337991399982,0.30139429999690037,896.3779875000037,896.3779875000037,m,1.5951540999958524,899.7566241000022,899.7566241000022,63,1.712,,,,,sub-058,35,70,700,bloc_loop.csv,2023-10-11_13h47.02.985,PainUncertainty,2022.2.5,143.5661545785615,
grave,moderee,stimuli/330Hz,stimuli/moderee,bloc_3,prob80hthp_12trials.xlsx,2,24,80,20,0,,,,,0,2,2,2,1,3,15,3,,,,,,,,3.6,899.7566241000022,903.3580079999956,903.3580608399964,0.30498670000815764,903.8020646999939,903.8020646999939,n,0.7514437999925576,906.5310478000029,906.5310478000029,33,1.921,,,,,sub-058,35,70,700,bloc_loop.csv,2023-10-11_13h47.02.985,PainUncertainty,2022.2.5,143.5661545785615,
grave,moderee,stimuli/330Hz,stimuli/moderee,bloc_3,prob80hthp_12trials.xlsx,2,24,80,20,0,,,,,0,2,2,2,1,4,16,2,,,,,,,,3.4,906.5310478000029,909.9357615000044,909.9355623400072,0.30465920000278857,910.3796914999984,910.3796914999984,n,0.6503800000064075,913.3244586999936,913.3244586999936,21,2.226,,,,,sub-058,35,70,700,bloc_loop.csv,2023-10-11_13h47.02.985,PainUncertainty,2022.2.5,143.5661545785615,
aigu,forte,stimuli/660Hz,stimuli/forte,bloc_3,prob80hthp_12trials.xlsx,2,24,80,20,0,,,,,0,2,2,2,1,5,17,9,,,,,,,,4.6,913.3244586999936,917.929498700003,917.929631440001,0.30504399999335874,918.3778571000003,918.3778571000003,m,0.8908481999969808,921.0269624999928,921.0269624999928,67,1.69,,,,,sub-058,35,70,700,bloc_loop.csv,2023-10-11_13h47.02.985,PainUncertainty,2022.2.5,143.5661545785615,
grave,moderee,stimuli/330Hz,stimuli/moderee,bloc_3,prob80hthp_12trials.xlsx,2,24,80,20,0,,,,,0,2,2,2,1,6,18,1,,,,,,,,3.6,921.0269624999928,924.6314166999946,924.6314629400033,0.3056147999886889,925.0802327999991,925.0802327999991,n,1.825933400003123,929.4181492000062,929.4181492000062,18,2.426,,,,,sub-058,35,70,700,bloc_loop.csv,2023-10-11_13h47.02.985,PainUncertainty,2022.2.5,143.5661545785615,
aigu,forte,stimuli/660Hz,stimuli/forte,bloc_3,prob80hthp_12trials.xlsx,2,24,80,20,0,,,,,0,2,2,2,1,7,19,10,,,,,,,,4.3,929.4181492000062,933.7226493000053,933.7228697400017,0.30472980000195093,934.1668207000039,934.1668207000039,m,1.0351119999977527,936.7519103999948,936.7519103999948,61,1.475,,,,,sub-058,35,70,700,bloc_loop.csv,2023-10-11_13h47.02.985,PainUncertainty,2022.2.5,143.5661545785615,
aigu,moderee,stimuli/660Hz,stimuli/moderee,bloc_3,prob80hthp_12trials.xlsx,2,24,80,20,0,,,,,0,2,2,2,1,8,20,11,,,,,,,,4.9,936.7519103999948,941.6541718999943,941.6542854400061,0.3049380000011297,942.0985772999993,942.0985772999993,n,0.6190604000003077,946.164815600001,946.164815600001,11,3.365,,,,,sub-058,35,70,700,bloc_loop.csv,2023-10-11_13h47.02.985,PainUncertainty,2022.2.5,143.5661545785615,
aigu,forte,stimuli/660Hz,stimuli/forte,bloc_3,prob80hthp_12trials.xlsx,2,24,80,20,0,,,,,0,2,2,2,1,9,21,8,,,,,,,,3.9,946.164815600001,950.0649323999969,950.0649161399954,0.3050672000099439,950.5095363,950.5095363,None,,955.5754149999993,955.5754149999993,31,2.567,952.9763577999984,952.9763577999984,,,sub-058,35,70,700,bloc_loop.csv,2023-10-11_13h47.02.985,PainUncertainty,2022.2.5,143.5661545785615,
grave,forte,stimuli/330Hz,stimuli/forte,bloc_3,prob80hthp_12trials.xlsx,2,24,80,20,0,,,,,0,2,2,2,1,10,22,5,,,,,,,,3.1,955.5754149999993,958.6770132999955,958.677147040001,0.30512990000715945,959.1213431999931,959.1213431999931,m,2.1907616999960737,962.945315799996,962.945315799996,58,1.558,,,,,sub-058,35,70,700,bloc_loop.csv,2023-10-11_13h47.02.985,PainUncertainty,2022.2.5,143.5661545785615,
grave,moderee,stimuli/330Hz,stimuli/moderee,bloc_3,prob80hthp_12trials.xlsx,2,24,80,20,0,,,,,0,2,2,2,1,11,23,4,,,,,,,,3.7,962.945315799996,966.6501535999996,966.6503188399977,0.3048743999970611,967.0948161999986,967.0948161999986,n,0.6948561999888625,970.1672270999989,970.1672270999989,27,2.301,,,,,sub-058,35,70,700,bloc_loop.csv,2023-10-11_13h47.02.985,PainUncertainty,2022.2.5,143.5661545785615,
aigu,forte,stimuli/660Hz,stimuli/forte,bloc_4,prob50_50_4trials.xlsx,2,8,50,50,1,,,,,0,3,3,3,0,0,0,3,,,,,,,,3.8,970.1672270999989,973.9705205000064,973.9705755399948,0.304880099996808,974.4149389999948,974.4149389999948,m,1.3255039000068791,977.9016387000011,977.9016387000011,59,2.093,,,,,sub-058,35,70,700,bloc_loop.csv,2023-10-11_13h47.02.985,PainUncertainty,2022.2.5,143.5661545785615,
grave,moderee,stimuli/330Hz,stimuli/moderee,bloc_4,prob50_50_4trials.xlsx,2,8,50,50,1,,,,,0,3,3,3,0,1,1,0,,,,,,,,3.6,977.9016387000011,981.5061419999984,981.5062202400034,0.30489959999977145,981.9503019999975,981.9503019999975,m,0.817493900001864,987.0589601999964,987.0589601999964,29,4.212,,,,,sub-058,35,70,700,bloc_loop.csv,2023-10-11_13h47.02.985,PainUncertainty,2022.2.5,143.5661545785615,
grave,forte,stimuli/330Hz,stimuli/forte,bloc_4,prob50_50_4trials.xlsx,2,8,50,50,1,,,,,0,3,3,3,0,2,2,1,,,,,,,,3.3,987.0589601999964,990.3620329999976,990.3619966400031,0.30064430000493303,990.8059963999985,990.8059963999985,m,0.853787400003057,993.2470062000066,993.2470062000066,64,1.503,,,,,sub-058,35,70,700,bloc_loop.csv,2023-10-11_13h47.02.985,PainUncertainty,2022.2.5,143.5661545785615,
aigu,moderee,stimuli/660Hz,stimuli/moderee,bloc_4,prob50_50_4trials.xlsx,2,8,50,50,1,,,,,0,3,3,3,0,3,3,2,,,,,,,,3,993.2470062000066,996.2509870000067,996.2510436400073,0.3049795999977505,996.6955005000054,996.6955005000054,n,0.8138979000068503,999.0593911000033,999.0593911000033,24,1.476,,,,,sub-058,35,70,700,bloc_loop.csv,2023-10-11_13h47.02.985,PainUncertainty,2022.2.5,143.5661545785615,
aigu,forte,stimuli/660Hz,stimuli/forte,bloc_4,prob50_50_4trials.xlsx,2,8,50,50,1,,,,,0,3,3,3,1,0,4,3,,,,,,,,4.4,999.0593911000033,1003.4601751000009,1003.4603127400071,0.3050093000056222,1003.9049191999948,1003.9049191999948,m,1.3881344999972498,1008.6638317000034,1008.6638317000034,69,3.316,,,,,sub-058,35,70,700,bloc_loop.csv,2023-10-11_13h47.02.985,PainUncertainty,2022.2.5,143.5661545785615,
grave,forte,stimuli/330Hz,stimuli/forte,bloc_4,prob50_50_4trials.xlsx,2,8,50,50,1,,,,,0,3,3,3,1,1,5,1,,,,,,,,4.6,1008.6638317000034,1013.2669138000056,1013.2669308399957,0.3050375000020722,1013.7111353999935,1013.7111353999935,m,1.1261858999932883,1016.3352030999959,1016.3352030999959,57,1.413,,,,,sub-058,35,70,700,bloc_loop.csv,2023-10-11_13h47.02.985,PainUncertainty,2022.2.5,143.5661545785615,
aigu,moderee,stimuli/660Hz,stimuli/moderee,bloc_4,prob50_50_4trials.xlsx,2,8,50,50,1,,,,,0,3,3,3,1,2,6,2,,,,,,,,3.9,1016.3352030999959,1020.2398894999933,1020.2397808400012,0.30525640000996646,1020.684049500007,1020.684049500007,n,0.7797460000001593,1024.6600273999939,1024.6600273999939,20,3.135,,,,,sub-058,35,70,700,bloc_loop.csv,2023-10-11_13h47.02.985,PainUncertainty,2022.2.5,143.5661545785615,
grave,moderee,stimuli/330Hz,stimuli/moderee,bloc_4,prob50_50_4trials.xlsx,2,8,50,50,1,,,,,0,3,3,3,1,3,7,0,,,,,,,,4.3,1024.6600273999939,1028.9630227000016,1028.9630505400012,0.3052980999927968,1029.407278700004,1029.407278700004,n,0.8155345999985002,1035.3543833000003,1035.3543833000003,18,3.095,,,,,sub-058,35,70,700,bloc_loop.csv,2023-10-11_13h47.02.985,PainUncertainty,2022.2.5,143.5661545785615,
,,,,bloc_4,prob50_50_4trials.xlsx,2,8,50,50,1,,,,,0,3,3,3,,,,,0,0,0,0,,,,,,,,,,,,,,,,,,,1035.3543833000003,1057.4875498000038,sub-058,35,70,700,bloc_loop.csv,2023-10-11_13h47.02.985,PainUncertainty,2022.2.5,143.5661545785615,
grave,forte,stimuli/330Hz,stimuli/forte,bloc_5,prob20hthp_12trials.xlsx,2,24,20,80,0,,,,,0,4,4,4,0,0,0,3,,,,,,,,3.8,1066.7539872000052,1070.5584188999928,1070.5585593400058,0.3045018999982858,1071.0026186000032,1071.0026186000032,m,1.2675164999964181,1074.2814792999998,1074.2814792999998,65,1.928,,,,,sub-058,35,70,700,bloc_loop.csv,2023-10-11_13h47.02.985,PainUncertainty,2022.2.5,143.5661545785615,
aigu,moderee,stimuli/660Hz,stimuli/moderee,bloc_5,prob20hthp_12trials.xlsx,2,24,20,80,0,,,,,0,4,4,4,0,1,1,10,,,,,,,,3.1,1074.2814792999998,1077.386034199997,1077.38593634,0.3048022000002675,1077.8297227000003,1077.8297227000003,n,0.6490515000041341,1080.4963740999956,1080.4963740999956,21,1.934,,,,,sub-058,35,70,700,bloc_loop.csv,2023-10-11_13h47.02.985,PainUncertainty,2022.2.5,143.5661545785615,
grave,forte,stimuli/330Hz,stimuli/forte,bloc_5,prob20hthp_12trials.xlsx,2,24,20,80,0,,,,,0,4,4,4,0,2,2,4,,,,,,,,3.6,1080.4963740999956,1084.1015859000036,1084.101597639997,0.30531660000269767,1084.5460936000018,1084.5460936000018,m,0.7461690999916755,1086.8232647999976,1086.8232647999976,56,1.469,,,,,sub-058,35,70,700,bloc_loop.csv,2023-10-11_13h47.02.985,PainUncertainty,2022.2.5,143.5661545785615,
grave,forte,stimuli/330Hz,stimuli/forte,bloc_5,prob20hthp_12trials.xlsx,2,24,20,80,0,,,,,0,4,4,4,0,3,3,1,,,,,,,,4.4,1086.8232647999976,1091.2273739999946,1091.2275372400065,0.3050513000052888,1091.6720471000008,1091.6720471000008,m,0.792097699988517,1094.254936199999,1094.254936199999,68,1.726,,,,,sub-058,35,70,700,bloc_loop.csv,2023-10-11_13h47.02.985,PainUncertainty,2022.2.5,143.5661545785615,
grave,moderee,stimuli/330Hz,stimuli/moderee,bloc_5,prob20hthp_12trials.xlsx,2,24,20,80,0,,,,,0,4,4,4,0,4,4,5,,,,,,,,3.6,1094.254936199999,1097.8604908999987,1097.8612972400035,0.2997101999935694,1098.3051074999967,1098.3051074999967,n,0.6133178000018233,1102.419752899994,1102.419752899994,17,3.435,,,,,sub-058,35,70,700,bloc_loop.csv,2023-10-11_13h47.02.985,PainUncertainty,2022.2.5,143.5661545785615,
aigu,moderee,stimuli/660Hz,stimuli/moderee,bloc_5,prob20hthp_12trials.xlsx,2,24,20,80,0,,,,,0,4,4,4,0,5,5,6,,,,,,,,4.5,1102.419752899994,1106.9237091999967,1106.9240851399984,0.304759800012107,1107.3679675000021,1107.3679675000021,n,1.387916799998493,1111.912513400006,1111.912513400006,19,3.101,,,,,sub-058,35,70,700,bloc_loop.csv,2023-10-11_13h47.02.985,PainUncertainty,2022.2.5,143.5661545785615,
aigu,moderee,stimuli/660Hz,stimuli/moderee,bloc_5,prob20hthp_12trials.xlsx,2,24,20,80,0,,,,,0,4,4,4,0,6,6,7,,,,,,,,3.9,1111.912513400006,1115.8141388999938,1115.815318340002,0.3037522000086028,1116.2578899999935,1116.2578899999935,n,0.6385518000024604,1119.0584478999954,1119.0584478999954,20,2.082,,,,,sub-058,35,70,700,bloc_loop.csv,2023-10-11_13h47.02.985,PainUncertainty,2022.2.5,143.5661545785615,
grave,forte,stimuli/330Hz,stimuli/forte,bloc_5,prob20hthp_12trials.xlsx,2,24,20,80,0,,,,,0,4,4,4,0,7,7,2,,,,,,,,4.7,1119.0584478999954,1123.759278700003,1123.759264940006,0.305022700005793,1124.2035318999988,1124.2035318999988,m,1.1706177000014577,1127.286316400001,1127.286316400001,61,1.856,,,,,sub-058,35,70,700,bloc_loop.csv,2023-10-11_13h47.02.985,PainUncertainty,2022.2.5,143.5661545785615,
grave,forte,stimuli/330Hz,stimuli/forte,bloc_5,prob20hthp_12trials.xlsx,2,24,20,80,0,,,,,0,4,4,4,0,8,8,0,,,,,,,,4,1127.286316400001,1131.2879382999963,1131.2878296400042,0.3048438999976497,1131.7320730000065,1131.7320730000065,m,0.8494062999961898,1134.2686097999976,1134.2686097999976,66,1.628,,,,,sub-058,35,70,700,bloc_loop.csv,2023-10-11_13h47.02.985,PainUncertainty,2022.2.5,143.5661545785615,
aigu,forte,stimuli/660Hz,stimuli/forte,bloc_5,prob20hthp_12trials.xlsx,2,24,20,80,0,,,,,0,4,4,4,0,9,9,11,,,,,,,,4.6,1134.2686097999976,1138.8723967999977,1138.872702640004,0.304917800007388,1139.320489299993,1139.320489299993,m,0.7456324999948265,1142.2138837999955,1142.2138837999955,65,2.065,,,,,sub-058,35,70,700,bloc_loop.csv,2023-10-11_13h47.02.985,PainUncertainty,2022.2.5,143.5661545785615,
aigu,moderee,stimuli/660Hz,stimuli/moderee,bloc_5,prob20hthp_12trials.xlsx,2,24,20,80,0,,,,,0,4,4,4,0,10,10,9,,,,,,,,3.3,1142.2138837999955,1145.5185367999948,1145.5186487399944,0.3048964000045089,1145.9626786000008,1145.9626786000008,n,1.0760398999991594,1149.7382748999953,1149.7382748999953,19,2.642,,,,,sub-058,35,70,700,bloc_loop.csv,2023-10-11_13h47.02.985,PainUncertainty,2022.2.5,143.5661545785615,
aigu,moderee,stimuli/660Hz,stimuli/moderee,bloc_5,prob20hthp_12trials.xlsx,2,24,20,80,0,,,,,0,4,4,4,0,11,11,8,,,,,,,,4.9,1149.7382748999953,1154.6380902999954,1154.6381801400014,0.3048726999986684,1155.0823697000014,1155.0823697000014,n,0.6047529999923427,1158.5776572000032,1158.5776572000032,11,2.802,,,,,sub-058,35,70,700,bloc_loop.csv,2023-10-11_13h47.02.985,PainUncertainty,2022.2.5,143.5661545785615,
aigu,forte,stimuli/660Hz,stimuli/forte,bloc_5,prob20hthp_12trials.xlsx,2,24,20,80,0,,,,,0,4,4,4,1,0,12,11,,,,,,,,4.6,1158.5776572000032,1163.1809059999941,1163.1808111400053,0.3048572999978205,1163.6248919000063,1163.6248919000063,m,1.347432700000354,1167.6516848000028,1167.6516848000028,58,2.628,,,,,sub-058,35,70,700,bloc_loop.csv,2023-10-11_13h47.02.985,PainUncertainty,2022.2.5,143.5661545785615,
grave,forte,stimuli/330Hz,stimuli/forte,bloc_5,prob20hthp_12trials.xlsx,2,24,20,80,0,,,,,0,4,4,4,1,1,13,0,,,,,,,,3.4,1167.6516848000028,1171.056262500002,1171.056277540006,0.3051111000095261,1171.5005457999941,1171.5005457999941,m,1.1656737000012072,1175.7220187000057,1175.7220187000057,57,2.996,,,,,sub-058,35,70,700,bloc_loop.csv,2023-10-11_13h47.02.985,PainUncertainty,2022.2.5,143.5661545785615,
grave,forte,stimuli/330Hz,stimuli/forte,bloc_5,prob20hthp_12trials.xlsx,2,24,20,80,0,,,,,0,4,4,4,1,2,14,1,,,,,,,,3.5,1175.7220187000057,1179.223927900006,1179.2238846400026,0.3056579999974929,1179.6710985999962,1179.6710985999962,m,0.8794435000017984,1183.0918070000043,1183.0918070000043,59,2.462,,,,,sub-058,35,70,700,bloc_loop.csv,2023-10-11_13h47.02.985,PainUncertainty,2022.2.5,143.5661545785615,
aigu,moderee,stimuli/660Hz,stimuli/moderee,bloc_5,prob20hthp_12trials.xlsx,2,24,20,80,0,,,,,0,4,4,4,1,3,15,10,,,,,,,,3.2,1183.0918070000043,1186.2943202000024,1186.2941926399974,0.30516449999413453,1186.7419962999993,1186.7419962999993,n,0.6232085999945411,1189.0343837999972,1189.0343837999972,17,1.615,,,,,sub-058,35,70,700,bloc_loop.csv,2023-10-11_13h47.02.985,PainUncertainty,2022.2.5,143.5661545785615,
aigu,moderee,stimuli/660Hz,stimuli/moderee,bloc_5,prob20hthp_12trials.xlsx,2,24,20,80,0,,,,,0,4,4,4,1,4,16,9,,,,,,,,3.1,1189.0343837999972,1192.1351658000058,1192.1352442399977,0.30488520000653807,1192.5792961999978,1192.5792961999978,n,0.7150923000008333,1195.1395625000005,1195.1395625000005,15,1.775,,,,,sub-058,35,70,700,bloc_loop.csv,2023-10-11_13h47.02.985,PainUncertainty,2022.2.5,143.5661545785615,
grave,forte,stimuli/330Hz,stimuli/forte,bloc_5,prob20hthp_12trials.xlsx,2,24,20,80,0,,,,,0,4,4,4,1,5,17,3,,,,,,,,3.7,1195.1395625000005,1198.844305199993,1198.8442580400035,0.30505680000351276,1199.2883495999995,1199.2883495999995,m,0.7983856000064407,1202.3292194999958,1202.3292194999958,66,2.191,,,,,sub-058,35,70,700,bloc_loop.csv,2023-10-11_13h47.02.985,PainUncertainty,2022.2.5,143.5661545785615,
grave,forte,stimuli/330Hz,stimuli/forte,bloc_5,prob20hthp_12trials.xlsx,2,24,20,80,0,,,,,0,4,4,4,1,6,18,2,,,,,,,,4,1202.3292194999958,1206.3312226999988,1206.331288839999,0.3051899999991292,1206.7754615000013,1206.7754615000013,n,1.7440252999949735,1210.8489678000042,1210.8489678000042,30,2.268,,,,,sub-058,35,70,700,bloc_loop.csv,2023-10-11_13h47.02.985,PainUncertainty,2022.2.5,143.5661545785615,
grave,forte,stimuli/330Hz,stimuli/forte,bloc_5,prob20hthp_12trials.xlsx,2,24,20,80,0,,,,,0,4,4,4,1,7,19,4,,,,,,,,4.9,1210.8489678000042,1215.7494389000058,1215.7494426399965,0.3050805999955628,1216.1973201999936,1216.1973201999936,m,1.6248600999970222,1219.830935799997,1219.830935799997,63,1.924,,,,,sub-058,35,70,700,bloc_loop.csv,2023-10-11_13h47.02.985,PainUncertainty,2022.2.5,143.5661545785615,
aigu,moderee,stimuli/660Hz,stimuli/moderee,bloc_5,prob20hthp_12trials.xlsx,2,24,20,80,0,,,,,0,4,4,4,1,8,20,8,,,,,,,,4.8,1219.830935799997,1224.632126299999,1224.6320411399968,0.30507240000588354,1225.0761312999966,1225.0761312999966,n,0.7741718999895966,1228.7459585000033,1228.7459585000033,21,2.827,,,,,sub-058,35,70,700,bloc_loop.csv,2023-10-11_13h47.02.985,PainUncertainty,2022.2.5,143.5661545785615,
aigu,moderee,stimuli/660Hz,stimuli/moderee,bloc_5,prob20hthp_12trials.xlsx,2,24,20,80,0,,,,,0,4,4,4,1,9,21,6,,,,,,,,4.6,1228.7459585000033,1233.348408699996,1233.3483031399985,0.29973210000025574,1233.789581799996,1233.789581799996,n,1.3392724000004819,1237.726669900003,1237.726669900003,20,2.538,,,,,sub-058,35,70,700,bloc_loop.csv,2023-10-11_13h47.02.985,PainUncertainty,2022.2.5,143.5661545785615,
grave,moderee,stimuli/330Hz,stimuli/moderee,bloc_5,prob20hthp_12trials.xlsx,2,24,20,80,0,,,,,0,4,4,4,1,10,22,5,,,,,,,,3.3,1237.726669900003,1241.029835399997,1241.029793640005,0.30520960000285413,1241.4782815999934,1241.4782815999934,n,1.7897087999881478,1246.0545960000018,1246.0545960000018,21,2.718,,,,,sub-058,35,70,700,bloc_loop.csv,2023-10-11_13h47.02.985,PainUncertainty,2022.2.5,143.5661545785615,
aigu,moderee,stimuli/660Hz,stimuli/moderee,bloc_5,prob20hthp_12trials.xlsx,2,24,20,80,0,,,,,0,4,4,4,1,11,23,7,,,,,,,,3.4,1246.0545960000018,1249.4547224999988,1249.4548911399936,0.3045581000042148,1249.8986888999934,1249.8986888999934,n,0.7018198000005214,1254.1719701999973,1254.1719701999973,6,3.51,,,,,sub-058,35,70,700,bloc_loop.csv,2023-10-11_13h47.02.985,PainUncertainty,2022.2.5,143.5661545785615,
aigu,moderee,stimuli/660Hz,stimuli/moderee,bloc_6,prob50_50_4trials.xlsx,2,8,50,50,0,,,,,0,5,5,5,0,0,0,2,,,,,,,,4.4,1254.1719701999973,1258.5734870000015,1258.5735509399994,0.3051273999881232,1259.0179612999927,1259.0179612999927,n,0.7304467000067234,1262.7676273999969,1262.7676273999969,4,2.961,,,,,sub-058,35,70,700,bloc_loop.csv,2023-10-11_13h47.02.985,PainUncertainty,2022.2.5,143.5661545785615,
grave,moderee,stimuli/330Hz,stimuli/moderee,bloc_6,prob50_50_4trials.xlsx,2,8,50,50,0,,,,,0,5,5,5,0,1,1,0,,,,,,,,3.4,1262.7676273999969,1266.1716785000026,1266.1717034399946,0.30517600000894163,1266.616227000006,1266.616227000006,n,0.7389492000074824,1270.631337800005,1270.631337800005,7,3.205,,,,,sub-058,35,70,700,bloc_loop.csv,2023-10-11_13h47.02.985,PainUncertainty,2022.2.5,143.5661545785615,
grave,forte,stimuli/330Hz,stimuli/forte,bloc_6,prob50_50_4trials.xlsx,2,8,50,50,0,,,,,0,5,5,5,0,2,2,1,,,,,,,,3.3,1270.631337800005,1273.9369265999994,1273.936963339994,0.3049366000050213,1274.3830652000033,1274.3830652000033,m,0.6993221000011545,1277.6635597999993,1277.6635597999993,51,2.525,,,,,sub-058,35,70,700,bloc_loop.csv,2023-10-11_13h47.02.985,PainUncertainty,2022.2.5,143.5661545785615,
aigu,forte,stimuli/660Hz,stimuli/forte,bloc_6,prob50_50_4trials.xlsx,2,8,50,50,0,,,,,0,5,5,5,0,3,3,3,,,,,,,,3.4,1277.6635597999993,1281.0692348000011,1281.0691975399998,0.30516450000868645,1281.5206576000055,1281.5206576000055,m,0.8686119000049075,1286.675243100006,1286.675243100006,55,4.226,,,,,sub-058,35,70,700,bloc_loop.csv,2023-10-11_13h47.02.985,PainUncertainty,2022.2.5,143.5661545785615,
grave,forte,stimuli/330Hz,stimuli/forte,bloc_6,prob50_50_4trials.xlsx,2,8,50,50,0,,,,,0,5,5,5,1,0,4,1,,,,,,,,3.1,1286.675243100006,1289.7785702999972,1289.778591840007,0.30520899999828544,1290.2227385000006,1290.2227385000006,m,2.064068000006955,1294.1546635999985,1294.1546635999985,58,1.796,,,,,sub-058,35,70,700,bloc_loop.csv,2023-10-11_13h47.02.985,PainUncertainty,2022.2.5,143.5661545785615,
grave,moderee,stimuli/330Hz,stimuli/moderee,bloc_6,prob50_50_4trials.xlsx,2,8,50,50,0,,,,,0,5,5,5,1,1,5,0,,,,,,,,3.9,1294.1546635999985,1298.0573622999946,1298.057552439993,0.3049756999971578,1298.502322100001,1298.502322100001,n,0.6337917999917408,1301.1063117000012,1301.1063117000012,4,1.906,,,,,sub-058,35,70,700,bloc_loop.csv,2023-10-11_13h47.02.985,PainUncertainty,2022.2.5,143.5661545785615,
aigu,moderee,stimuli/660Hz,stimuli/moderee,bloc_6,prob50_50_4trials.xlsx,2,8,50,50,0,,,,,0,5,5,5,1,2,6,2,,,,,,,,3.4,1301.1063117000012,1304.509523300003,1304.5095543399977,0.3053611999930581,1304.9585992999928,1304.9585992999928,n,0.7001822000020184,1308.5213584000012,1308.5213584000012,6,2.782,,,,,sub-058,35,70,700,bloc_loop.csv,2023-10-11_13h47.02.985,PainUncertainty,2022.2.5,143.5661545785615,
aigu,forte,stimuli/660Hz,stimuli/forte,bloc_6,prob50_50_4trials.xlsx,2,8,50,50,0,,,,,0,5,5,5,1,3,7,3,,,,,,,,4.9,1308.5213584000012,1313.4274236000056,1313.4272136399989,0.30518819999997504,1313.871607299996,1313.871607299996,m,0.8493092999997316,1316.7984608999977,1316.7984608999977,70,2.019,,,,,sub-058,35,70,700,bloc_loop.csv,2023-10-11_13h47.02.985,PainUncertainty,2022.2.5,143.5661545785615,
grave,forte,stimuli/330Hz,stimuli/forte,bloc_7,prob80hthp_12trials.xlsx,2,24,80,20,1,,,,,0,6,6,6,0,0,0,5,,,,,,,,3.2,1316.7984608999977,1319.997501100006,1319.9974617400032,0.30496019999554846,1320.4440820000018,1320.4440820000018,m,1.2598087000078522,1323.9912390999962,1323.9912390999962,55,2.227,,,,,sub-058,35,70,700,bloc_loop.csv,2023-10-11_13h47.02.985,PainUncertainty,2022.2.5,143.5661545785615,
aigu,forte,stimuli/660Hz,stimuli/forte,bloc_7,prob80hthp_12trials.xlsx,2,24,80,20,1,,,,,0,6,6,6,0,1,1,8,,,,,,,,3.6,1323.9912390999962,1327.5954903999955,1327.5954737400054,0.30518079998728354,1328.0398010000063,1328.0398010000063,m,1.0234662000002572,1331.0206652000052,1331.0206652000052,58,1.895,,,,,sub-058,35,70,700,bloc_loop.csv,2023-10-11_13h47.02.985,PainUncertainty,2022.2.5,143.5661545785615,
aigu,forte,stimuli/660Hz,stimuli/forte,bloc_7,prob80hthp_12trials.xlsx,2,24,80,20,1,,,,,0,6,6,6,0,2,2,10,,,,,,,,3.9,1331.0206652000052,1334.922941500001,1334.923110039995,0.30454710000776686,1335.3674324000021,1335.3674324000021,m,0.7662822999991477,1337.6843334000005,1337.6843334000005,65,1.477,,,,,sub-058,35,70,700,bloc_loop.csv,2023-10-11_13h47.02.985,PainUncertainty,2022.2.5,143.5661545785615,
grave,moderee,stimuli/330Hz,stimuli/moderee,bloc_7,prob80hthp_12trials.xlsx,2,24,80,20,1,,,,,0,6,6,6,0,3,3,2,,,,,,,,5,1337.6843334000005,1342.688036499996,1342.6882285399945,0.30492949999461416,1343.1361329999927,1343.1361329999927,n,0.6253588999970816,1346.6187834000011,1346.6187834000011,8,2.781,,,,,sub-058,35,70,700,bloc_loop.csv,2023-10-11_13h47.02.985,PainUncertainty,2022.2.5,143.5661545785615,
aigu,forte,stimuli/660Hz,stimuli/forte,bloc_7,prob80hthp_12trials.xlsx,2,24,80,20,1,,,,,0,6,6,6,0,4,4,6,,,,,,,,3.7,1346.6187834000011,1350.3206737,1350.3206886400033,0.30527799999981653,1350.7687839999999,1350.7687839999999,m,0.7261068999941926,1353.9701211000065,1353.9701211000065,57,2.399,,,,,sub-058,35,70,700,bloc_loop.csv,2023-10-11_13h47.02.985,PainUncertainty,2022.2.5,143.5661545785615,
grave,moderee,stimuli/330Hz,stimuli/moderee,bloc_7,prob80hthp_12trials.xlsx,2,24,80,20,1,,,,,0,6,6,6,0,5,5,3,,,,,,,,3,1353.9701211000065,1356.9742704999953,1356.974338739997,0.30012970000097994,1357.4188154000003,1357.4188154000003,n,0.6915200000075856,1361.6571001999982,1361.6571001999982,15,3.484,,,,,sub-058,35,70,700,bloc_loop.csv,2023-10-11_13h47.02.985,PainUncertainty,2022.2.5,143.5661545785615,
grave,moderee,stimuli/330Hz,stimuli/moderee,bloc_7,prob80hthp_12trials.xlsx,2,24,80,20,1,,,,,0,6,6,6,0,6,6,1,,,,,,,,4.5,1361.6571001999982,1366.155905599997,1366.1562473400002,0.30458890000591055,1366.5999370000063,1366.5999370000063,n,0.7681023000041023,1369.9036216999957,1369.9036216999957,6,2.456,,,,,sub-058,35,70,700,bloc_loop.csv,2023-10-11_13h47.02.985,PainUncertainty,2022.2.5,143.5661545785615,
aigu,forte,stimuli/660Hz,stimuli/forte,bloc_7,prob80hthp_12trials.xlsx,2,24,80,20,1,,,,,0,6,6,6,0,7,7,9,,,,,,,,4.7,1369.9036216999957,1374.6082418000005,1374.6082485399995,0.3049934999871766,1375.0565866999968,1375.0565866999968,m,2.3379319999949075,1379.794892299993,1379.794892299993,40,2.323,,,,,sub-058,35,70,700,bloc_loop.csv,2023-10-11_13h47.02.985,PainUncertainty,2022.2.5,143.5661545785615,
grave,moderee,stimuli/330Hz,stimuli/moderee,bloc_7,prob80hthp_12trials.xlsx,2,24,80,20,1,,,,,0,6,6,6,0,8,8,0,,,,,,,,3.8,1379.794892299993,1383.5952698000037,1383.5952751400066,0.30505860000266694,1384.0402261999989,1384.0402261999989,n,0.6925466999964556,1388.4386663000041,1388.4386663000041,14,3.65,,,,,sub-058,35,70,700,bloc_loop.csv,2023-10-11_13h47.02.985,PainUncertainty,2022.2.5,143.5661545785615,
aigu,moderee,stimuli/660Hz,stimuli/moderee,bloc_7,prob80hthp_12trials.xlsx,2,24,80,20,1,,,,,0,6,6,6,0,9,9,11,,,,,,,,4.3,1388.4386663000041,1392.7422310999973,1392.7423784400046,0.3048500000004424,1393.1866612000013,1393.1866612000013,n,0.6119805999915116,1394.718592300007,1394.718592300007,15,0.872,,,,,sub-058,35,70,700,bloc_loop.csv,2023-10-11_13h47.02.985,PainUncertainty,2022.2.5,143.5661545785615,
grave,moderee,stimuli/330Hz,stimuli/moderee,bloc_7,prob80hthp_12trials.xlsx,2,24,80,20,1,,,,,0,6,6,6,0,10,10,4,,,,,,,,4.8,1394.718592300007,1399.5207261000032,1399.520779340007,0.30527310000616126,1399.9651409999933,1399.9651409999933,n,1.0286556000064593,1403.3982033000066,1403.3982033000066,28,2.324,,,,,sub-058,35,70,700,bloc_loop.csv,2023-10-11_13h47.02.985,PainUncertainty,2022.2.5,143.5661545785615,
aigu,forte,stimuli/660Hz,stimuli/forte,bloc_7,prob80hthp_12trials.xlsx,2,24,80,20,1,,,,,0,6,6,6,0,11,11,7,,,,,,,,3.1,1403.3982033000066,1406.5007483999943,1406.5010167400062,0.30465299999923445,1406.9450440999935,1406.9450440999935,m,1.145544200000586,1410.1741686000023,1410.1741686000023,46,2.005,,,,,sub-058,35,70,700,bloc_loop.csv,2023-10-11_13h47.02.985,PainUncertainty,2022.2.5,143.5661545785615,
grave,moderee,stimuli/330Hz,stimuli/moderee,bloc_7,prob80hthp_12trials.xlsx,2,24,80,20,1,,,,,0,6,6,6,1,0,12,0,,,,,,,,3.3,1410.1741686000023,1413.4737927999959,1413.4737847399986,0.30492880000383593,1413.9182313000056,1413.9182313000056,n,1.1199361000035424,1417.9725431999977,1417.9725431999977,23,2.879,,,,,sub-058,35,70,700,bloc_loop.csv,2023-10-11_13h47.02.985,PainUncertainty,2022.2.5,143.5661545785615,
aigu,moderee,stimuli/660Hz,stimuli/moderee,bloc_7,prob80hthp_12trials.xlsx,2,24,80,20,1,,,,,0,6,6,6,1,1,13,11,,,,,,,,3.4,1417.9725431999977,1421.3775112000003,1421.3775814400026,0.3050489000015659,1421.8242960000061,1421.8242960000061,n,1.3001063999981852,1425.0038159999967,1425.0038159999967,23,1.802,,,,,sub-058,35,70,700,bloc_loop.csv,2023-10-11_13h47.02.985,PainUncertainty,2022.2.5,143.5661545785615,
aigu,forte,stimuli/660Hz,stimuli/forte,bloc_7,prob80hthp_12trials.xlsx,2,24,80,20,1,,,,,0,6,6,6,1,2,14,10,,,,,,,,4.2,1425.0038159999967,1429.2051860999927,1429.2050374400017,0.30622860000585206,1429.653779900007,1429.653779900007,m,1.2100067999999737,1434.559185799997,1434.559185799997,64,3.643,,,,,sub-058,35,70,700,bloc_loop.csv,2023-10-11_13h47.02.985,PainUncertainty,2022.2.5,143.5661545785615,
aigu,forte,stimuli/660Hz,stimuli/forte,bloc_7,prob80hthp_12trials.xlsx,2,24,80,20,1,,,,,0,6,6,6,1,3,15,6,,,,,,,,4.2,1434.559185799997,1438.761932399997,1438.7617299400038,0.30667580000590533,1439.213176899997,1439.213176899997,m,0.9865660999930697,1442.6616243000026,1442.6616243000026,58,2.378,,,,,sub-058,35,70,700,bloc_loop.csv,2023-10-11_13h47.02.985,PainUncertainty,2022.2.5,143.5661545785615,
grave,moderee,stimuli/330Hz,stimuli/moderee,bloc_7,prob80hthp_12trials.xlsx,2,24,80,20,1,,,,,0,6,6,6,1,4,16,2,,,,,,,,3.6,1442.6616243000026,1446.2624698,1446.2625170400017,0.30491809999512043,1446.7067938999971,1446.7067938999971,n,1.4235141999961343,1451.5145440000051,1451.5145440000051,13,3.318,,,,,sub-058,35,70,700,bloc_loop.csv,2023-10-11_13h47.02.985,PainUncertainty,2022.2.5,143.5661545785615,
aigu,forte,stimuli/660Hz,stimuli/forte,bloc_7,prob80hthp_12trials.xlsx,2,24,80,20,1,,,,,0,6,6,6,1,5,17,9,,,,,,,,3.8,1451.5145440000051,1455.3189865000022,1455.319073740003,0.3051707999984501,1455.7635191000008,1455.7635191000008,m,1.7021419999946374,1458.8026454000064,1458.8026454000064,40,1.262,,,,,sub-058,35,70,700,bloc_loop.csv,2023-10-11_13h47.02.985,PainUncertainty,2022.2.5,143.5661545785615,
grave,moderee,stimuli/330Hz,stimuli/moderee,bloc_7,prob80hthp_12trials.xlsx,2,24,80,20,1,,,,,0,6,6,6,1,6,18,4,,,,,,,,4.9,1458.8026454000064,1463.7018220000027,1463.701932839994,0.3051513999962481,1464.1462903999927,1464.1462903999927,n,1.1579910000000382,1467.430041700005,1467.430041700005,21,2.06,,,,,sub-058,35,70,700,bloc_loop.csv,2023-10-11_13h47.02.985,PainUncertainty,2022.2.5,143.5661545785615,
aigu,forte,stimuli/660Hz,stimuli/forte,bloc_7,prob80hthp_12trials.xlsx,2,24,80,20,1,,,,,0,6,6,6,1,7,19,7,,,,,,,,3.5,1467.430041700005,1470.9323265999992,1470.9321244399937,0.2993265999975847,1471.3750403000013,1471.3750403000013,m,0.9981296000041766,1475.2602346000058,1475.2602346000058,60,2.831,,,,,sub-058,35,70,700,bloc_loop.csv,2023-10-11_13h47.02.985,PainUncertainty,2022.2.5,143.5661545785615,
grave,forte,stimuli/330Hz,stimuli/forte,bloc_7,prob80hthp_12trials.xlsx,2,24,80,20,1,,,,,0,6,6,6,1,8,20,5,,,,,,,,4.1,1475.2602346000058,1479.3636035999953,1479.3635591399973,0.3050660000008065,1479.8120334999985,1479.8120334999985,None,,1484.9286048000067,1484.9286048000067,44,2.594,,,,,sub-058,35,70,700,bloc_loop.csv,2023-10-11_13h47.02.985,PainUncertainty,2022.2.5,143.5661545785615,
grave,moderee,stimuli/330Hz,stimuli/moderee,bloc_7,prob80hthp_12trials.xlsx,2,24,80,20,1,,,,,0,6,6,6,1,9,21,1,,,,,,,,3.3,1484.9286048000067,1488.2327494000056,1488.2327512399963,0.2997977000050014,1488.6776053000067,1488.6776053000067,n,0.9334417000063695,1492.2322094999981,1492.2322094999981,6,2.559,,,,,sub-058,35,70,700,bloc_loop.csv,2023-10-11_13h47.02.985,PainUncertainty,2022.2.5,143.5661545785615,
grave,moderee,stimuli/330Hz,stimuli/moderee,bloc_7,prob80hthp_12trials.xlsx,2,24,80,20,1,,,,,0,6,6,6,1,10,22,3,,,,,,,,4.4,1492.2322094999981,1496.6363094999979,1496.6363687400037,0.3055021000036504,1497.0832929000026,1497.0832929000026,n,0.765563299995847,1501.1024270000053,1501.1024270000053,9,3.184,,,,,sub-058,35,70,700,bloc_loop.csv,2023-10-11_13h47.02.985,PainUncertainty,2022.2.5,143.5661545785615,
aigu,forte,stimuli/660Hz,stimuli/forte,bloc_7,prob80hthp_12trials.xlsx,2,24,80,20,1,,,,,0,6,6,6,1,11,23,8,,,,,,,,5,1501.1024270000053,1506.1030573000025,1506.1031143400062,0.30479530000593513,1506.5469922000048,1506.5469922000048,m,0.7921230000065407,1511.5095480000018,1511.5095480000018,55,2.142,,,,,sub-058,35,70,700,bloc_loop.csv,2023-10-11_13h47.02.985,PainUncertainty,2022.2.5,143.5661545785615,
,,,,bloc_7,prob80hthp_12trials.xlsx,2,24,80,20,1,,,,,0,6,6,6,,,,,0,0,0,0,,,,,,,,,,,,,,,,,,,1511.5095480000018,1552.142989,sub-058,35,70,700,bloc_loop.csv,2023-10-11_13h47.02.985,PainUncertainty,2022.2.5,143.5661545785615,
aigu,forte,stimuli/660Hz,stimuli/forte,bloc_8,prob50_50_4trials.xlsx,3,12,50,50,0,,,,,0,7,7,7,0,0,0,3,,,,,,,,3.3,1554.110012499994,1557.4146648000024,1557.4146063399996,0.3009291999915149,1557.8605123000016,1557.8605123000016,m,1.5408264999859966,1561.3789705999952,1561.3789705999952,39,1.919,,,,,sub-058,35,70,700,bloc_loop.csv,2023-10-11_13h47.02.985,PainUncertainty,2022.2.5,143.5661545785615,
grave,forte,stimuli/330Hz,stimuli/forte,bloc_8,prob50_50_4trials.xlsx,3,12,50,50,0,,,,,0,7,7,7,0,1,1,1,,,,,,,,4.3,1561.3789705999952,1565.6795400999981,1565.6795503399946,0.3051572000113083,1566.1307299000036,1566.1307299000036,m,0.9344878000119934,1568.4907045,1568.4907045,45,1.357,,,,,sub-058,35,70,700,bloc_loop.csv,2023-10-11_13h47.02.985,PainUncertainty,2022.2.5,143.5661545785615,
grave,moderee,stimuli/330Hz,stimuli/moderee,bloc_8,prob50_50_4trials.xlsx,3,12,50,50,0,,,,,0,7,7,7,0,2,2,0,,,,,,,,3.4,1568.4907045,1571.8956879000034,1571.8955187400018,0.3049973000015598,1572.3397003999999,1572.3397003999999,n,0.6501165000081528,1574.850420200004,1574.850420200004,13,1.809,,,,,sub-058,35,70,700,bloc_loop.csv,2023-10-11_13h47.02.985,PainUncertainty,2022.2.5,143.5661545785615,
aigu,moderee,stimuli/660Hz,stimuli/moderee,bloc_8,prob50_50_4trials.xlsx,3,12,50,50,0,,,,,0,7,7,7,0,3,3,2,,,,,,,,5,1574.850420200004,1579.8545878000004,1579.854633240003,0.3047734000138007,1580.3059495000052,1580.3059495000052,n,0.5999809000059031,1584.1513143000047,1584.1513143000047,11,3.176,,,,,sub-058,35,70,700,bloc_loop.csv,2023-10-11_13h47.02.985,PainUncertainty,2022.2.5,143.5661545785615,
aigu,forte,stimuli/660Hz,stimuli/forte,bloc_8,prob50_50_4trials.xlsx,3,12,50,50,0,,,,,0,7,7,7,1,0,4,3,,,,,,,,4.7,1584.1513143000047,1588.8559512999927,1588.8560385399935,0.304645200012601,1589.2999013999943,1589.2999013999943,m,0.7941792000056012,1591.7591249999969,1591.7591249999969,65,1.581,,,,,sub-058,35,70,700,bloc_loop.csv,2023-10-11_13h47.02.985,PainUncertainty,2022.2.5,143.5661545785615,
grave,moderee,stimuli/330Hz,stimuli/moderee,bloc_8,prob50_50_4trials.xlsx,3,12,50,50,0,,,,,0,7,7,7,1,1,5,0,,,,,,,,3.5,1591.7591249999969,1595.2597683000058,1595.2597479400022,0.30509080000047106,1595.7059762999997,1595.7059762999997,n,0.9860673000075622,1597.783098800006,1597.783098800006,14,1.017,,,,,sub-058,35,70,700,bloc_loop.csv,2023-10-11_13h47.02.985,PainUncertainty,2022.2.5,143.5661545785615,
grave,forte,stimuli/330Hz,stimuli/forte,bloc_8,prob50_50_4trials.xlsx,3,12,50,50,0,,,,,0,7,7,7,1,2,6,1,,,,,,,,4.7,1597.783098800006,1602.482851599998,1602.4830249399995,0.30036190000828356,1602.926737899994,1602.926737899994,m,0.776918100003968,1604.862121099999,1604.862121099999,53,1.087,,,,,sub-058,35,70,700,bloc_loop.csv,2023-10-11_13h47.02.985,PainUncertainty,2022.2.5,143.5661545785615,
aigu,moderee,stimuli/660Hz,stimuli/moderee,bloc_8,prob50_50_4trials.xlsx,3,12,50,50,0,,,,,0,7,7,7,1,3,7,2,,,,,,,,4.7,1604.862121099999,1609.5664812000032,1609.566482440004,0.30498739999893587,1610.0144126999949,1610.0144126999949,n,0.5289135000057286,1612.1484496000048,1612.1484496000048,21,1.539,,,,,sub-058,35,70,700,bloc_loop.csv,2023-10-11_13h47.02.985,PainUncertainty,2022.2.5,143.5661545785615,
grave,forte,stimuli/330Hz,stimuli/forte,bloc_8,prob50_50_4trials.xlsx,3,12,50,50,0,,,,,0,7,7,7,2,0,8,1,,,,,,,,4.4,1612.1484496000048,1616.5533965000068,1616.5533560399956,0.30509650000021793,1616.9974395000027,1616.9974395000027,m,0.9275837000022875,1620.6840499999962,1620.6840499999962,43,2.674,,,,,sub-058,35,70,700,bloc_loop.csv,2023-10-11_13h47.02.985,PainUncertainty,2022.2.5,143.5661545785615,
grave,moderee,stimuli/330Hz,stimuli/moderee,bloc_8,prob50_50_4trials.xlsx,3,12,50,50,0,,,,,0,7,7,7,2,1,9,0,,,,,,,,4.6,1620.6840499999962,1625.2838258999982,1625.2839791400067,0.3012204999977257,1625.728586600002,1625.728586600002,n,1.0017123999859905,1627.9541382000025,1627.9541382000025,24,1.156,,,,,sub-058,35,70,700,bloc_loop.csv,2023-10-11_13h47.02.985,PainUncertainty,2022.2.5,143.5661545785615,
aigu,moderee,stimuli/660Hz,stimuli/moderee,bloc_8,prob50_50_4trials.xlsx,3,12,50,50,0,,,,,0,7,7,7,2,2,10,2,,,,,,,,3.6,1627.9541382000025,1631.5551078999997,1631.5552313399996,0.3051344999985304,1631.999395699997,1631.999395699997,n,1.0611820999911288,1635.5133079999941,1635.5133079999941,21,2.372,,,,,sub-058,35,70,700,bloc_loop.csv,2023-10-11_13h47.02.985,PainUncertainty,2022.2.5,143.5661545785615,
aigu,forte,stimuli/660Hz,stimuli/forte,bloc_8,prob50_50_4trials.xlsx,3,12,50,50,0,,,,,0,7,7,7,2,3,11,3,,,,,,,,4.1,1635.5133079999941,1639.6188803999976,1639.6189225400042,0.3051835999940522,1640.0650354999962,1640.0650354999962,m,0.7162806000123965,1643.040202499993,1643.040202499993,46,2.171,,,,,sub-058,35,70,700,bloc_loop.csv,2023-10-11_13h47.02.985,PainUncertainty,2022.2.5,143.5661545785615,
aigu,moderee,stimuli/660Hz,stimuli/moderee,bloc_9,prob20hthp_12trials.xlsx,3,36,80,20,0,,,,,0,8,8,8,0,0,0,7,,,,,,,,4.5,1643.040202499993,1647.543405599994,1647.5434480400029,0.30114369999500923,1647.9878601999953,1647.9878601999953,n,0.7842019999952754,1651.4302944999945,1651.4302944999945,17,2.581,,,,,sub-058,35,70,700,bloc_loop.csv,2023-10-11_13h47.02.985,PainUncertainty,2022.2.5,143.5661545785615,
grave,forte,stimuli/330Hz,stimuli/forte,bloc_9,prob20hthp_12trials.xlsx,3,36,80,20,0,,,,,0,8,8,8,0,1,1,0,,,,,,,,3.7,1651.4302944999945,1655.1346002000064,1655.1346799399937,0.3051458999980241,1655.5823513000068,1655.5823513000068,n,1.0170370999985607,1659.0350646000006,1659.0350646000006,20,2.384,,,,,sub-058,35,70,700,bloc_loop.csv,2023-10-11_13h47.02.985,PainUncertainty,2022.2.5,143.5661545785615,
grave,forte,stimuli/330Hz,stimuli/forte,bloc_9,prob20hthp_12trials.xlsx,3,36,80,20,0,,,,,0,8,8,8,0,2,2,3,,,,,,,,3.4,1659.0350646000006,1662.440653800004,1662.4406908400008,0.3051675000024261,1662.887271700005,1662.887271700005,m,1.474908799995319,1665.8290563000046,1665.8290563000046,45,1.401,,,,,sub-058,35,70,700,bloc_loop.csv,2023-10-11_13h47.02.985,PainUncertainty,2022.2.5,143.5661545785615,
grave,forte,stimuli/330Hz,stimuli/forte,bloc_9,prob20hthp_12trials.xlsx,3,36,80,20,0,,,,,0,8,8,8,0,3,3,1,,,,,,,,4.4,1665.8290563000046,1670.2332988999988,1670.2332407399983,0.3050461999955587,1670.6774437999993,1670.6774437999993,None,,1674.9526583999977,1674.9526583999977,45,1.759,1673.1464917999983,1673.1464917999983,,,sub-058,35,70,700,bloc_loop.csv,2023-10-11_13h47.02.985,PainUncertainty,2022.2.5,143.5661545785615,
grave,moderee,stimuli/330Hz,stimuli/moderee,bloc_9,prob20hthp_12trials.xlsx,3,36,80,20,0,,,,,0,8,8,8,0,4,4,5,,,,,,,,4.5,1674.9526583999977,1679.4571408000047,1679.4567724399997,0.30495939998945687,1679.9007358999952,1679.9007358999952,n,1.1329919999989215,1684.0940948000061,1684.0940948000061,14,3.005,,,,,sub-058,35,70,700,bloc_loop.csv,2023-10-11_13h47.02.985,PainUncertainty,2022.2.5,143.5661545785615,
aigu,moderee,stimuli/660Hz,stimuli/moderee,bloc_9,prob20hthp_12trials.xlsx,3,36,80,20,0,,,,,0,8,8,8,0,5,5,10,,,,,,,,4.4,1684.0940948000061,1688.4999510000052,1688.499681739998,0.3048847000027308,1688.9435023999977,1688.9435023999977,n,0.6321143999957712,1691.6032214000006,1691.6032214000006,7,1.976,,,,,sub-058,35,70,700,bloc_loop.csv,2023-10-11_13h47.02.985,PainUncertainty,2022.2.5,143.5661545785615,
aigu,moderee,stimuli/660Hz,stimuli/moderee,bloc_9,prob20hthp_12trials.xlsx,3,36,80,20,0,,,,,0,8,8,8,0,6,6,8,,,,,,,,3.9,1691.6032214000006,1695.5069736000005,1695.5069761399966,0.2992720000038389,1695.9453491000022,1695.9453491000022,n,0.6889552000066033,1697.7892998000025,1697.7892998000025,14,1.08,,,,,sub-058,35,70,700,bloc_loop.csv,2023-10-11_13h47.02.985,PainUncertainty,2022.2.5,143.5661545785615,
aigu,forte,stimuli/660Hz,stimuli/forte,bloc_9,prob20hthp_12trials.xlsx,3,36,80,20,0,,,,,0,8,8,8,0,7,7,11,,,,,,,,3,1697.7892998000025,1700.7924169000034,1700.7924007400027,0.30496160000620876,1701.2366350999946,1701.2366350999946,m,0.687889399996493,1703.7493916999956,1703.7493916999956,63,1.753,,,,,sub-058,35,70,700,bloc_loop.csv,2023-10-11_13h47.02.985,PainUncertainty,2022.2.5,143.5661545785615,
aigu,moderee,stimuli/660Hz,stimuli/moderee,bloc_9,prob20hthp_12trials.xlsx,3,36,80,20,0,,,,,0,8,8,8,0,8,8,9,,,,,,,,4.7,1703.7493916999956,1708.4536713999987,1708.453546439999,0.3006932999996934,1708.8977563999943,1708.8977563999943,n,1.779956200000015,1711.9800667999953,1711.9800667999953,26,1.224,,,,,sub-058,35,70,700,bloc_loop.csv,2023-10-11_13h47.02.985,PainUncertainty,2022.2.5,143.5661545785615,
grave,forte,stimuli/330Hz,stimuli/forte,bloc_9,prob20hthp_12trials.xlsx,3,36,80,20,0,,,,,0,8,8,8,0,9,9,4,,,,,,,,3.8,1711.9800667999953,1715.7803335000062,1715.780425940003,0.30509550000715535,1716.2317677999963,1716.2317677999963,m,0.6103014999971492,1718.2582863999996,1718.2582863999996,51,1.343,,,,,sub-058,35,70,700,bloc_loop.csv,2023-10-11_13h47.02.985,PainUncertainty,2022.2.5,143.5661545785615,
aigu,moderee,stimuli/660Hz,stimuli/moderee,bloc_9,prob20hthp_12trials.xlsx,3,36,80,20,0,,,,,0,8,8,8,0,10,10,6,,,,,,,,3.7,1718.2582863999996,1721.9616638000007,1721.9616000400013,0.3050418999919202,1722.4057227000012,1722.4057227000012,n,1.3122661000088556,1726.2184224999946,1726.2184224999946,15,2.434,,,,,sub-058,35,70,700,bloc_loop.csv,2023-10-11_13h47.02.985,PainUncertainty,2022.2.5,143.5661545785615,
grave,forte,stimuli/330Hz,stimuli/forte,bloc_9,prob20hthp_12trials.xlsx,3,36,80,20,0,,,,,0,8,8,8,0,11,11,2,,,,,,,,4.3,1726.2184224999946,1730.5181675000058,1730.5182339399937,0.30596719999448396,1730.9675535999995,1730.9675535999995,m,1.1838629999983823,1733.1686326000054,1733.1686326000054,58,0.941,,,,,sub-058,35,70,700,bloc_loop.csv,2023-10-11_13h47.02.985,PainUncertainty,2022.2.5,143.5661545785615,
grave,forte,stimuli/330Hz,stimuli/forte,bloc_9,prob20hthp_12trials.xlsx,3,36,80,20,0,,,,,0,8,8,8,1,0,12,2,,,,,,,,4.4,1733.1686326000054,1737.5678542999958,1737.568128140006,0.3046745999890845,1738.0120373999962,1738.0120373999962,m,1.5479729999933625,1743.1556811000046,1743.1556811000046,52,3.546,,,,,sub-058,35,70,700,bloc_loop.csv,2023-10-11_13h47.02.985,PainUncertainty,2022.2.5,143.5661545785615,
grave,forte,stimuli/330Hz,stimuli/forte,bloc_9,prob20hthp_12trials.xlsx,3,36,80,20,0,,,,,0,8,8,8,1,1,13,0,,,,,,,,3.2,1743.1556811000046,1746.360243300005,1746.3602439400013,0.30524689999583643,1746.8046905999945,1746.8046905999945,m,1.3628428999945754,1751.179860999997,1751.179860999997,61,2.935,,,,,sub-058,35,70,700,bloc_loop.csv,2023-10-11_13h47.02.985,PainUncertainty,2022.2.5,143.5661545785615,
aigu,moderee,stimuli/660Hz,stimuli/moderee,bloc_9,prob20hthp_12trials.xlsx,3,36,80,20,0,,,,,0,8,8,8,1,2,14,7,,,,,,,,3.1,1751.179860999997,1754.2854416000046,1754.2852258399973,0.30533300001116004,1754.7329269000038,1754.7329269000038,n,1.4074836000072537,1758.8333923000027,1758.8333923000027,16,2.635,,,,,sub-058,35,70,700,bloc_loop.csv,2023-10-11_13h47.02.985,PainUncertainty,2022.2.5,143.5661545785615,
aigu,moderee,stimuli/660Hz,stimuli/moderee,bloc_9,prob20hthp_12trials.xlsx,3,36,80,20,0,,,,,0,8,8,8,1,3,15,9,,,,,,,,3.8,1758.8333923000027,1762.633221600001,1762.6331356400071,0.3047770999983186,1763.0774575999967,1763.0774575999967,n,0.9074983000027714,1766.8723526999966,1766.8723526999966,15,2.826,,,,,sub-058,35,70,700,bloc_loop.csv,2023-10-11_13h47.02.985,PainUncertainty,2022.2.5,143.5661545785615,
aigu,moderee,stimuli/660Hz,stimuli/moderee,bloc_9,prob20hthp_12trials.xlsx,3,36,80,20,0,,,,,0,8,8,8,1,4,16,10,,,,,,,,3.6,1766.8723526999966,1770.4742660000047,1770.4743647400057,0.3049464000068838,1770.9223866999964,1770.9223866999964,n,1.2158072000020184,1773.9202239000006,1773.9202239000006,14,1.712,,,,,sub-058,35,70,700,bloc_loop.csv,2023-10-11_13h47.02.985,PainUncertainty,2022.2.5,143.5661545785615,
grave,forte,stimuli/330Hz,stimuli/forte,bloc_9,prob20hthp_12trials.xlsx,3,36,80,20,0,,,,,0,8,8,8,1,5,17,4,,,,,,,,4.5,1773.9202239000006,1778.4197320999956,1778.4197190400039,0.3049814999976661,1778.8638787999953,1778.8638787999953,m,1.1525289999990491,1781.9890389000066,1781.9890389000066,57,1.907,,,,,sub-058,35,70,700,bloc_loop.csv,2023-10-11_13h47.02.985,PainUncertainty,2022.2.5,143.5661545785615,
grave,moderee,stimuli/330Hz,stimuli/moderee,bloc_9,prob20hthp_12trials.xlsx,3,36,80,20,0,,,,,0,8,8,8,1,6,18,5,,,,,,,,3,1781.9890389000066,1784.989833300002,1784.9898062400055,0.3051093999965815,1785.4340636999987,1785.4340636999987,n,1.2514271999971243,1788.6864184000005,1788.6864184000005,17,1.92,,,,,sub-058,35,70,700,bloc_loop.csv,2023-10-11_13h47.02.985,PainUncertainty,2022.2.5,143.5661545785615,
aigu,forte,stimuli/660Hz,stimuli/forte,bloc_9,prob20hthp_12trials.xlsx,3,36,80,20,0,,,,,0,8,8,8,1,7,19,11,,,,,,,,3.3,1788.6864184000005,1791.990792800003,1791.990656740006,0.30524050000531133,1792.4350185999938,1792.4350185999938,m,1.1436885000002803,1795.9578556000051,1795.9578556000051,57,2.303,,,,,sub-058,35,70,700,bloc_loop.csv,2023-10-11_13h47.02.985,PainUncertainty,2022.2.5,143.5661545785615,
aigu,moderee,stimuli/660Hz,stimuli/moderee,bloc_9,prob20hthp_12trials.xlsx,3,36,80,20,0,,,,,0,8,8,8,1,8,20,8,,,,,,,,4.4,1795.9578556000051,1800.359689399993,1800.3599478400022,0.3050629000063054,1800.8082233000023,1800.8082233000023,n,0.854514200007543,1803.8681619999988,1803.8681619999988,11,2.128,,,,,sub-058,35,70,700,bloc_loop.csv,2023-10-11_13h47.02.985,PainUncertainty,2022.2.5,143.5661545785615,
grave,forte,stimuli/330Hz,stimuli/forte,bloc_9,prob20hthp_12trials.xlsx,3,36,80,20,0,,,,,0,8,8,8,1,9,21,3,,,,,,,,3.3,1803.8681619999988,1807.1735401000042,1807.1733897400002,0.29974279999441933,1807.6178330999974,1807.6178330999974,m,0.831476899998961,1811.1377732999972,1811.1377732999972,60,2.629,,,,,sub-058,35,70,700,bloc_loop.csv,2023-10-11_13h47.02.985,PainUncertainty,2022.2.5,143.5661545785615,
grave,forte,stimuli/330Hz,stimuli/forte,bloc_9,prob20hthp_12trials.xlsx,3,36,80,20,0,,,,,0,8,8,8,1,10,22,1,,,,,,,,4.5,1811.1377732999972,1815.6396079999977,1815.6396538400033,0.3051080000004731,1816.0876419999986,1816.0876419999986,n,1.1323482000007061,1819.7035967999982,1819.7035967999982,14,2.412,,,,,sub-058,35,70,700,bloc_loop.csv,2023-10-11_13h47.02.985,PainUncertainty,2022.2.5,143.5661545785615,
aigu,moderee,stimuli/660Hz,stimuli/moderee,bloc_9,prob20hthp_12trials.xlsx,3,36,80,20,0,,,,,0,8,8,8,1,11,23,6,,,,,,,,4.7,1819.7035967999982,1824.4041725999996,1824.404265139997,0.30512470001121983,1824.8520628999977,1824.8520628999977,n,0.865840800004662,1829.818972299996,1829.818972299996,16,4.032,,,,,sub-058,35,70,700,bloc_loop.csv,2023-10-11_13h47.02.985,PainUncertainty,2022.2.5,143.5661545785615,
aigu,moderee,stimuli/660Hz,stimuli/moderee,bloc_9,prob20hthp_12trials.xlsx,3,36,80,20,0,,,,,0,8,8,8,2,0,24,10,,,,,,,,4.2,1829.818972299996,1834.025175799994,1834.0238803400018,0.30474669999966864,1834.467627799997,1834.467627799997,n,1.5744492000085302,1838.7990327000007,1838.7990327000007,5,2.699,,,,,sub-058,35,70,700,bloc_loop.csv,2023-10-11_13h47.02.985,PainUncertainty,2022.2.5,143.5661545785615,
aigu,moderee,stimuli/660Hz,stimuli/moderee,bloc_9,prob20hthp_12trials.xlsx,3,36,80,20,0,,,,,0,8,8,8,2,1,25,7,,,,,,,,4.7,1838.7990327000007,1843.503885099999,1843.504005640006,0.3045720999944024,1843.948260899997,1843.948260899997,n,0.7618076999933692,1845.911485100005,1845.911485100005,11,1.125,,,,,sub-058,35,70,700,bloc_loop.csv,2023-10-11_13h47.02.985,PainUncertainty,2022.2.5,143.5661545785615,
grave,forte,stimuli/330Hz,stimuli/forte,bloc_9,prob20hthp_12trials.xlsx,3,36,80,20,0,,,,,0,8,8,8,2,2,26,0,,,,,,,,3.7,1845.911485100005,1849.6156327000062,1849.6156324399956,0.30497189999732655,1850.059719099998,1850.059719099998,m,0.6828607000061311,1853.9971929000021,1853.9971929000021,66,3.178,,,,,sub-058,35,70,700,bloc_loop.csv,2023-10-11_13h47.02.985,PainUncertainty,2022.2.5,143.5661545785615,
aigu,moderee,stimuli/660Hz,stimuli/moderee,bloc_9,prob20hthp_12trials.xlsx,3,36,80,20,0,,,,,0,8,8,8,2,3,27,8,,,,,,,,3.4,1853.9971929000021,1857.4011156000051,1857.401083840002,0.30518860000302084,1857.8455101,1857.8455101,n,0.6821646000025794,1862.196512800001,1862.196512800001,22,3.594,,,,,sub-058,35,70,700,bloc_loop.csv,2023-10-11_13h47.02.985,PainUncertainty,2022.2.5,143.5661545785615,
grave,forte,stimuli/330Hz,stimuli/forte,bloc_9,prob20hthp_12trials.xlsx,3,36,80,20,0,,,,,0,8,8,8,2,4,28,2,,,,,,,,3.2,1862.196512800001,1865.4022190999967,1865.4020339400042,0.305192600004375,1865.8465120000037,1865.8465120000037,m,0.8172023999941302,1868.3813389999996,1868.3813389999996,65,1.643,,,,,sub-058,35,70,700,bloc_loop.csv,2023-10-11_13h47.02.985,PainUncertainty,2022.2.5,143.5661545785615,
grave,moderee,stimuli/330Hz,stimuli/moderee,bloc_9,prob20hthp_12trials.xlsx,3,36,80,20,0,,,,,0,8,8,8,2,5,29,5,,,,,,,,3.2,1868.3813389999996,1871.5837876000005,1871.5839398400014,0.29932540000299923,1872.0278678000032,1872.0278678000032,n,0.6334117999940645,1875.4774297999975,1875.4774297999975,23,2.733,,,,,sub-058,35,70,700,bloc_loop.csv,2023-10-11_13h47.02.985,PainUncertainty,2022.2.5,143.5661545785615,
grave,forte,stimuli/330Hz,stimuli/forte,bloc_9,prob20hthp_12trials.xlsx,3,36,80,20,0,,,,,0,8,8,8,2,6,30,4,,,,,,,,4.1,1875.4774297999975,1879.577338899995,1879.577409740002,0.30513629999768455,1880.0216669999936,1880.0216669999936,m,0.9959712999989279,1882.3145121999987,1882.3145121999987,50,1.232,,,,,sub-058,35,70,700,bloc_loop.csv,2023-10-11_13h47.02.985,PainUncertainty,2022.2.5,143.5661545785615,
grave,forte,stimuli/330Hz,stimuli/forte,bloc_9,prob20hthp_12trials.xlsx,3,36,80,20,0,,,,,0,8,8,8,2,7,31,3,,,,,,,,4.8,1882.3145121999987,1887.119821100001,1887.1201436400036,0.3047372000000905,1887.5645070000028,1887.5645070000028,m,0.6515718000009656,1890.6262875999964,1890.6262875999964,50,2.338,,,,,sub-058,35,70,700,bloc_loop.csv,2023-10-11_13h47.02.985,PainUncertainty,2022.2.5,143.5661545785615,
aigu,moderee,stimuli/660Hz,stimuli/moderee,bloc_9,prob20hthp_12trials.xlsx,3,36,80,20,0,,,,,0,8,8,8,2,8,32,9,,,,,,,,3.8,1890.6262875999964,1894.426406700004,1894.4264802400023,0.3050437000056263,1894.870738800004,1894.870738800004,n,0.6566949999978533,1897.6425586999976,1897.6425586999976,13,2.033,,,,,sub-058,35,70,700,bloc_loop.csv,2023-10-11_13h47.02.985,PainUncertainty,2022.2.5,143.5661545785615,
aigu,forte,stimuli/660Hz,stimuli/forte,bloc_9,prob20hthp_12trials.xlsx,3,36,80,20,0,,,,,0,8,8,8,2,9,33,11,,,,,,,,3.6,1897.6425586999976,1901.2485274000064,1901.24700074,0.3052369999932125,1901.6945475999964,1901.6945475999964,m,0.9901599000004353,1905.103605700002,1905.103605700002,70,2.35,,,,,sub-058,35,70,700,bloc_loop.csv,2023-10-11_13h47.02.985,PainUncertainty,2022.2.5,143.5661545785615,
grave,forte,stimuli/330Hz,stimuli/forte,bloc_9,prob20hthp_12trials.xlsx,3,36,80,20,0,,,,,0,8,8,8,2,10,34,1,,,,,,,,4.9,1905.103605700002,1910.0049261999957,1910.0050083400013,0.30518330000631977,1910.4529263000004,1910.4529263000004,m,1.7426081000012346,1914.7887982999964,1914.7887982999964,56,2.518,,,,,sub-058,35,70,700,bloc_loop.csv,2023-10-11_13h47.02.985,PainUncertainty,2022.2.5,143.5661545785615,
aigu,moderee,stimuli/660Hz,stimuli/moderee,bloc_9,prob20hthp_12trials.xlsx,3,36,80,20,0,,,,,0,8,8,8,2,11,35,6,,,,,,,,3.7,1914.7887982999964,1918.4916736000014,1918.491718640001,0.30521290001343004,1918.9359766999987,1918.9359766999987,n,0.7128636999987066,1921.8235084000044,1921.8235084000044,19,2.149,,,,,sub-058,35,70,700,bloc_loop.csv,2023-10-11_13h47.02.985,PainUncertainty,2022.2.5,143.5661545785615,
